time,seconds_elapsed,z,y,x
1772733769645777400,0.05877734375,-0.16432430076003074,0.07300603510318324,0.04484298957337159
1772733769655791400,0.068791259765625,-0.2545510996520519,0.06507200896721332,0.04255029835919849
1772733769665806300,0.078806396484375,-0.2916577182531357,0.050129821102228016,0.01809142740983516
1772733769675821300,0.0888212890625,-0.28818974988162516,0.05195809597531333,-0.01617324119701516
1772733769685836300,0.098836181640625,-0.2995288900196552,0.07190116086751222,-0.02181023330383468
1772733769695851300,0.108851318359375,-0.2247188559681177,0.09193720127278938,-0.004833329307427629
1772733769705866200,0.1188662109375,-0.13909049078226088,0.08060933144744485,0.023284274212038145
1772733769715881500,0.128881591796875,-0.07083528520166874,0.08740538479574024,0.04517851427120622
1772733769725896400,0.138896484375,0.019512509721517562,0.04662038820916786,0.03259534258856438
1772733769735911400,0.148911376953125,0.11158405969738959,0.023672182117658667,-0.002242609561327845
1772733769745926400,0.158926513671875,0.18129004860818385,-0.011130931614292785,-0.02618385897791013
1772733769755941400,0.16894140625,0.25333354055583474,-0.017056561086897272,-0.051341745042102406
1772733769765956400,0.178956298828125,0.304540580701828,-0.020512998850818257,-0.03615584808173589
1772733769775970600,0.188970458984375,0.32370062372386454,-0.024667383150488602,-0.00995739432289265
1772733769785985500,0.198985595703125,0.3284773366063833,-0.029116574261826463,0.027543287929962388
1772733769796000500,0.20900048828125,0.30330373238325115,-0.04789020721558481,0.04626780734525528
1772733769806015500,0.219015380859375,0.23186288250386713,-0.04852048164287116,0.024780705048562956
1772733769816030500,0.229030517578125,0.16756898176968096,-0.020947921952651813,-0.022300108313164674
1772733769826045400,0.23904541015625,0.1059375782430172,0.008684442644473165,-0.04302441411039326
1772733769836060200,0.24906005859375,0.0125613754093647,0.009102978583797812,-0.04168617407684214
1772733769846075400,0.259075439453125,-0.03218202168047428,0.0289240153983701,-0.019341048445017075
1772733769856090400,0.26909033203125,-0.0743576141089201,0.021102491459855807,0.023277154918084852
1772733769866105300,0.279105224609375,-0.115440150603652,0.018711468137474728,0.04664782877194229
1772733769876120300,0.289120361328125,-0.12773323046565055,0.0440868602767121,0.04498869992068503
1772733769886135300,0.29913525390625,-0.1067477255821228,0.04510427542463876,0.01696240511359647
1772733769896149500,0.3091494140625,-0.1129477492660284,0.07354702837839722,-0.012294070809264666
1772733769906164500,0.31916455078125,-0.07587503293454646,0.062457415155181654,-0.02766624302277341
1772733769916179500,0.329179443359375,-0.011560673934221267,0.04396146206506528,-0.03638835079651326
1772733769926194400,0.3391943359375,0.040026305440068244,0.02419787279246375,-0.020498689480964092
1772733769936209400,0.34920947265625,0.08441255965530872,0.006854642534581944,0.020347339410730636
1772733769946224400,0.359224365234375,0.1254822366684675,-0.0225823821535334,0.02635537048676051
1772733769956239400,0.3692392578125,0.15051555563807487,-0.0010156387493712826,0.02134499497883953
1772733769966254600,0.379254638671875,0.16579788044393062,-0.015213483653613365,0.0005791150622069835
1772733769976269600,0.38926953125,0.19243045130372047,-0.003747557064448483,-0.01253916357755661
1772733769986284500,0.399284423828125,0.18596973085701465,-0.0036442473870236425,-0.03196023215595633
1772733769996299500,0.409299560546875,0.15734452487528322,-0.01050217329065781,-0.03109844596115872
1772733770006314500,0.419314453125,0.14112345791459083,-0.004566577263176441,-0.004629340301081538
1772733770016328400,0.429328369140625,0.0844920546323061,-0.013539563658600672,0.018958666097884998
1772733770026343400,0.439343505859375,0.048210780939459796,0.006923159459838644,0.007788589783292263
1772733770036358400,0.4493583984375,0.008044774767756462,0.028993600902706383,-0.007901133079943246
1772733770046373400,0.459373291015625,-0.013698270484805106,0.020359171412419528,-0.00607277600846719
1772733770056388400,0.469388427734375,-0.0276367794662714,0.020066718671331182,-0.027468473694659767
1772733770066403300,0.4794033203125,-0.03661152856051922,0.03497870319429785,-0.009589743754011578
1772733770076418300,0.489418212890625,-0.03359130395650863,0.027144237575819713,-0.003830253212107345
1772733770086433500,0.49943359375,-0.011100655207037924,0.03564456495819613,0.015993687945604323
1772733770096448500,0.509448486328125,0.021574118426442145,0.0357083235099446,0.02132735429087188
1772733770106463500,0.51946337890625,0.04541851987242698,0.03179391741203144,0.003748557144869119
1772733770116478500,0.529478515625,0.0741957015454769,0.000609254472143948,-0.009026141354767606
1772733770126493400,0.539493408203125,0.08605331259965895,-0.003911547420546412,-0.027169134555058552
1772733770136507400,0.54950732421875,0.1198924538373947,-0.015175375566352158,-0.022661867997376246
1772733770146522400,0.5595224609375,0.12049801851511001,-0.0007816336306743323,-0.009870519757037982
1772733770156537300,0.569537353515625,0.1291694007486105,0.007165736044058576,0.02401256565370131
1772733770166552300,0.57955224609375,0.11283844367265701,0.004743888325151056,0.031230684905545786
1772733770176567300,0.5895673828125,0.12283435250818729,0.003547463348507881,0.028734392844093962
1772733770186582300,0.599582275390625,0.08314473167657851,0.011033462589187547,-0.0064594189721858125
1772733770196597200,0.60959716796875,0.04974047472476959,0.0011668244228232652,-0.02240827226222027
1772733770206612200,0.6196123046875,0.02816226464509964,0.004234742359770461,-0.024368936776742338
1772733770216627500,0.62962744140625,0.026644261297583578,0.009490270001487807,-0.013420088297664187
1772733770226642400,0.639642333984375,0.012120061382651329,0.026267262945044785,-0.0036775331686949354
1772733770236657400,0.649657470703125,-0.010621347257494926,0.01729483367204666,0.014165093412110582
1772733770246671400,0.65967138671875,0.009895371070504188,0.031896300074271855,0.01362166615121532
1772733770256686300,0.669686279296875,0.025780337944626808,0.029754155212733894,0.010041953634074889
1772733770266701600,0.67970166015625,0.028950784674286842,0.028580572255561126,-0.002709469021251425
1772733770276716500,0.689716552734375,0.053368017572164535,0.020319844049029052,-0.01027188993243035
1772733770286731500,0.6997314453125,0.07688274867236614,0.024372005516663194,-0.010076088799117132
1772733770296746500,0.70974658203125,0.08467793259322642,0.008443701824313029,-0.008491828982089646
1772733770306761500,0.719761474609375,0.09740355865359306,-0.005886217627534642,-0.003456807656679302
1772733770316776400,0.7297763671875,0.09022036915123462,-0.014674211978027596,-0.0008894094206625595
1772733770326791200,0.739791259765625,0.09395312593877315,-0.02026627809773199,-0.0017209420410916208
1772733770336806400,0.749806396484375,0.100072485601902,0.0017488346950151024,-0.006902829057862982
1772733770346821400,0.7598212890625,0.07431494401097297,0.011874333860119804,-0.00805151503579691
1772733770356836400,0.76983642578125,0.05918108776509762,0.02825309386686422,-0.0058976888696197416
1772733770366850300,0.779850341796875,0.03806464997828007,0.022690354306343943,-0.0007074267501477151
1772733770376865300,0.789865234375,0.03625730829536915,0.00905152239119634,0.00913223207774572
1772733770386880500,0.799880615234375,0.029369886869192122,0.00769999818438664,0.0024780759847490117
1772733770396895500,0.8098955078125,0.014859130957722663,0.00802835335591808,-0.007149602326587773
1772733770406910500,0.819910400390625,0.02549392221868038,0.008509369205357506,-0.00006964943641796708
1772733770416925400,0.829925537109375,0.03298983093202114,0.01717320745321922,-0.009294911826169117
1772733770426940400,0.8399404296875,0.04662263496518135,0.03763069727411494,-0.0038280658215982836
1772733770436955400,0.849955322265625,0.06818506295382976,0.011291894329665228,0.0022929286761907857
1772733770446970400,0.859970458984375,0.06505436371266841,0.0004546758317854255,0.0038720145611790937
1772733770456985600,0.869985595703125,0.0804746356844902,0.012177819451875984,0.002604940067697316
1772733770467000600,0.88000048828125,0.07359189043343067,0.005842122757481411,0.005858156010252423
1772733770477014300,0.89001416015625,0.06924772374927997,0.0003852090584579855,0.0017539538281271232
1772733770487029200,0.900029296875,0.07731821748018264,0.007583860991429537,0.007475907104928046
1772733770497044200,0.910044189453125,0.08149579542577266,0.01681622897540219,-0.008392282164329662
1772733770507059500,0.9200595703125,0.06457447124123573,0.017205602752324193,-0.011884681724198163
1772733770517074400,0.930074462890625,0.05064765269756317,0.005145938920555636,-0.0010066334590082987
1772733770527089400,0.94008935546875,0.04974222829043865,0.006368895711097866,0.003982224336848594
1772733770537104400,0.9501044921875,0.04285656042993068,0.028384172900626434,0.015077216988080181
1772733770547119400,0.960119384765625,0.0337321737319231,0.023605459857266396,0.005320035112136975
1772733770557134300,0.97013427734375,0.03807867850363254,0.01313764092735946,-0.0012703395962249486
1772733770567149300,0.9801494140625,0.05544599289000034,0.021848158728005364,0.005864421354257502
1772733770577164300,0.990164306640625,0.05081716404557228,0.005058342835493386,-0.017482127271918578
1772733770587179500,1.000179443359375,0.05291968928277492,0.009085470326570793,0.006091357411351054
1772733770597193500,1.010193359375,0.06818973912894725,0.008104532997822388,0.0009367237276863307
1772733770607208700,1.020208740234375,0.07911679133474826,0.013144025002373381,0.016346803099056704
1772733770617223700,1.0302236328125,0.07926584441661834,0.011078534706775098,-0.0017123660089913755
1772733770627238700,1.04023876953125,0.06728899089694022,0.008377276391442865,-0.0038529262682190164
1772733770637254000,1.05025390625,0.07416472188532353,0.007175873845582828,-0.003667938789865002
1772733770647268900,1.060268798828125,0.07206161212623119,0.012643729063728824,-0.011261887350468895
1772733770657283800,1.070283935546875,0.04796177461445331,0.010940085217310115,-0.010281260548974387
1772733770667298800,1.080298828125,0.04496259279847145,0.009829283564351499,0.001725010861433111
1772733770677313800,1.090313720703125,0.05483516751527786,0.01087396117853932,0.0019658064805204048
1772733770687328800,1.100328857421875,0.05603109930157661,0.019452431831043213,0.009252214328758418
1772733770697343700,1.11034375,0.045258945396542544,0.025516216248879207,0.012944488408858887
1772733770707357700,1.120357666015625,0.053643327382206916,0.024327253059484064,0.0023890414278488607
1772733770717372700,1.13037255859375,0.042726212048530575,0.01615939990133047,-0.005974699628585949
1772733770727387600,1.1403876953125,0.04228372897803783,0.009530994737520813,-0.0002762139923404902
1772733770737402600,1.150402587890625,0.058899932736158365,0.008505569813074543,-0.013952099115401505
1772733770747417600,1.16041748046875,0.07596212669610977,0.0024509002834558484,-0.00613726977915503
1772733770757432600,1.1704326171875,0.06503975066542625,0.01077820005333051,0.011558093818067572
1772733770767447800,1.18044775390625,0.06623451340794563,0.0035088301048614083,0.008290949814859777
1772733770777462800,1.190462890625,0.0755073686659336,0.0016703078323975205,0.0075111017158953465
1772733770787477800,1.200477783203125,0.06757248401343822,0.007629627228761092,0.0009108814669540152
1772733770797492700,1.21049267578125,0.052901569104194635,0.00778431546697393,-0.004594492749986238
1772733770807507700,1.2205078125,0.058732759475708,0.020766208710195494,-0.0013735579421045258
1772733770817522700,1.230522705078125,0.0617220044195652,0.02211656387322582,-0.005314810947747901
1772733770827537000,1.240536865234375,0.04690729712545871,0.015289905324112623,-0.021307325282995587
1772733770837551900,1.2505517578125,0.05124854120016098,0.003951139645418152,0.006802067530550994
1772733770847566800,1.26056689453125,0.05110241072773933,0.007161160333640873,-0.002541058218362741
1772733770857581600,1.27058154296875,0.05828910736143589,0.01460375882401131,0.0016776326223276554
1772733770867596500,1.280596435546875,0.058144730454683304,0.014684258448006584,0.003945856115524657
1772733770877611500,1.290611572265625,0.0656301177740097,0.005951903274888173,-0.004581135511491447
1772733770887626800,1.300626708984375,0.07146890693008899,0.009839311768021435,-0.0018823568476131185
1772733770897641700,1.310641845703125,0.06892565218806267,0.0004789700228255242,-0.007549597962223925
1772733770907656700,1.32065673828125,0.05441022010147571,0.009487502655666322,-0.0005949154195375741
1772733770917671700,1.330671630859375,0.06727613141536712,0.012519472496397793,-0.002749376339954324
1772733770927686700,1.340686767578125,0.06607493893206119,0.0011588329126127064,0.005167958956118672
1772733770937700900,1.350700927734375,0.057390697216987606,0.015928230627113953,-0.00015625457421410827
1772733770947715800,1.3607158203125,0.054991819381713866,0.015449178405897691,0.0015875888518523424
1772733770957730800,1.370730712890625,0.04137187483012676,0.01514268800630234,-0.006933274428476579
1772733770967745800,1.380745849609375,0.05618599760234356,0.011817817899910732,-0.008442984871682711
1772733770977760800,1.3907607421875,0.05169803853332996,0.00329261180460453,-0.010131289585074409
1772733770987775700,1.400775634765625,0.04017886565327644,0.01574162201383151,0.0009459710466442629
1772733770997790700,1.410790771484375,0.034195699590444564,0.018123238187050444,-0.010309308466524817
1772733771007806000,1.420805908203125,0.05395195493996143,0.028826281511783597,-0.004871336929989047
1772733771017821000,1.430821044921875,0.06308335590064525,0.015464796100137755,0.006081110011972486
1772733771027836000,1.4408359375,0.0644318479001522,0.011984032179135828,-0.001966400135564618
1772733771037850600,1.4508505859375,0.06592763941586018,0.010489656302379444,-0.0068512678339844564
1772733771047865600,1.460865478515625,0.0849316150933504,0.006600211115786805,-0.01039779960073065
1772733771057879800,1.4708798828125,0.058145314976572986,0.01453597255111672,-0.01009109457200393
1772733771067894800,1.480894775390625,0.06502630666196346,0.01634017242887057,-0.003066045640269294
1772733771077909800,1.49090966796875,0.05469780487120151,0.01506974150110036,0.00459107238361612
1772733771087924700,1.5009248046875,0.053795887595415114,0.018500053876498713,0.00518861358508002
1772733771097939700,1.510939697265625,0.056636079457402226,0.02432721652686596,0.006394751671561971
1772733771107954700,1.52095458984375,0.04900339262187481,0.01595975827653892,0.002799508225149475
1772733771117969700,1.5309697265625,0.06262099908590317,0.005893697681091725,0.003986927911429666
1772733771127984600,1.540984619140625,0.06262216812968253,0.014889325166586786,0.0018296128802234306
1772733771138000000,1.550999755859375,0.04152501956522465,0.0007527637292165308,0.0031303932804847136
1772733771148014800,1.561014892578125,0.053798810204863545,0.013559820995340123,-0.003928621852933429
1772733771158029800,1.57102978515625,0.06277998903989791,0.000385894045047462,-0.006626263439073227
1772733771168043800,1.581043701171875,0.05365326425433158,0.011981237433850765,-0.00848384203845635
1772733771178058800,1.591058837890625,0.06502630666196346,0.005515384154301136,-0.00945299759786576
1772733771188073700,1.60107373046875,0.06816928086280823,0.00944756337092258,-0.00896557940710336
1772733771198088700,1.611088623046875,0.05559913762509822,0.020581481526745483,0.005069695346569642
1772733771208103700,1.621103759765625,0.06876490866839885,0.016662079593306407,-0.007148931039730086
1772733771218118700,1.63111865234375,0.06172960320413112,0.009779781866818667,-0.0007899996002204715
1772733771228133600,1.641133544921875,0.06412205129861831,0.014809985453216358,-0.0008239977679448202
1772733771238148600,1.651148681640625,0.05274900889098644,0.011992462080763652,0.001533589075715281
1772733771248163600,1.66116357421875,0.05708733035624027,0.004824607144854963,-0.011776800902932882
1772733771258178800,1.6711787109375,0.058135962626338,0.00308974617626518,-0.0055732152887620024
1772733771268193800,1.68119384765625,0.049907647985219954,0.023855205967789516,-0.002512635841476731
1772733771278207700,1.691207763671875,0.05739186626076698,0.009244003622839227,0.007730306557682342
1772733771288222700,1.70122265625,0.0541015925437212,0.012287810031836852,-0.0030538574455538764
1772733771298237700,1.71123779296875,0.0505114590972662,0.003221437131380662,-0.002527710113022476
1772733771308253000,1.7212529296875,0.06592471680641174,0.016236684654932467,0.01072029128705617
1772733771318268000,1.731267822265625,0.07325754391252993,0.014715375105477869,-0.0056799864317523315
1772733771328283000,1.741282958984375,0.06831950298845768,0.015730643962090833,-0.005801685715815984
1772733771338297900,1.7512978515625,0.053804070901870726,0.009814688783418386,-0.0014496142864227294
1772733771348312600,1.7613125,0.06472410884499549,-0.000828550645476207,0.0065684779703849925
1772733771358327600,1.77132763671875,0.059334817022085186,0.006457377712149172,-0.017756710996176116
1772733771368342500,1.781342529296875,0.045267128702998156,0.005106529358774424,-0.0018941340503748506
1772733771378357800,1.791357666015625,0.07070435229837894,0.021623848452838136,-0.011662714103166945
1772733771388372700,1.801372802734375,0.04795885200500488,0.009156033078441397,-0.00602405519564636
1772733771398386700,1.81138671875,0.04900573070943355,0.007040228234557434,0.000520840969751589
1772733771408401700,1.821401611328125,0.06112754565775394,0.028394228503759947,-0.005753407860989682
1772733771418416600,1.831416748046875,0.07369885793924331,0.01456697047757916,-0.008469685648940503
1772733771428432000,1.841431884765625,0.05724164413511753,-0.0038910617549438027,0.0028402329611824824
1772733771438446800,1.85144677734375,0.059786652442812914,0.00014558248315006494,-0.008545367533923126
1772733771448461800,1.8614619140625,0.06083528471291065,0.013203216976858674,0.0007676827371353283
1772733771458476800,1.871476806640625,0.054850365084409713,0.01713198039368726,-0.005482130338670685
1772733771468491800,1.88149169921875,0.06188333246111869,0.009045969433244318,0.0025240385849028824
1772733771478506800,1.8915068359375,0.057095513662695885,0.012032428764970973,-0.0023783510704757644
1772733771488521700,1.901521728515625,0.05948854627907276,0.015330374331818893,-0.005805252212658524
1772733771498536700,1.91153662109375,0.06442541815936564,0.01773407447268255,0.0019772868557600305
1772733771508550700,1.921550537109375,0.04751461536884308,0.013374975080881268,-0.007401832655142061
1772733771518565600,1.931565673828125,0.05035772984027862,0.01109533057794906,0.00006390468222089111
1772733771528580600,1.94158056640625,0.05619301186501979,0.0065500152985099695,-0.0018781053641811012
1772733771538595600,1.951595703125,0.05394844780862331,0.0001302022509276867,-0.004422766612004489
1772733771548610600,1.961610595703125,0.05858721352517605,0.006564674011524766,-0.008052898708707653
1772733771558625800,1.971625732421875,0.06053308689594268,-0.005623319774493575,-0.003668742507463321
1772733771568640800,1.981640869140625,0.05634498755633831,0.023488518946710973,0.014355985474865883
1772733771578655700,1.99165576171875,0.05888882682025432,0.021091613872814923,-0.00924889442708809
1772733771588670700,2.001670654296875,0.0554477464556694,0.008253065489884465,0.0021960167735116556
1772733771598685700,2.011685791015625,0.06682020434141159,0.004779516760958358,0.006525798739283346
1772733771608700700,2.02170068359375,0.05305237575173378,0.004864089771872386,0.012442521102936007
1772733771618715000,2.03171484375,0.07100771915912628,0.01692130591822788,0.003107656292291358
1772733771628729900,2.041729736328125,0.06846387989521026,0.011302150862198322,-0.005813805411872454
1772733771638744800,2.051744873046875,0.06427285794615745,0.015981796578411013,0.00647413705070503
1772733771648759800,2.061759765625,0.050505029356479644,0.009099708914477377,-0.010716364030609838
1772733771658774800,2.07177490234375,0.05783727194070816,-0.004048544738441706,-0.0035364578973036257
1772733771668789800,2.081789794921875,0.06247720670104026,0.011333623712696134,0.0048361742850625885
1772733771678805000,2.091804931640625,0.04317454033792019,0.017166266255779192,-0.00421937126070261
1772733771688820000,2.101820068359375,0.04766425297260284,0.015452457208372652,-0.00007762724689673633
1772733771698835000,2.1118349609375,0.051555415192246434,0.016093504191422834,-0.0011358310629380867
1772733771708850000,2.121849853515625,0.06053308689594268,0.009785088229598476,0.0130589131353423
1772733771718865000,2.131864990234375,0.06651742200255394,0.0005985047492664307,0.004459883751999586
1772733771728878800,2.14187890625,0.051852936834096905,0.017134318481246007,-0.00402309063677676
1772733771738893800,2.151893798828125,0.06322364115417003,0.0017593104232568294,-0.016801972121186552
1772733771748908800,2.16190869140625,0.05155015449523925,0.01135762564279139,0.009316662433673626
1772733771758923800,2.171923828125,0.05558920075297355,0.02034706084951758,-0.004165864674909972
1772733771768938800,2.181938720703125,0.05663549493551254,0.006335514031304046,-0.005425628078193403
1772733771778953700,2.19195361328125,0.06007599077820778,0.011507683371659368,0.00889523585094139
1772733771788968700,2.20196875,0.06381634635031223,0.016383956771669907,-0.0015978727838490158
1772733771798984000,2.21198388671875,0.05753215151429176,0.00045232861107215284,0.010842716656904667
1772733771808999000,2.2219990234375,0.05813070192933082,0.007938647512160241,-0.0010366678376682102
1772733771819014000,2.232013916015625,0.06740881788432598,0.01950523059736006,-0.0029471228351816534
1772733771829028900,2.24202880859375,0.04301730394959449,0.019190200698282568,-0.010912119498150423
1772733771839042800,2.252042724609375,0.04212006284892559,0.011619728911388665,0.0031062269536079835
1772733771849057800,2.262057861328125,0.06037585050761699,0.019096019608806816,0.015997153977747074
1772733771859073000,2.272072998046875,0.059328387281298633,0.008214633175637573,0.002919604640593752
1772733771869088000,2.282087890625,0.055287587457895276,0.011756452234648168,-0.01067236049210187
1772733771879103000,2.29210302734375,0.06067454119324684,0.012626449135364964,-0.004104330046288669
1772733771889118000,2.302117919921875,0.05364040477275848,0.0042736861306708306,0.0066935747879324475
1772733771899133000,2.3121328125,0.05408873306214809,0.006381271135481074,-0.010730995344161056
1772733771909147600,2.322147705078125,0.04585691128969192,0.005893980808882042,-0.0039829686889424915
1772733771919162600,2.33216259765625,0.06964870576560497,0.018753772909240796,0.004590798388980329
1772733771929177900,2.342177734375,0.04840075055360794,-0.0011229304821696131,-0.0034432586219394577
1772733771939192800,2.35219287109375,0.0446598104596138,0.0026414909521117803,-0.00208789849022869
1772733771949207800,2.362207763671875,0.058875967338681216,0.025479135641502216,0.0005572594234254211
1772733771959221800,2.3722216796875,0.07204407646954059,0.012232015590835362,0.005003922934248112
1772733771969236700,2.38223681640625,0.06037234337627887,0.02119722967175767,0.004350432028155773
1772733771979252000,2.392251953125,0.0599222615212202,0.021702831973182037,-0.010039738844102248
1772733771989267000,2.402266845703125,0.058873629251122474,0.0012635719287209211,-0.0006353844272438436
1772733771999282000,2.412281982421875,0.06231470961570739,0.017841361638903618,-0.006238825890910811
1772733772009297000,2.422296875,0.0635123949676752,0.008720555137470365,0.006561600705026649
1772733772019311900,2.432311767578125,0.05573065505027771,0.029284181347116828,0.002248938837414607
1772733772029326800,2.442326904296875,0.06096680213809013,0.020981239700363946,0.00612272066399455
1772733772039341800,2.452341796875,0.0668020841628313,0.01351325104041025,0.0013227182374335824
1772733772049357000,2.462357177734375,0.056177814295887946,0.0133493748487439,-0.0004309478963259607
1772733772059372000,2.4723720703125,0.06321078167259693,0.010366477447282522,-0.00046601007655262946
1772733772069385700,2.4823857421875,0.057823827937245366,-0.002151460679154843,0.0002085510170320049
1772733772079400700,2.492400634765625,0.061414545905590055,0.013124626182159408,0.008967433437472208
1772733772089415700,2.502415771484375,0.06650163991153239,0.019573208666499704,-0.014180368613055907
1772733772099431000,2.512430908203125,0.051237435284256935,0.01950350443115458,-0.009161723033711313
1772733772109446000,2.52244580078125,0.04779518587589263,0.004079917124239728,-0.005642357835103758
1772733772119460900,2.5324609375,0.05796878936588764,0.004539999783504754,-0.004067957258387468
1772733772129475800,2.542475830078125,0.061709144937992094,0.012008353769639506,-0.0069760175916599105
1772733772139490800,2.55249072265625,0.05213175377547741,0.01024420277448371,-0.0063480218864278865
1772733772149505800,2.562505859375,0.06096037239730358,0.015905890931142492,-0.005688525931234471
1772733772159520800,2.572520751953125,0.06455109036564827,0.01790870952038094,0.0006506459284573793
1772733772169536000,2.582535888671875,0.04330255063176155,0.016064186765393243,0.0007041251147864386
1772733772179550000,2.592550048828125,0.06290449220240116,0.006126154730096459,0.003998928876477293
1772733772189565000,2.60256494140625,0.07652034510076046,0.0028039241053629664,-0.010488039734028278
1772733772199580000,2.612579833984375,0.05033376444280147,0.00415385914328508,0.0013015978175913913
1772733772209595000,2.622594970703125,0.06739186674952506,0.0023689302215818314,0.002988222030550241
1772733772219609900,2.63260986328125,0.06155600020289421,0.015367354474496095,0.004803445625817403
1772733772229624800,2.642624755859375,0.0576654225051403,0.016704530495544895,-0.0013327692739898338
1772733772239639800,2.652639892578125,0.04344985014796257,0.012417546491883695,-0.007549565996183082
1772733772249654800,2.66265478515625,0.056768181404471395,0.013784651860315352,-0.0007668653198052197
1772733772259669800,2.672669677734375,0.07248071432113647,0.00860970604098402,-0.003937951370282099
1772733772269684700,2.682684814453125,0.050184711360931396,0.013942262707976624,0.0012045260847080499
1772733772279699700,2.69269970703125,0.060359483894705766,0.00267672666227445,-0.008982471176399848
1772733772289714700,2.702714599609375,0.05601999338567257,0.01123236442846246,-0.009862788541731424
1772733772299729000,2.71272900390625,0.049285716694593425,0.006643611866096034,-0.009555695353937336
1772733772309743900,2.722743896484375,0.058114335316419595,-0.007262647946737706,-0.01331023014844395
1772733772319758800,2.7327587890625,0.06215513513982296,0.015067576943477615,-0.0034091462897835297
1772733772329773800,2.74277392578125,0.05467325495183468,0.019850664767855776,0.004672891748440451
1772733772339788800,2.752788818359375,0.044348844814300535,0.01392644408433698,-0.010099611238599754
1772733772349804000,2.762803955078125,0.052877603706717485,0.02613312430451624,-0.005632781722582876
1772733772359819000,2.772819091796875,0.049586160945892334,0.009762657202081755,-0.006088544399756938
1772733772369834000,2.782833984375,0.056170800033211704,0.017902078850194812,-0.00025602515425998717
1772733772379849000,2.792848876953125,0.059313189712166786,0.00627437669490464,-0.002240184708801098
1772733772389864000,2.802864013671875,0.044350598379969595,0.0056438419727142895,-0.01276357888400089
1772733772399878700,2.812878662109375,0.07263269001245498,0.006177145131817087,0.012852586041437462
1772733772409892900,2.822892822265625,0.08026420780420303,0.013162647504452615,-0.004343682626960799
1772733772419907800,2.832907958984375,0.06709492962956429,0.017904453470371662,0.0023252463434822856
1772733772429922800,2.8429228515625,0.062006082057952876,0.009914642026554793,0.01018433951314073
1772733772439937800,2.852937744140625,0.056170215511322015,0.012156000345712526,-0.006559975003520958
1772733772449952800,2.862952880859375,0.05826514196395874,0.025142295769415793,0.0024233912220224738
1772733772459967700,2.8729677734375,0.045994273933768266,0.006807314527826383,-0.0022039306519087403
1772733772469983000,2.88298291015625,0.05631985311508178,0.01339780796719715,0.0041752078919904305
1772733772479998000,2.892998046875,0.058415948611497875,-0.004595136637380346,-0.0000010685790795832873
1772733772490013000,2.903012939453125,0.05033610253036022,0.015892346462979913,0.00158561609047465
1772733772500028000,2.91302783203125,0.059165305674076074,0.021051135731954128,-0.008629524986306205
1772733772510043000,2.92304296875,0.06036416006982326,0.008735277782566844,-0.007936505787423812
1772733772520057000,2.93305712890625,0.0474959106683731,0.013707686767121776,-0.010293453310267068
1772733772530072000,2.943072021484375,0.04988894328474998,0.013181553134322165,-0.01600520028688479
1772733772540086800,2.953086669921875,0.0627583617299795,0.005916210906999186,0.006875452427170239
1772733772550101800,2.963101806640625,0.05467793112695217,0.008165204543340951,0.007775620703864842
1772733772560116700,2.97311669921875,0.058119011491537094,0.009142570808669552,-0.008391263817599973
1772733772570131700,2.983131591796875,0.059464580881595605,0.012303692587558179,-0.009873314502323045
1772733772580146700,2.993146728515625,0.06455050584375858,0.011394404856069013,-0.005127741110161878
1772733772590162000,3.003161865234375,0.06080839670598506,0.006240273495903238,-0.0030984089733334256
1772733772600177000,3.013177001953125,0.04838847559392452,0.015472486216248943,0.000045875835185870526
1772733772610191400,3.02319140625,0.05706687209010124,0.010795589579548686,0.00022860285779461263
1772733772620206300,3.033206298828125,0.05167991835474968,0.012246902632713318,-0.0010728351295925676
1772733772630220300,3.04322021484375,0.0510819524616003,0.01152933808104135,-0.0016484932928113266
1772733772640235500,3.053235595703125,0.056470075240731235,0.00259581604632549,0.002759888600814156
1772733772650250500,3.06325048828125,0.0614081161648035,0.01084909159876406,0.012625435355212539
1772733772660265500,3.073265380859375,0.058415948611497875,0.006711087611736729,0.006199005337175913
1772733772670280400,3.083280517578125,0.05243044446110725,0.009029904214432463,-0.007164000744698569
1772733772680295400,3.09329541015625,0.06380231782495975,0.0007535674468148499,0.0025293495142599564
1772733772690310100,3.10331005859375,0.06724456723332405,0.007624001205572858,-0.00784193653888069
1772733772700325400,3.113325439453125,0.047940731826424596,0.00260172519730404,0.0020569964618887752
1772733772710340400,3.12334033203125,0.0419540586322546,0.004760364535916596,-0.012200999398063867
1772733772720355300,3.133355224609375,0.06739186674952506,0.01037637778678909,-0.01314695674497634
1772733772730370300,3.143370361328125,0.06185469088852405,0.00020129472576081752,0.0014802514532813802
1772733772740385300,3.15338525390625,0.06454875227808952,0.009523770412290468,-0.005522845941549167
1772733772750399200,3.163399169921875,0.056469490718841546,0.012874222484510391,-0.000040975897782482206
1772733772760414500,3.17341455078125,0.05497428372502327,0.017813277188735082,0.003334126558504067
1772733772770429400,3.183429443359375,0.06649637921452523,0.020793936967337504,-0.007699482161155902
1772733772780444400,3.1934443359375,0.07412789700627327,0.00164829692998901,-0.0075130653441185125
1772733772790459400,3.20345947265625,0.051233343631029125,0.0229725870475173,0.00837982910813298
1772733772800474400,3.213474365234375,0.05931435875594616,0.019113235605088992,0.0025995149739086627
1772733772810489300,3.2234892578125,0.0702355657428503,0.016906446275813503,-0.005620506762899458
1772733772820504300,3.23350439453125,0.057367316341400146,0.01563690126403235,-0.011023041659872978
1772733772830519600,3.24351953125,0.05572013365626335,0.004528957799682393,0.0014421798986382782
1772733772840534500,3.253534423828125,0.0675426733970642,0.016087019651709125,0.0010376907509751618
1772733772850549500,3.263549560546875,0.05302782583236694,0.009500919259665534,0.0006045234980992972
1772733772860563200,3.273563232421875,0.0552735589325428,0.01688038938594982,-0.005002324632206
1772733772870578200,3.283578125,0.06574702215194701,0.008742246379470452,-0.007416719697020016
1772733772880593400,3.293593505859375,0.06859072114527225,0.002357111919624731,0.0004888429628685117
1772733772890608400,3.3036083984375,0.0543757333099842,0.014314493553852661,-0.01062073533614166
1772733772900623400,3.313623291015625,0.051233928152918815,0.008347155247814953,0.007358052878919988
1772733772910638300,3.323638427734375,0.06440203728377819,0.012076149175688623,0.0030413678567390886
1772733772920653300,3.3336533203125,0.07083528520166874,0.001451596180954948,-0.004717100782925263
1772733772930668300,3.343668212890625,0.06215571966171264,0.012994506129622458,-0.004249688767152838
1772733772940683300,3.353683349609375,0.05197977808415889,0.00009168773829005658,-0.002799042434268631
1772733772950698500,3.363698486328125,0.05437397974431515,0.01478481447934173,-0.006235734318103641
1772733772960713500,3.37371337890625,0.056170215511322015,0.008959980783378705,-0.0038238600039388984
1772733772970727400,3.3837275390625,0.06320142932236195,0.010803371027205138,0.004965956410882063
1772733772980742400,3.393742431640625,0.057664837983250616,0.009585254808561875,-0.0020847566850716245
1772733772990757400,3.40375732421875,0.062303603699803346,0.002648057690216228,-0.006076374471350573
1772733773000772400,3.4137724609375,0.059759179913997644,0.0017383224341552704,0.0029984968293923883
1772733773010787300,3.423787353515625,0.052426352807879446,0.010229388797841965,-0.006162943076528609
1772733773020802300,3.43380224609375,0.06499649604558945,0.004573070936044678,-0.012088296271208674
1772733773030817300,3.4438173828125,0.05257540588974952,0.0119689807404764,-0.0005916594499489293
1772733773040832300,3.453832275390625,0.04943243168890476,-0.004106211476121098,-0.005133778125303797
1772733773050847200,3.46384716796875,0.05915887593328952,0.011432270914735271,0.0028385022283997385
1772733773060862200,3.4738623046875,0.050180619707703586,0.010852352134929969,-0.0034191379608353597
1772733773070877400,3.48387744140625,0.06649228756129741,0.01057908815150149,-0.0030560448360629376
1772733773080891400,3.493891357421875,0.06320026027858257,0.018377158149192108,-0.006053756214166059
1772733773090906400,3.50390625,0.058712301209568975,0.008234534319350496,-0.01837151385969482
1772733773100921300,3.51392138671875,0.052576574933528894,0.007169069645460695,-0.01106180276768282
1772733773110936300,3.523936279296875,0.05257599041163921,0.01204743453785777,-0.009737467961898073
1772733773120951300,3.533951416015625,0.059309682580828665,0.009497786587662994,-0.000762134345760569
1772733773130966500,3.543966552734375,0.060356561285257335,0.018305828212341294,-0.007399732029601
1772733773140981500,3.5539814453125,0.06933481751084328,0.018874202684825286,-0.011080370470834894
1772733773150996500,3.56399658203125,0.05272504349350929,0.018705969978449866,-0.0014941292815841734
1772733773161011500,3.574011474609375,0.0566156211912632,0.010937573599815368,-0.00856945166240912
1772733773171026400,3.5840263671875,0.0522755461603403,0.011166998441517353,-0.007309733924898318
1772733773181041200,3.594041259765625,0.0636480040460825,0.010105652820318937,-0.006257571690576151
1772733773191055400,3.604055419921875,0.05197451738715172,-0.0033317291054408994,-0.006904500425141304
1772733773201070300,3.6140703125,0.056015317210555075,0.0016861173228826373,-0.012948954521422274
1772733773211085300,3.624085205078125,0.05885726263821125,0.0000957154594361782,-0.006954449647245928
1772733773221100300,3.634100341796875,0.07008066744208336,0.016032878311676903,-0.0023208076303824782
1772733773231115300,3.644115234375,0.06484393583238124,0.016241744422540068,-0.006356716649536975
1772733773241130200,3.654130126953125,0.06589198358058929,0.016540124580916016,-0.007474016541941091
1772733773251145500,3.6641455078125,0.06050561436712742,0.00769486535154283,-0.010365509332902728
1772733773261160400,3.674160400390625,0.06289981602728366,0.011846879597613586,-0.012415683328360318
1772733773271175400,3.684175537109375,0.057065118524432176,0.010574494174774735,0.001246844556205906
1772733773281190400,3.6941904296875,0.05811258175075054,0.01114301477773115,-0.0011245744499843568
1772733773291205400,3.704205322265625,0.05227729972600936,0.008626173118595034,-0.0037779476361349223
1772733773301220400,3.714220458984375,0.06574526858627795,-0.002618420603778213,0.0007021066876361146
1772733773311234600,3.724234619140625,0.05886252333521843,0.0014557243668008595,0.010729515773127786
1772733773321249300,3.734249267578125,0.06350128905177116,0.013141047593997791,-0.000607984963664785
1772733773331264300,3.74426416015625,0.06350128905177116,0.011885092716151848,-0.009525569643732159
1772733773341279200,3.754279296875,0.04943535429835319,0.011541393845016136,0.008027092980593443
1772733773351294200,3.764294189453125,0.0521276621222496,0.019530502035934476,-0.0013243211060529575
1772733773361309200,3.77430908203125,0.06334989788234234,0.006242401520907878,-0.008098916107788682
1772733773371324400,3.784324462890625,0.056017070776224136,0.006340920858783647,0.00042112518863286823
1772733773381339400,3.79433935546875,0.05467091686427593,0.007520367301162332,-0.00650510301112663
1772733773391354400,3.804354248046875,0.04644026413559913,0.01767838049638085,-0.005372934343153611
1772733773401369300,3.814369384765625,0.0661924278318882,0.02085271794986911,-0.016163637685030697
1772733773411384300,3.82438427734375,0.06858779853582382,0.023277323881443587,-0.0010044004027266054
1772733773421398500,3.8343984375,0.03596680091619491,0.00829359842967242,-0.0022530944227240977
1772733773431413500,3.84441357421875,0.06140577807724475,0.017849910271540283,0.0025770474137738345
1772733773441428500,3.854428466796875,0.06739128222763538,0.015747613363200796,-0.0008573748811613768
1772733773451443500,3.864443359375,0.048237668946385384,0.015757184909144416,0.006630145029746927
1772733773461458400,3.87445849609375,0.06649404112696647,0.01874868574216962,-0.00028958036398980764
1772733773471473400,3.884473388671875,0.06005962416529655,0.016687268833490088,-0.0021484010723885148
1772733773481488400,3.89448828125,0.0563192685931921,0.011757392949564382,-0.008085554302716628
1772733773491503400,3.90450341796875,0.052876434662938114,0.018580553500493986,-0.006662722991942428
1772733773501518300,3.914518310546875,0.05916062949895858,0.016884389707632362,0.007521732707764022
1772733773511533300,3.924533203125,0.060058455121517175,0.01131432535718195,-0.0013910479330224916
1772733773521548300,3.93454833984375,0.05886135429143905,0.008608637461904435,-0.006128689180477522
1772733773531562200,3.944562255859375,0.03880991538763046,0.010211323418188839,0.00005481719346717
1772733773541577200,3.9545771484375,0.05003156662583351,0.01858623432260938,-0.007732850141217932
1772733773551592400,3.964592529296875,0.062301850134134286,0.01285719828447327,-0.003501030390895903
1772733773561607400,3.974607421875,0.050180619707703586,0.007447210733406246,0.005346681090467609
1772733773571622400,3.984622314453125,0.05945756661891937,0.01197223214348778,-0.0007505215397803112
1772733773581637400,3.994637451171875,0.07068097142279148,0.016387801829725504,-0.007620603672089055
1772733773591652400,4.00465234375,0.053473231512308116,0.021158459430793298,0.0006449559731874615
1772733773601667300,4.014667236328125,0.0522755461603403,0.014416766618238762,-0.0011548965230118483
1772733773611683000,4.02468310546875,0.07038111169338226,0.005541377112083136,0.0034375321340514345
1772733773621698000,4.034697998046875,0.07427110486924648,0.010419294479908421,0.0025531322486465795
1772733773631713000,4.044713134765625,0.041350832042098044,0.013528813935723154,0.002453886824985966
1772733773641727000,4.05472705078125,0.05392097527980804,0.016567277449322862,0.005879495625803247
1772733773651742000,4.064741943359375,0.053472062468528744,0.020883551479550077,-0.005741411462519317
1772733773661757000,4.0747568359375,0.06559270837306976,0.005925280129443854,-0.00005830149191897362
1772733773671772000,4.08477197265625,0.05631400789618492,0.01649027582351118,-0.001942000913247466
1772733773681787100,4.094787109375,0.051524435532093044,0.018965579895861447,0.0011236063356045633
1772733773691802000,4.104802001953125,0.0482324082493782,0.011304598547611384,-0.000030413404572755097
1772733773701817000,4.114817138671875,0.047184945023059845,0.011281162873096764,-0.01152846129820682
1772733773711832000,4.12483203125,0.052722705405950546,0.013755928089329973,0.008986782025336287
1772733773721847000,4.134846923828125,0.05751052420437336,0.0010264569709077477,0.01075443558525294
1772733773731862000,4.144862060546875,0.0611029957383871,0.021340748061984775,0.012687038482492788
1772733773741877000,4.154876953125,0.054070612883567806,0.021592476067040116,-0.008466320081497542
1772733773751891200,4.16489111328125,0.059009238329529756,0.0023254290065728126,-0.01052616608759854
1772733773761906000,4.174906005859375,0.05691431187689304,-0.0012414879610761998,-0.0012236235108226538
1772733773771921000,4.1849208984375,0.05422141953110694,0.004028716659964993,0.006993850075872615
1772733773781935900,4.194935791015625,0.07531973713934421,0.00888176444801502,-0.003577438361663371
1772733773791950800,4.204950927734375,0.07651625344753266,0.005998701558681205,-0.001489822999224998
1772733773801965800,4.2149658203125,0.06185176827907562,0.005830660648550838,0.006754593393323011
1772733773811981000,4.22498095703125,0.06738719057440758,0.0027756387257948517,0.006389477274823002
1772733773821996000,4.23499609375,0.059006900241971014,0.00673562839794904,-0.010342096491274422
1772733773832011000,4.245010986328125,0.06394494116604328,0.01493739295885898,0.0012946794530376792
1772733773842026000,4.25502587890625,0.061250295254588125,0.011277573543367907,-0.0011274148610420525
1772733773852041000,4.265041015625,0.047183775979280466,0.013598901763558387,0.0029058820759179068
1772733773862055200,4.27505517578125,0.04823065468370914,0.006670326343085616,0.002741553793102503
1772733773872070100,4.285070068359375,0.05586217247545719,-0.0036064452604390677,-0.001621737716626376
1772733773882085000,4.295085205078125,0.05975391921699047,0.025349773640790954,-0.006864538307511247
1772733773892100000,4.30510009765625,0.0603536386758089,0.006587771759321913,0.005448849123576655
1772733773902115000,4.315114990234375,0.06020400107204914,0.015016623074375093,0.0008034892694558948
1772733773912130000,4.325130126953125,0.05870762503445148,0.005713811069540679,-0.0011208755224011839
1772733773922145000,4.33514501953125,0.05781096845567226,0.003984192531649023,-0.012726580475014633
1772733773932160300,4.34516015625,0.05631576146185398,0.003778011568216607,0.00569030689636711
1772733773942175000,4.355175048828125,0.05272387444972992,0.01495592412939295,-0.010026719532324932
1772733773952190000,4.36518994140625,0.06304770006537437,0.0016783815409988163,-0.004644569836254231
1772733773962205000,4.375204833984375,0.052720951840281485,0.009107490362133831,-0.0004098822754109278
1772733773972219000,4.385218994140625,0.06244681156277656,0.01271030062707141,-0.004547776664583943
1772733773982234000,4.395234130859375,0.0584060117393732,0.006484494047937914,0.006418525272794067
1772733773992249000,4.4052490234375,0.0645405689716339,-0.0013521635276265442,-0.004825534160039387
1772733774002264000,4.41526416015625,0.054665071645379065,-0.0012982139838393777,-0.007522390294889919
1772733774012279000,4.425279052734375,0.05780804584622383,0.013323582820361479,-0.002180782671761699
1772733774022294000,4.4352939453125,0.04479074336290359,0.009724982939660549,-0.0029587173748528584
1772733774032309000,4.44530908203125,0.053470308902859684,0.007439146157959476,0.002089533324888907
1772733774042324000,4.455323974609375,0.06663900255560874,0.01095264330478385,0.005072531191050075
1772733774052339200,4.465339111328125,0.06738660605251788,0.012084798273025079,-0.0061569608603138475
1772733774062354200,4.475354248046875,0.05870587146878242,0.006934073579497635,-0.00809061863690149
1772733774072369200,4.485369140625,0.05975333469510078,0.0018428422545548528,-0.00734451297733467
1772733774082384100,4.495384033203125,0.06469196014106274,0.012000042599020525,-0.0039802424423163755
1772733774092397800,4.505397705078125,0.06902969708442687,0.002842475150618702,-0.0061954068742925295
1772733774102413000,4.5154130859375,0.05316635752022266,0.010073257521213963,-0.0022466875148238613
1772733774112428000,4.525427978515625,0.06513678129911422,0.010206391514744608,0.0005181832217844203
1772733774122443000,4.535443115234375,0.06304185484647751,0.021170515194768084,-0.010299604489840566
1772733774132458000,4.5454580078125,0.06139584120512008,0.015032195102842524,-0.0025476751888170836
1772733774142473000,4.555472900390625,0.05735562590360641,0.01030650915466249,-0.009006555304885842
1772733774152488000,4.565488037109375,0.05660802240669727,0.005581362062599509,-0.006642255592648871
1772733774162503000,4.5755029296875,0.06573650075793266,0.007436451877374201,-0.0036256659841397776
1772733774172518000,4.585517822265625,0.06663432638049126,0.01073089944603853,-0.015481075948080979
1772733774182533000,4.595533203125,0.05870528694689273,0.0141422605257947,0.0006343478142051026
1772733774192548000,4.605548095703125,0.06708499275743961,0.0006643639265559614,-0.005921804964146576
1772733774202562000,4.61556201171875,0.06798398742377758,0.00847625238704495,-0.01604318050998263
1772733774212577000,4.625576904296875,0.07426759773790836,0.012597716231225058,-0.002470372168906033
1772733774222592000,4.635592041015625,0.06169745450019836,0.005341772019909694,-0.007072376938490197
1772733774232607200,4.645607177734375,0.0594517214000225,0.01404406998148188,-0.0003362964493921026
1772733774242622200,4.655622314453125,0.05196867216825485,0.02189311211458407,-0.004128016882552765
1772733774252637000,4.665636962890625,0.06603402239978313,0.0067167501675430685,-0.0106085151753854
1772733774262652000,4.67565185546875,0.05885141741931438,0.011994562706304713,-0.0037627637667348606
1772733774272667000,4.6856669921875,0.04508534239530563,-0.003959350351337343,-0.0019513623966369777
1772733774282681900,4.695681884765625,0.04942541742622852,0.013562752737943082,0.006082562183542177
1772733774292696800,4.70569677734375,0.06828034002184867,0.010096364402165636,-0.001500202829344198
1772733774302712000,4.715712158203125,0.05541092157661914,0.024024580318480728,0.014334988352609797
1772733774312726000,4.72572607421875,0.053315995123982426,0.006084169618738815,0.0027902609061915425
1772733774322741000,4.735740966796875,0.053016719916462896,0.0002317720624152571,0.00817104062908329
1772733774332756000,4.745755859375,0.05256839162707329,0.00019871917618438602,-0.004299126532603986
1772733774342771000,4.75577099609375,0.05466390260159969,0.015122512867953627,-0.0016153810410760342
1772733774352786200,4.7657861328125,0.0711246235370636,0.006309256212040782,0.007365336569654755
1772733774362801200,4.77580126953125,0.06573825432360172,0.009070455420529469,0.000022746121347881852
1772733774372816100,4.785816162109375,0.05945230592191219,-0.0005917370817624032,-0.0010562721538590267
1772733774382831000,4.7958310546875,0.05316811108589172,0.004680641230056062,0.000052967729675583535
1772733774392846000,4.80584619140625,0.050475218740105625,0.008753909417800606,-0.010434578814008272
1772733774402861000,4.815861083984375,0.059303837361931795,0.013497067090589553,-0.0020013846839778125
1772733774412876000,4.8258759765625,0.0640922406822443,0.016236209730897098,-0.003353356415359303
1772733774422890000,4.835889892578125,0.057358548513054844,0.005321578615251928,0.015311413903022184
1772733774432905000,4.845905029296875,0.05556348178982734,0.0026583142227493226,-0.000046880482183769345
1772733774442920000,4.855919921875,0.047781741872429846,0.006288861877983436,0.000785766383097507
1772733774452935000,4.865934814453125,0.05631225433051586,0.002047086989227682,-0.0017664251506328583
1772733774462950000,4.875949951171875,0.046285950356721874,0.013403689718712121,-0.001922538160951808
1772733774472965000,4.885965087890625,0.05287058944404125,0.005773578432761132,0.0009225810379022732
1772733774482980000,4.89597998046875,0.05107552272081375,0.010162406242545694,0.0007023213167674839
1772733774492995000,4.9059951171875,0.054368719047307966,0.01465832942230627,-0.006217490841937251
1772733774503010000,4.916010009765625,0.05526654466986656,0.01946188464597799,-0.006346131323440932
1772733774513025000,4.92602490234375,0.06020458559393883,0.01720112750660628,-0.007418272333289496
1772733774523040000,4.9360400390625,0.05017828162014484,0.015885944121656937,-0.0029969761591637505
1772733774533054200,4.94605419921875,0.057661330851912496,0.00265421343636699,0.0013627853863406925
1772733774543069200,4.956069091796875,0.06005611703395843,0.00906532258768566,-0.00407646935840603
1772733774553084200,4.966084228515625,0.06993219888210296,0.006863035903591662,0.007720346852671355
1772733774563099000,4.976098876953125,0.057063364958763116,0.011676491466769948,-0.009560622690804302
1772733774573113900,4.98611376953125,0.057063364958763116,0.0012462828672025353,-0.000022568024834617972
1772733774583128800,4.99612890625,0.06080430505275726,-0.0017522413616534321,0.0009043923606630414
1772733774593144000,5.00614404296875,0.04419453103542328,-0.00538305387836881,0.01138827650938183
1772733774603159000,5.016158935546875,0.05137655149400234,0.0026977877166122198,-0.0004551827218616381
1772733774613173800,5.026173828125,0.06349719739854336,0.022007468342408538,0.003665513937338255
1772733774623188500,5.0361884765625,0.05362170007228851,0.00807280441899784,0.0007640614413656294
1772733774633202400,5.046202392578125,0.054818800902366634,0.0005024330968037247,-0.009427415632037445
1772733774643217700,5.0562177734375,0.056764089751243585,0.011862771286489441,-0.006730924823367968
1772733774653232600,5.066232666015625,0.059009822851419445,0.016544956019660457,0.003703192766336724
1772733774663247600,5.07624755859375,0.04584171372056007,0.01465158915426582,-0.0020268844514153895
1772733774673262600,5.0862626953125,0.07217793198227881,0.010122649620892479,-0.009163956089993007
1772733774683277600,5.096277587890625,0.05721300256252288,0.02195224015698768,-0.0045027228133054445
1772733774693292500,5.10629248046875,0.0458405446767807,0.021811790506681427,-0.008444455309561453
1772733774703307500,5.1163076171875,0.0443459222048521,0.005627721954975277,-0.004959599735331721
1772733774713322800,5.12632275390625,0.05332476295232773,0.009522802297910676,-0.003972264631837606
1772733774723337700,5.136337646484375,0.06080781218409538,0.006231186007149517,-0.008781541776820086
1772733774733352700,5.146352783203125,0.05796528223454952,0.005114219474885612,0.0027086561704985795
1772733774743366700,5.15636669921875,0.05542261201441288,0.014300483294809237,0.0032249396961415186
1772733774753381400,5.16638134765625,0.06784253312647343,0.007994204491144045,-0.005873271380993537
1772733774763396600,5.176396728515625,0.05796645127832889,0.01601764420992695,0.000010370696964673697
1772733774773411600,5.18641162109375,0.054226095706224435,0.005087486731586977,-0.008752644475898705
1772733774783426600,5.196426513671875,0.05302841035425663,0.0120677192740608,-0.009326549073448404
1772733774793441500,5.206441650390625,0.05557224961817264,0.008329016802925616,-0.01024072304260917
1772733774803456500,5.21645654296875,0.061708560416102405,0.013448633972136304,0.005140627991198562
1772733774813471500,5.226471435546875,0.04809036943018436,0.013931312055699526,-0.0014332248406251891
1772733774823486500,5.236486572265625,0.05243044446110725,0.004222796193649992,-0.0003322504619369283
1772733774833501700,5.246501708984375,0.058715808340907095,0.008325308742187917,-0.00018153514594305306
1772733774843516700,5.2565166015625,0.06500000317692756,0.008871964573208243,-0.004353779329289682
1772733774853530600,5.266530517578125,0.049587914511561394,0.012751253691967576,-0.007135628600162453
1772733774863545600,5.276545654296875,0.056771688535809516,0.014742856767447665,-0.004763346510869451
1772733774873560600,5.286560546875,0.060663435277342796,0.006111340753454714,0.0013087445110082625
1772733774883575600,5.296575439453125,0.0593166968435049,0.008666304199583828,-0.012481994596798903
1772733774893590800,5.3065908203125,0.06575111380517483,0.004477282411372289,0.0027875940250698477
1772733774903605800,5.316605712890625,0.05333119269311428,0.009044371131202206,-0.0031247626907192167
1772733774913620700,5.326620849609375,0.05707330183088779,0.021394195282272994,0.002210702885990031
1772733774923635700,5.3366357421875,0.05692424874901771,0.005844972301693633,-0.0003013027678243816
1772733774933650400,5.346650390625,0.06276069981753826,0.003105126408487558,0.005772098861727863
1772733774943665400,5.35666552734375,0.06964402959048747,0.008797730293218045,0.008019074070919304
1772733774953680600,5.3666806640625,0.05542845723330974,0.015560465893801301,0.005134079519403167
1772733774963694600,5.376694580078125,0.0573737460821867,0.021535914441058412,-0.009550845648883841
1772733774973709600,5.38670947265625,0.05318330865502357,0.011451642335485667,-0.008170931031228974
1772733774983724500,5.396724609375,0.056923664227128024,0.020179093004623425,0.003579771882644854
1772733774993739500,5.406739501953125,0.05213467638492584,0.026533558331569656,-0.0018427235235460103
1772733775003754500,5.41675439453125,0.05467734660506248,-0.003942901540035381,-0.0007902142293518408
1772733775013769700,5.426769775390625,0.06021393794417381,0.00442922375225462,0.0005704476985614747
1772733775023784700,5.43678466796875,0.059765609654784196,0.00883313040016219,0.0017338060892419889
1772733775033799700,5.446799560546875,0.057221185868978494,0.0014741550726350397,0.011475036910804919
1772733775043814700,5.456814697265625,0.05842004026472568,0.017451759533118456,-0.002084176729759201
1772733775053829600,5.46682958984375,0.06769874074161052,0.01408566236719489,0.002785027608647942
1772733775063844600,5.4768447265625,0.05288461796939373,0.009524190537398681,-0.008519347176677548
1772733775073858600,5.486858642578125,0.05931903493106365,0.001265763885807246,-0.010873655217862687
1772733775083873500,5.49687353515625,0.05258475823998451,0.007346188911190256,-0.012794380447641014
1772733775093888500,5.506888427734375,0.058121934100985526,0.003872667581727728,0.0032874470057198775
1772733775103903500,5.516903564453125,0.06575345189273357,-0.002963114988757297,0.00013628949841950087
1772733775113918500,5.52691845703125,0.06156359898746013,0.017054238982358947,0.012598300753114744
1772733775123933400,5.536933349609375,0.05288461796939373,0.0205988162540365,0.007730653617554344
1772733775133948700,5.54694873046875,0.047644963750243186,0.014967587167723104,-0.0005451579936780035
1772733775143963600,5.556963623046875,0.060064300340414045,0.005002794989664107,0.0016946933549828827
1772733775153978600,5.566978515625,0.045998950108885765,-0.0010972480516415089,-0.011421859118575229
1772733775163993600,5.57699365234375,0.048991117662191386,0.0022186806964688004,0.004239770161337219
1772733775174008600,5.587008544921875,0.04465338071882725,0.00565120329526253,0.0004943456884706392
1772733775184022800,5.597022705078125,0.057522214642167085,0.01763000217685476,-0.001845125543186441
1772733775194037800,5.607037841796875,0.04824468320906162,0.010360714426776394,-0.0007279032825957983
1772733775204052700,5.617052734375,0.06246084008812904,-0.001181985459337011,-0.0030399933169828726
1772733775214067700,5.627067626953125,0.06530395455956459,-0.001191611804207787,-0.0036116968242917206
1772733775224082700,5.637082763671875,0.05991641630232334,0.0029511688226368277,0.007463947239075787
1772733775234097700,5.64709765625,0.05886895307600498,0.012689276105351746,0.010447072969400324
1772733775244112400,5.6571123046875,0.06066401979923248,0.02202098541110754,0.009770402117120101
1772733775254127600,5.667127685546875,0.07188508651554584,0.018721925599407403,0.011665691511542536
1772733775264142600,5.677142578125,0.05332885460555553,0.009470094863139092,-0.006339194692578166
1772733775274157600,5.687157470703125,0.051533203360438345,0.008293899823771789,-0.006822119371313601
1772733775284172500,5.697172607421875,0.05662029736638069,-0.00546193693401292,-0.00043751920100767164
1772733775294186500,5.7071865234375,0.04554711468815803,0.015478541497699916,0.006123807509383186
1772733775304201700,5.71720166015625,0.06904021847844123,0.019530511169089004,-0.0015338128380011765
1772733775314216700,5.727216796875,0.06125906308293342,0.0036894565019290892,0.0018825395107036455
1772733775324231700,5.737231689453125,0.06814180833399296,0.020726296824915332,-0.005932828681659884
1772733775334246700,5.74724658203125,0.08011340115666389,0.009460386319877579,0.00793604456312023
1772733775344261600,5.75726171875,0.056471244284510606,-0.0028755919689312575,0.007271027616015635
1772733775354276600,5.767276611328125,0.06096095691919327,0.005812878396688028,-0.004334535772702657
1772733775364291600,5.77729150390625,0.05557341866195201,0.005140751288784668,-0.008608322368073277
1772733775374306600,5.787306640625,0.06365268022119999,0.012330991586437448,-0.005493455450283363
1772733775384321800,5.79732177734375,0.06185527541041374,0.0034677674421109256,-0.004584971436392516
1772733775394336800,5.807336669921875,0.05931026710271835,-0.007624430463835596,0.006404606345295906
1772733775404350500,5.8173505859375,0.05242576828598976,0.012885574995586648,0.007031980996020138
1772733775414365400,5.827365478515625,0.05885901620388031,0.007645884243817999,0.0001894946901127696
1772733775424380400,5.83738037109375,0.04958090024888515,0.013427910844516009,0.009341367616667411
1772733775434395600,5.847395751953125,0.05945698209702968,0.011781604942213744,-0.0025045347334118557
1772733775444410600,5.85741064453125,0.04554068494737148,0.005047501781070604,0.001386892347713001
1772733775454425600,5.867425537109375,0.06649053399562835,0.009302410146035254,-0.007605821661488153
1772733775464440600,5.877440673828125,0.049881344500184055,0.009252351326076312,-0.00017919705838430672
1772733775474455600,5.88745556640625,0.05721417160630226,0.0041202400014735754,0.0000991677918471396
1772733775484470500,5.897470458984375,0.08280278637111187,0.012301254035299643,0.010377035373914986
1772733775494485500,5.907485595703125,0.06873626709580422,0.0060800688323564825,0.0044062447354663165
1772733775504499700,5.917499755859375,0.05960661970078945,0.0031970972745679316,0.007105055365385487
1772733775514514700,5.9275146484375,0.05616320124864578,0.0005084061798639595,-0.0005518936951411888
1772733775524529700,5.93752978515625,0.05676058261990547,0.014120624082721769,-0.014898042762582189
1772733775534544600,5.947544677734375,0.054664487123489376,0.00622354155681096,0.0051602916728938
1772733775544559600,5.9575595703125,0.05481412472724914,0.002535546359606087,0.0047833435527049
1772733775554574600,5.96757470703125,0.06259528012275696,0.014163157183350995,-0.0024681025800062342
1772733775564589600,5.977589599609375,0.05780746132433414,0.025499822236504405,0.006623030302370898
1772733775574604500,5.9876044921875,0.058256958657503126,0.026960030982177703,0.0011622304460965095
1772733775584619500,5.99761962890625,0.06394494116604328,0.018992203041305764,-0.010884436906781047
1772733775594634500,6.007634521484375,0.04748480475246906,0.018868960254127157,-0.008520438588643446
1772733775604649500,6.0176494140625,0.052724458971619606,0.021461342234350738,0.0039798314503626895
1772733775614664000,6.027663818359375,0.06305296076238155,-0.00107315479000099,-0.014711872540717012
1772733775624679000,6.037678955078125,0.0582668955296278,0.00036794739640317854,-0.01020601705540903
1772733775634694000,6.04769384765625,0.053928574064373964,-0.010675342467054724,-0.005614277951512485
1772733775644708900,6.057708984375,0.06185995158553123,-0.006804720711940899,0.0064307728330139065
1772733775654723800,6.067723876953125,0.06320669001936913,0.006196123826922848,0.022714570865570567
1772733775664738800,6.07773876953125,0.0578179827183485,0.0005263071627356112,0.006399295415938831
1772733775674753800,6.08775390625,0.07248071432113647,0.004470213349768892,-0.006913176921941339
1772733775684769000,6.09776904296875,0.06215279705226421,0.016804401540290562,-0.009352158438740297
1772733775694784000,6.107783935546875,0.06229951204657554,0.013616464819712563,-0.022798582187481223
1772733775704799000,6.117799072265625,0.06110065765082836,0.008192293479666114,-0.0003491102651925757
1772733775714814000,6.12781396484375,0.05017652805447578,0.009219800763344391,0.009369347035558894
1772733775724827600,6.13782763671875,0.04508884952664375,0.015363463750667869,0.005001772076357156
1772733775734843000,6.1478427734375,0.06334580622911452,0.004505211597913876,0.003714485911908559
1772733775744857900,6.15785791015625,0.06619125878810882,0.008581667256588116,-0.0005432171983411535
1772733775754872800,6.167872802734375,0.04524433234930038,0.002029660930391401,-0.0031298041920177636
1772733775764887800,6.1778876953125,0.06095803430974483,0.0072745849797036495,-0.006227327249362133
1772733775774902800,6.18790283203125,0.06305412980616092,-0.0001824986937455833,-0.005268405389599501
1772733775784917800,6.197917724609375,0.05871463929712772,0.006603526450879872,-0.005730739371455274
1772733775794932700,6.2079326171875,0.06470014344751834,0.005040788912493735,0.0022338097669417035
1772733775804948000,6.217947998046875,0.06529694029688835,0.01745259978333488,0.016881302701402454
1772733775814963000,6.227962890625,0.07038169621527195,0.004106385006057098,0.010166132569592446
1772733775824978000,6.23797802734375,0.0672375529706478,0.00794170711892657,0.0033504977379925547
1772733775834991900,6.247991943359375,0.06454349158108234,-0.0030661278386600313,0.0024538685586769134
1772733775845006800,6.2580068359375,0.057958852493762966,-0.010336045776400715,-0.013521895571169442
1772733775855022000,6.26802197265625,0.06080196696519851,0.008966465323092416,-0.00887268152583856
1772733775865037000,6.278037109375,0.0560141481667757,0.02034937153761275,-0.0016468949907692148
1772733775875052000,6.288052001953125,0.05825929674506187,0.012657657124381511,0.01417482478825841
1772733775885066800,6.298066650390625,0.06723696844875812,0.010872417675424366,-0.002196363833383657
1772733775895081700,6.308081787109375,0.04254793287217617,0.004094219644227996,0.006638542965333908
1772733775905096700,6.3180966796875,0.06693944680690765,-0.007536432519974187,-0.009033753839065321
1772733775915111700,6.328111572265625,0.06424713898301124,-0.006306333602592348,-0.003947874542674981
1772733775925127000,6.338126953125,0.05811199722886085,0.01520782566438429,0.0023462069331202655
1772733775935140900,6.348140869140625,0.06903437325954437,0.013889637471595778,0.001620427108951844
1772733775945155800,6.35815576171875,0.06349661287665367,0.008593549490626901,0.012168494501104578
1772733775955170800,6.3681708984375,0.06469137561917304,0.00862943365476094,0.010114279084769077
1772733775965185800,6.378185791015625,0.06020049394071102,0.010103086403897031,0.0019377083306200802
1772733775975200800,6.38820068359375,0.04792904138863086,0.0009630637453403323,-0.011356730593647807
1772733775985216000,6.398216064453125,0.06199380709826946,-0.0023973982642404735,-0.016939380431035534
1772733775995231000,6.40823095703125,0.07082184119820595,0.007885693482216447,0.0012714173084590584
1772733776005246000,6.418245849609375,0.06947451824247837,0.004504791472805664,0.004603461507731117
1772733776015261000,6.428260986328125,0.062441550865769385,0.017040539250569416,0.007928989201248623
1772733776025276000,6.43827587890625,0.0709714788019657,0.0024581154755316673,-0.0019393294655485078
1772733776035291000,6.448290771484375,0.05316694204211235,-0.005619876575237139,0.0059314084761310365
1772733776045304800,6.458304931640625,0.07082534832954407,0.004965897045377641,0.009250237000803463
1772733776055319800,6.46831982421875,0.05720891090929508,-0.0011213321801275015,-0.004500106164533645
1772733776065334800,6.478334716796875,0.052421676632761954,0.010923572473926469,0.002724091201648116
1772733776075349800,6.488349853515625,0.07800912235379219,0.02164156677261926,-0.002922244122251868
1772733776085364700,6.49836474609375,0.05840659626126289,0.013209244858846067,0.014056806165468878
1772733776095379700,6.508379638671875,0.06962941654324531,-0.008270226687239483,-0.00818754423931241
1772733776105395000,6.51839501953125,0.06139817929267883,0.00012611973085440695,-0.006538128497893921
1772733776115410000,6.528409912109375,-0.00696866996884346,0.01913876277199015,-0.01372588001093827
1772733776125425000,6.5384248046875,-0.10402560714185237,0.05425296544684097,0.026301073883101343
1772733776135440000,6.54843994140625,-0.09901216289401053,0.06262508160597645,0.004510549926734529
1772733776145454800,6.558454833984375,0.02048281605839729,0.02974079340766184,0.023628475406672803
