time,seconds_elapsed,z,y,x
1772733769645777400,0.05877734375,0.0008250763639807701,0.010319774970412254,-0.20782913267612457
1772733769655791400,0.068791259765625,-0.0006897298153489828,0.005226479843258858,-0.12350838631391525
1772733769665806300,0.078806396484375,-0.0012102352920919657,0.002224186435341835,-0.03116167150437832
1772733769675821300,0.0888212890625,0.0006755487993359566,-0.002591341268271208,0.05794849619269371
1772733769685836300,0.098836181640625,-0.0004534719046205282,-0.0054552871733903885,0.13652978837490082
1772733769695851300,0.108851318359375,0.000008586328476667404,-0.007558119483292103,0.1961321234703064
1772733769705866200,0.1188662109375,0.002011964563280344,-0.011679784394800663,0.2335457056760788
1772733769715881500,0.128881591796875,0.0002095368690788746,-0.011691768653690815,0.24736911058425903
1772733769725896400,0.138896484375,0.0017042630352079868,-0.012183637358248234,0.24112018942832947
1772733769735911400,0.148911376953125,0.00036149704828858376,-0.010237399488687515,0.21633335947990417
1772733769745926400,0.158926513671875,0.0012074350379407406,-0.007261160761117935,0.17331062257289886
1772733769755941400,0.16894140625,0.001704114954918623,-0.005721587687730789,0.11884445697069168
1772733769765956400,0.178956298828125,0.0009719771333038807,-0.0016172961331903934,0.05683201178908348
1772733769775970600,0.188970458984375,0.0007157810032367706,-0.0003437725827097893,-0.006839108653366566
1772733769785985500,0.198985595703125,-0.00009561469778418541,0.0033786066342145205,-0.06863150000572205
1772733769796000500,0.20900048828125,-0.00020107580348849297,0.004381020553410053,-0.1169164702296257
1772733769806015500,0.219015380859375,-0.0015777407679706812,0.00703456299379468,-0.15012025833129883
1772733769816030500,0.229030517578125,-0.0012634878512471914,0.006364245433360338,-0.16646140813827515
1772733769826045400,0.23904541015625,0.0001618782989680767,0.0069470698945224285,-0.1661321520805359
1772733769836060200,0.24906005859375,0.0005499008111655712,0.00799049623310566,-0.1523127406835556
1772733769846075400,0.259075439453125,-0.0005344266537576914,0.007105998694896698,-0.12333972752094269
1772733769856090400,0.26909033203125,0.00012843403965234756,0.0047522964887320995,-0.0843433290719986
1772733769866105300,0.279105224609375,-0.0015210642013698816,0.002146516926586628,-0.04021582379937172
1772733769876120300,0.289120361328125,0.0005061342380940914,0.00020161038264632225,0.005883494857698679
1772733769886135300,0.29913525390625,-0.0004909047856926918,-0.0025040809996426105,0.04876061901450157
1772733769896149500,0.3091494140625,-0.001491188071668148,-0.005212249234318733,0.07981547713279724
1772733769906164500,0.31916455078125,0.0006391750648617744,-0.0036894262302666903,0.1039111539721489
1772733769916179500,0.329179443359375,0.0006136088632047176,-0.004781588912010193,0.11228173226118088
1772733769926194400,0.3391943359375,0.0017278753221035004,-0.004660414531826973,0.10991711169481277
1772733769936209400,0.34920947265625,0.0015824176371097565,-0.005592472851276398,0.09627058357000351
1772733769946224400,0.359224365234375,0.0004831594415009022,-0.0040214406326413155,0.07390688359737396
1772733769956239400,0.3692392578125,0.0002703727222979069,-0.0031151671428233385,0.04501877352595329
1772733769966254600,0.379254638671875,0.0012477878481149673,-0.0008702168706804514,0.01106234174221754
1772733769976269600,0.38926953125,-0.0006060383748263121,0.0012320822570472956,-0.021860986948013306
1772733769986284500,0.399284423828125,-0.0010225418955087662,0.004648291505873203,-0.049514953047037125
1772733769996299500,0.409299560546875,-0.00002279132604598999,0.00325199612416327,-0.0679810494184494
1772733770006314500,0.419314453125,0.0007029003463685513,0.004037500359117985,-0.07759736478328705
1772733770016328400,0.429328369140625,-0.0018880891148000956,0.0035735778510570526,-0.07651505619287491
1772733770026343400,0.439343505859375,0.0014190645888447762,0.002515098312869668,-0.069376640021801
1772733770036358400,0.4493583984375,-0.00005552731454372406,0.0019331976072862744,-0.0536850281059742
1772733770046373400,0.459373291015625,-0.0008600021246820688,0.0015859049744904041,-0.03277654945850372
1772733770056388400,0.469388427734375,0.0003685140982270241,0.0005541963037103415,-0.007340166252106428
1772733770066403300,0.4794033203125,0.00021068984642624855,0.0009568531531840563,0.015328468754887581
1772733770076418300,0.489418212890625,-0.00009557371959090233,-0.0021518550347536802,0.03497753664851189
1772733770086433500,0.49943359375,-0.00008303625509142876,-0.0019342764280736446,0.04933401197195053
1772733770096448500,0.509448486328125,-0.0008628098294138908,-0.0021478617563843727,0.054952215403318405
1772733770106463500,0.51946337890625,0.0007333545945584774,-0.002259650733321905,0.05421838536858559
1772733770116478500,0.529478515625,0.000364773441106081,-0.0028801672160625458,0.04712212458252907
1772733770126493400,0.539493408203125,-0.0010428691748529673,-0.0031520910561084747,0.03353795036673546
1772733770136507400,0.54950732421875,0.0020429356954991817,-0.0015424764715135098,0.01639811135828495
1772733770146522400,0.5595224609375,0.0006249221041798592,0.0010009987745434046,-0.0009469501674175262
1772733770156537300,0.569537353515625,0.0014126854948699474,0.0011290968395769596,-0.01715814508497715
1772733770166552300,0.57955224609375,0.0005992110818624496,0.0011114098597317934,-0.030358528718352318
1772733770176567300,0.5895673828125,-0.0012676648329943419,0.0027721570804715157,-0.038767993450164795
1772733770186582300,0.599582275390625,0.0010622795671224594,0.0009822144638746977,-0.039887167513370514
1772733770196597200,0.60959716796875,0.0005424302071332932,0.0005435917992144823,-0.03656487166881561
1772733770206612200,0.6196123046875,-0.0027690567076206207,0.0022286372259259224,-0.026626713573932648
1772733770216627500,0.62962744140625,-0.0026417577173560858,-0.00017806142568588257,-0.01580815576016903
1772733770226642400,0.639642333984375,-0.000177877489477396,0.0017883849795907736,-0.0020292471162974834
1772733770236657400,0.649657470703125,0.0019033830612897873,-0.00043988204561173916,0.009883604943752289
1772733770246671400,0.65967138671875,-0.00042912038043141365,-0.0008111093193292618,0.020015260204672813
1772733770256686300,0.669686279296875,0.0007770252414047718,-0.0014212396927177906,0.02727823331952095
1772733770266701600,0.67970166015625,-0.0006364621222019196,0.000031670788303017616,0.030200626701116562
1772733770276716500,0.689716552734375,-0.0004894556477665901,-0.0010335936676710844,0.027727613225579262
1772733770286731500,0.6997314453125,-0.00014199316501617432,0.0006002243608236313,0.020839327946305275
1772733770296746500,0.70974658203125,0.0005054213106632233,-0.0010035312734544277,0.010837292298674583
1772733770306761500,0.719761474609375,0.00008448585867881775,0.00019882386550307274,0.0022943620570003986
1772733770316776400,0.7297763671875,0.000007520429790019989,-0.0007822846528142691,-0.005298310425132513
1772733770326791200,0.739791259765625,-0.0005917747039347887,0.00021295365877449512,-0.013690900057554245
1772733770336806400,0.749806396484375,0.001236485317349434,0.0017786259995773435,-0.021133368834853172
1772733770346821400,0.7598212890625,-0.0015863380394876003,0.001854102942161262,-0.022566428408026695
1772733770356836400,0.76983642578125,-0.0003927093930542469,0.0010080167558044195,-0.020875321701169014
1772733770366850300,0.779850341796875,-0.0006985845975577831,0.0007343990728259087,-0.01576993428170681
1772733770376865300,0.789865234375,-0.0006570394616574049,0.00006940774619579315,-0.008623341098427773
1772733770386880500,0.799880615234375,-0.0006347356829792261,-0.0012401489075273275,0.00019504607189446688
1772733770396895500,0.8098955078125,0.00019696960225701332,-0.0009645118843764067,0.007571203168481588
1772733770406910500,0.819910400390625,-0.0010405536741018295,0.001253278460353613,0.014189530164003372
1772733770416925400,0.829925537109375,0.00017704349011182785,-0.0005496814846992493,0.01646973006427288
1772733770426940400,0.8399404296875,0.000038996804505586624,-0.0015947395004332066,0.015063122846186161
1772733770436955400,0.849955322265625,0.0013894857838749886,-0.0014304225333034992,0.015421583317220211
1772733770446970400,0.859970458984375,-0.0007493407465517521,-0.0024502708110958338,0.010455768555402756
1772733770456985600,0.869985595703125,-0.000209784135222435,-0.00027100625447928905,0.004815991967916489
1772733770467000600,0.88000048828125,0.0014617564156651497,-0.00018269801512360573,-0.001485835062339902
1772733770477014300,0.89001416015625,0.0001514814794063568,0.0004838912282139063,-0.008835360407829285
1772733770487029200,0.900029296875,-0.001740631414577365,0.0016453240532428026,-0.012047282420098782
1772733770497044200,0.910044189453125,-0.0001587136648595333,0.0010841959156095982,-0.012842768803238869
1772733770507059500,0.9200595703125,0.000288334209471941,0.0009360152762383223,-0.013378147035837173
1772733770517074400,0.930074462890625,-0.0008613525424152613,0.000042791012674570084,-0.00896555557847023
1772733770527089400,0.94008935546875,0.00015996815636754036,-0.0007052882574498653,-0.005543832667171955
1772733770537104400,0.9501044921875,-0.00034097209572792053,0.0006502605974674225,0.000585698988288641
1772733770547119400,0.960119384765625,-0.0004904980305582285,-0.0014209900982677937,0.004238863475620747
1772733770557134300,0.97013427734375,0.0010591954924166203,-0.0012766467407345772,0.007494844030588865
1772733770567149300,0.9801494140625,0.0004299306310713291,-0.001982700312510133,0.010957902297377586
1772733770577164300,0.990164306640625,-0.0017994015943259,-0.0017725767102092505,0.010456695221364498
1772733770587179500,1.000179443359375,0.0008919499814510345,0.001281021861359477,0.009421087801456451
1772733770597193500,1.010193359375,0.0001225629821419716,0.00042188609950244427,0.006331288255751133
1772733770607208700,1.020208740234375,0.0004535159096121788,-0.0009524708148092031,0.0009679051581770182
1772733770617223700,1.0302236328125,0.0014063948765397072,-0.0003199703060090542,-0.0036630656104534864
1772733770627238700,1.04023876953125,-0.0006389031186699867,0.0014062374830245972,-0.006959015037864447
1772733770637254000,1.05025390625,-0.0008106769528239965,0.0012325993739068508,-0.007871413603425026
1772733770647268900,1.060268798828125,-0.000022226013243198395,0.0017443555407226086,-0.00845973752439022
1772733770657283800,1.070283935546875,-0.000023025088012218475,0.0004444667138159275,-0.006651983596384525
1772733770667298800,1.080298828125,-0.0006842981092631817,0.0015470648650079966,-0.00430136127397418
1772733770677313800,1.090313720703125,0.0014827162958681583,0.0008687577210366726,-0.0015002485597506166
1772733770687328800,1.100328857421875,-0.0007498199120163918,-0.0008124478626996279,-0.0002622939646244049
1772733770697343700,1.11034375,-0.0008829780854284763,0.0007745297625660896,0.0038480288349092007
1772733770707357700,1.120357666015625,-0.0005331158172339201,-0.00023297523148357868,0.005150293465703726
1772733770717372700,1.13037255859375,-0.0017848014831542969,0.0002637042198330164,0.007604928687214851
1772733770727387600,1.1403876953125,-0.00035529397428035736,-0.0008657739963382483,0.007923421449959278
1772733770737402600,1.150402587890625,0.00010010646656155586,-0.0009509951341897249,0.005321513395756483
1772733770747417600,1.16041748046875,0.00070528918877244,0.0001605453435331583,0.0031209010630846024
1772733770757432600,1.1704326171875,-0.0015200483612716198,-0.00008499808609485626,0.00017038476653397083
1772733770767447800,1.18044775390625,-0.0012627150863409042,-0.00032204180024564266,-0.003239791840314865
1772733770777462800,1.190462890625,0.0006406460888683796,-0.00048555992543697357,-0.0049535357393324375
1772733770787477800,1.200477783203125,-0.001550212036818266,0.001961829373613,-0.00535954162478447
1772733770797492700,1.21049267578125,-0.000753927044570446,-0.0005260955076664686,-0.005625058896839619
1772733770807507700,1.2205078125,0.0008508940227329731,0.0005399677902460098,-0.005516934208571911
1772733770817522700,1.230522705078125,0.0010538268834352493,0.0001492819283157587,-0.0015421666903421283
1772733770827537000,1.240536865234375,-0.0008108657784759998,0.00019569694995880127,0.0009292153408750892
1772733770837551900,1.2505517578125,-0.000008721835911273956,-0.0010261612478643656,0.004140987526625395
1772733770847566800,1.26056689453125,-0.0005103589501231909,0.0005179261788725853,0.004347190260887146
1772733770857581600,1.27058154296875,0.0002414514310657978,-0.0011276411823928356,0.004401252605021
1772733770867596500,1.280596435546875,0.000840027816593647,0.00041780457831919193,0.005260847043246031
1772733770877611500,1.290611572265625,0.00013322476297616959,-0.0004743544850498438,0.00412687286734581
1772733770887626800,1.300626708984375,0.000501684844493866,-0.0008806418627500534,0.0026465808041393757
1772733770897641700,1.310641845703125,-0.00039020786061882973,-0.00008169352076947689,0.00013708428014069796
1772733770907656700,1.32065673828125,-0.000858974875882268,-0.0005195944104343653,-0.0020903514232486486
1772733770917671700,1.330671630859375,0.0008363933302462101,-0.0005741890054196119,-0.0029172629583626986
1772733770927686700,1.340686767578125,-0.00016052182763814926,0.0004188697785139084,-0.005299651995301247
1772733770937700900,1.350700927734375,-0.0007285741157829762,0.00021220860071480274,-0.0042847213335335255
1772733770947715800,1.3607158203125,0.0007315156981348991,0.0005779715720564127,-0.004549812991172075
1772733770957730800,1.370730712890625,0.0008481619879603386,-0.0007751807570457458,-0.00037397630512714386
1772733770967745800,1.380745849609375,-0.00006050849333405495,0.0004874242004007101,0.0007245775777846575
1772733770977760800,1.3907607421875,0.0004193931818008423,0.0008584023453295231,0.0035147713497281075
1772733770987775700,1.400775634765625,0.0002964166924357414,0.00010858266614377499,0.003495320212095976
1772733770997790700,1.410790771484375,0.00023889215663075447,0.0004904798697680235,0.003928616177290678
1772733771007806000,1.420805908203125,-0.0031725671142339706,0.0003009405918419361,0.0035964876879006624
1772733771017821000,1.430821044921875,-0.0007136703934520483,0.0000029329676181077957,0.00450675655156374
1772733771027836000,1.4408359375,0.000639431644231081,-0.000019515398889780045,0.0002670362591743469
1772733771037850600,1.4508505859375,0.0017816615290939808,0.000473968219012022,0.00032509316224604845
1772733771047865600,1.460865478515625,0.0007203919813036919,0.00030139554291963577,0.0010641204426065087
1772733771057879800,1.4708798828125,-0.0006612562574446201,0.00031391228549182415,-0.0030547245405614376
1772733771067894800,1.480894775390625,0.0008508600294589996,0.000451910775154829,-0.002252634149044752
1772733771077909800,1.49090966796875,-0.0006785935256630182,0.00033100321888923645,-0.0042798323556780815
1772733771087924700,1.5009248046875,0.0013696090318262577,-0.00015919143334031105,-0.003567639272660017
1772733771097939700,1.510939697265625,0.001266278326511383,-0.0002100577112287283,-0.001570534543134272
1772733771107954700,1.52095458984375,-0.0016048068646341562,-0.00011969730257987976,0.00007144256960600615
1772733771117969700,1.5309697265625,0.0023286822251975536,0.0009157396852970123,0.0017556257080286741
1772733771127984600,1.540984619140625,0.0010956311598420143,0.0007914172019809484,0.0017498844536021352
1772733771138000000,1.550999755859375,-0.0002383464016020298,0.0014428263530135155,0.004176290240138769
1772733771148014800,1.561014892578125,-0.00031673815101385117,0.00011307676322758198,0.002610692521557212
1772733771158029800,1.57102978515625,-0.0017468556761741638,0.0007085595279932022,0.0019627453293651342
1772733771168043800,1.581043701171875,-0.0002994164824485779,-0.0004297266714274883,0.0015334544004872441
1772733771178058800,1.591058837890625,-0.001234186114743352,0.0007900011260062456,0.0022839331068098545
1772733771188073700,1.60107373046875,-0.0014341266360133886,0.0005528167821466923,0.00027415179647505283
1772733771198088700,1.611088623046875,0.0016119969077408314,0.0013160789385437965,-0.0021368078887462616
1772733771208103700,1.621103759765625,0.0004111281596124172,0.00021738349460065365,-0.0008457074873149395
1772733771218118700,1.63111865234375,0.00022523943334817886,0.00034974259324371815,-0.0015770115423947573
1772733771228133600,1.641133544921875,-0.001988983480259776,-0.0008237650617957115,-0.0012693738099187613
1772733771238148600,1.651148681640625,-0.0014283880591392517,-0.0001606382429599762,-0.0009724313276819885
1772733771248163600,1.66116357421875,0.0007134699262678623,-0.00023538130335509777,-0.0002015202189795673
1772733771258178800,1.6711787109375,0.0004886994138360023,-0.0006204743403941393,0.0016416534781455994
1772733771268193800,1.68119384765625,-0.002681712619960308,0.0004852251149713993,0.0012754047056660056
1772733771278207700,1.691207763671875,0.0016874694265425205,-0.0013393065892159939,0.003571316134184599
1772733771288222700,1.70122265625,-0.000040226615965366364,0.002030828734859824,0.001723210676573217
1772733771298237700,1.71123779296875,-0.001178461592644453,-0.0005465783178806305,0.0020411922596395016
1772733771308253000,1.7212529296875,0.001042066141963005,-0.00009709061123430729,0.00026975420769304037
1772733771318268000,1.731267822265625,0.00236698891967535,0.0001923949457705021,0.00014458561781793833
1772733771328283000,1.741282958984375,-0.002006463473662734,-0.0005984222516417503,-0.0005541552673093975
1772733771338297900,1.7512978515625,0.0004276656545698643,0.0006183760706335306,-0.0021919994615018368
1772733771348312600,1.7613125,-0.0005411736201494932,0.0009522601030766964,-0.0016552333254367113
1772733771358327600,1.77132763671875,0.0011089206673204899,0.0006973955314606428,-0.0018594978610053658
1772733771368342500,1.781342529296875,0.00006046006456017494,0.0006708058062940836,-0.0007541688391938806
1772733771378357800,1.791357666015625,-0.0003515309654176235,-0.0009830174967646599,-0.0013584401458501816
1772733771388372700,1.801372802734375,-0.0013504025992006063,0.0007937783375382423,-0.000021746731363236904
1772733771398386700,1.81138671875,0.000017663463950157166,-0.00044112931936979294,-0.0002603659522719681
1772733771408401700,1.821401611328125,0.00047635985538363457,0.0007562658283859491,0.0027666790410876274
1772733771418416600,1.831416748046875,0.00250968337059021,-0.0008988888002932072,0.002651098184287548
1772733771428432000,1.841431884765625,0.0003603980876505375,-0.00017921370454132557,0.0033657304011285305
1772733771438446800,1.85144677734375,0.00005573267117142677,0.000495631480589509,0.0005161480512470007
1772733771448461800,1.8614619140625,0.002089576330035925,-0.00017849775031208992,0.000747331534512341
1772733771458476800,1.871476806640625,-0.00003349548205733299,0.0008273781277239323,0.0007803547196090221
1772733771468491800,1.88149169921875,-0.0013020681217312813,-0.0005898182280361652,-0.0006687116110697389
1772733771478506800,1.8915068359375,0.00019942224025726318,0.0004301725421100855,-0.0010807026410475373
1772733771488521700,1.901521728515625,-0.0017998050898313522,-0.000007450347766280174,-0.0014886464923620224
1772733771498536700,1.91153662109375,-0.0007768848445266485,-0.001342226518318057,-0.0029174324590712786
1772733771508550700,1.921550537109375,-0.00033487891778349876,0.0017652594251558185,-0.0002987682819366455
1772733771518565600,1.931565673828125,-0.0009354220237582922,-0.000007606809958815575,-0.0017837469931691885
1772733771528580600,1.94158056640625,0.0004279725253582001,0.0004608007147908211,0.0013015352888032794
1772733771538595600,1.951595703125,0.00035553472116589546,0.0004861007910221815,-0.0006377784884534776
1772733771548610600,1.961610595703125,0.0009845704771578312,-0.0009642292279750109,0.0005676960572600365
1772733771558625800,1.971625732421875,0.00018056249246001244,0.0008373991586267948,0.001015373389236629
1772733771568640800,1.981640869140625,0.0003264625556766987,-0.0009356646332889795,0.0005538689438253641
1772733771578655700,1.99165576171875,-0.0003736824728548527,-0.0004070273134857416,0.0014247227227315307
1772733771588670700,2.001670654296875,-0.0002522384747862816,-0.00012173457071185112,0.00032506068237125874
1772733771598685700,2.011685791015625,0.0003475053235888481,0.0011086459271609783,-0.0002579052234068513
1772733771608700700,2.02170068359375,0.00046441564336419106,0.0004091276787221432,-0.0005631247768178582
1772733771618715000,2.03171484375,-0.00020430423319339752,-0.0008313730359077454,0.00018602237105369568
1772733771628729900,2.041729736328125,-0.00003892555832862854,0.0006606974638998508,0.00022766401525586843
1772733771638744800,2.051744873046875,-0.0003164270892739296,-0.0012695619370788336,-0.0016607835423201323
1772733771648759800,2.061759765625,-0.00044336006976664066,0.00012617092579603195,-0.001282774843275547
1772733771658774800,2.07177490234375,0.00011031096801161766,0.0006561398040503263,0.0016584203112870455
1772733771668789800,2.081789794921875,0.000021465588361024857,-0.0002778142224997282,0.0015006654430180788
1772733771678805000,2.091804931640625,-0.0011609781067818403,0.00029370025731623173,0.0023150602355599403
1772733771688820000,2.101820068359375,0.0006810128688812256,0.000642719678580761,0.001050410559400916
1772733771698835000,2.1118349609375,-0.000492908526211977,-0.0000837906263768673,-0.000601015635766089
1772733771708850000,2.121849853515625,0.0007818727754056454,0.00024759257212281227,0.000058450037613511086
1772733771718865000,2.131864990234375,0.0010255519300699234,0.00005584512837231159,0.000346870394423604
1772733771728878800,2.14187890625,-0.0009107354562729597,0.0014249887317419052,-0.0012064558686688542
1772733771738893800,2.151893798828125,-0.0004153875634074211,0.0003386852331459522,-0.0004304107860662043
1772733771748908800,2.16190869140625,0.00014186091721057892,0.00039508030749857426,-0.0018431278876960278
1772733771758923800,2.171923828125,0.0008904756978154182,-0.00019986997358500957,-0.0006226011901162565
1772733771768938800,2.181938720703125,-0.0002117091789841652,0.0016906337114050984,0.0012316961074247956
1772733771778953700,2.19195361328125,-0.0002548522315919399,-0.00040314369834959507,-0.001075932988896966
1772733771788968700,2.20196875,0.0002973894588649273,0.0001564803533256054,0.0003161387285217643
1772733771798984000,2.21198388671875,0.00042735179886221886,-0.0003111709374934435,0.0011566323228180408
1772733771808999000,2.2219990234375,-0.0012864975724369287,0.001242279540747404,-0.000642023456748575
1772733771819014000,2.232013916015625,-0.0002305544912815094,-0.00009888829663395882,0.0015076801646500826
1772733771829028900,2.24202880859375,0.0005199676379561424,-0.00015524611808359623,0.0010310850339010358
1772733771839042800,2.252042724609375,0.001213455107063055,0.00045301998034119606,0.00012134911958128214
1772733771849057800,2.262057861328125,0.000008241739124059677,-0.0003013752866536379,0.00016610929742455482
1772733771859073000,2.272072998046875,-0.0017086982261389494,0.000044569140300154686,-0.0002610617084428668
1772733771869088000,2.282087890625,0.0004240027628839016,0.000045443885028362274,0.00033888942562043667
1772733771879103000,2.29210302734375,-0.0008854735642671585,0.00007180916145443916,-0.0007479465566575527
1772733771889118000,2.302117919921875,-0.0006388633046299219,-0.001201558392494917,-0.0015027233166620135
1772733771899133000,2.3121328125,0.0008165542967617512,0.00013082101941108704,-0.0020191101357340813
1772733771909147600,2.322147705078125,0.002055305987596512,-0.0005039323586970568,-0.0015893520321696997
1772733771919162600,2.33216259765625,0.00024222582578659058,0.0001932831946760416,0.0002194669796153903
1772733771929177900,2.342177734375,-0.0006469895597547293,-0.0005423480179160833,0.0012708393624052405
1772733771939192800,2.35219287109375,0.00126649159938097,0.00009388127364218235,-0.0005092174396850169
1772733771949207800,2.362207763671875,-0.0001606978476047516,0.0015739866066724062,0.0008994843810796738
1772733771959221800,2.3722216796875,-0.00037668016739189625,-0.00018556369468569756,-0.0002214400446973741
1772733771969236700,2.38223681640625,-0.00007852260023355484,0.0005339088384062052,0.00001714332029223442
1772733771979252000,2.392251953125,0.001521238125860691,0.0006862415466457605,-0.0017962029669433832
1772733771989267000,2.402266845703125,-0.0003558904863893986,0.000781515147536993,-0.0003456766717135906
1772733771999282000,2.412281982421875,0.00036236410960555077,0.00011545862071216106,0.0010024154325947165
1772733772009297000,2.422296875,0.0018322677351534367,-0.0004918891936540604,-0.0005391620798036456
1772733772019311900,2.432311767578125,-0.0012388897594064474,-0.00004128227010369301,-0.0015048242639750242
1772733772029326800,2.442326904296875,-0.000005146488547325134,0.0014430799055844545,0.0014154803939163685
1772733772039341800,2.452341796875,0.00028407247737050056,-0.000451759435236454,-0.00030865013832226396
1772733772049357000,2.462357177734375,0.0016266941092908382,-0.0007859617471694946,0.0014140421990305185
1772733772059372000,2.4723720703125,0.0005624950863420963,0.0017176761757582426,-0.0007308677304536104
1772733772069385700,2.4823857421875,-0.001109198434278369,0.0015121758915483952,-0.000502896960824728
1772733772079400700,2.492400634765625,0.0006618034094572067,-0.0008314060978591442,0.0010409376118332148
1772733772089415700,2.502415771484375,-0.0012189771514385939,0.0010435266885906458,-0.0006663603708148003
1772733772099431000,2.512430908203125,0.0005464325658977032,0.00006454880349338055,0.00009956466965377331
1772733772109446000,2.52244580078125,-0.002131338231265545,0.0022261026315391064,0.0007984425174072385
1772733772119460900,2.5324609375,-0.00041919201612472534,0.002379500772804022,0.0004077567718923092
1772733772129475800,2.542475830078125,0.001203923486173153,0.0005091663915663958,-0.0003422775771468878
1772733772139490800,2.55249072265625,-0.0010824003256857395,-0.0009371964260935783,-0.0007055327296257019
1772733772149505800,2.562505859375,0.0003850092180073261,-0.0006767921149730682,-0.0008924390422180295
1772733772159520800,2.572520751953125,0.00013600382953882217,-0.0011580255813896656,0.000004513654857873917
1772733772169536000,2.582535888671875,0.0013920944184064865,0.00037046894431114197,0.00012277101632207632
1772733772179550000,2.592550048828125,-0.0008327101822942495,0.0008559632115066051,-0.000749680504668504
1772733772189565000,2.60256494140625,0.0018071029335260391,0.00017003435641527176,0.0009228808339685202
1772733772199580000,2.612579833984375,0.0005058823153376579,0.0006786982994526625,-0.0005871315370313823
1772733772209595000,2.622594970703125,0.0005648038350045681,0.0023851757869124413,0.0015842969296500087
1772733772219609900,2.63260986328125,-0.0006557228043675423,0.001940427697263658,0.0020034783519804478
1772733772229624800,2.642624755859375,0.0003092186525464058,0.0028576194308698177,0.0007045059464871883
1772733772239639800,2.652639892578125,-0.0012271590530872345,-0.0008124825544655323,0.00007706519681960344
1772733772249654800,2.66265478515625,-0.0005986560136079788,-0.000029364367946982384,0.0011998299742117524
1772733772259669800,2.672669677734375,-0.0011262281332165003,-0.000033359043300151825,-0.00038208760088309646
1772733772269684700,2.682684814453125,-0.00009937258437275887,0.00011429097503423691,-0.0011618081480264664
1772733772279699700,2.69269970703125,-0.0019340240396559238,-0.00017173262313008308,0.0015836446546018124
1772733772289714700,2.702714599609375,0.0008855103515088558,-0.00008771056309342384,0.0011953265639021993
1772733772299729000,2.71272900390625,0.0006444943137466908,0.001286480575799942,-0.001137336133979261
1772733772309743900,2.722743896484375,0.0002700858749449253,-0.00045353779569268227,-0.00021091604139655828
1772733772319758800,2.7327587890625,0.0004767472855746746,-0.0003826976753771305,0.00027031719218939543
1772733772329773800,2.74277392578125,-0.00011490611359477043,0.0007296034600585699,-0.00008331984281539917
1772733772339788800,2.752788818359375,-0.0000035860575735569,0.00005369330756366253,0.00008579087443649769
1772733772349804000,2.762803955078125,0.00033612409606575966,0.001117589883506298,0.0004838887834921479
1772733772359819000,2.772819091796875,0.0013657021336257458,-0.0008267839439213276,0.000535287894308567
1772733772369834000,2.782833984375,-0.00044504180550575256,0.001103242626413703,0.0006976199802011251
1772733772379849000,2.792848876953125,-0.0008362601511180401,0.000568213639780879,-0.000031553441658616066
1772733772389864000,2.802864013671875,-0.0003914041444659233,0.0015994482673704624,0.0013523008674383163
1772733772399878700,2.812878662109375,-0.000473962165415287,-0.0015651863068342209,0.0006391063798218966
1772733772409892900,2.822892822265625,0.0013342113234102726,0.00022565876133739948,0.0001325665507465601
1772733772419907800,2.832907958984375,-0.0016639751847833395,0.00020834826864302158,-0.000575834303162992
1772733772429922800,2.8429228515625,0.000637393444776535,0.000401762081310153,0.00035163562279194593
1772733772439937800,2.852937744140625,0.00038199638947844505,-0.0008467277511954308,0.00001714262180030346
1772733772449952800,2.862952880859375,0.000013767275959253311,0.0007174024358391762,0.00007085141260176897
1772733772459967700,2.8729677734375,0.0005703680217266083,-0.0003883419558405876,-0.001729179173707962
1772733772469983000,2.88298291015625,0.001770723145455122,-0.00034228572621941566,0.0021828175522387028
1772733772479998000,2.892998046875,-0.0002594045363366604,0.0005067300517112017,0.002173763234168291
1772733772490013000,2.903012939453125,0.000012770760804414749,0.0005986089818179607,0.0004661441780626774
1772733772500028000,2.91302783203125,0.002019772306084633,-0.002051468938589096,0.0011641313321888447
1772733772510043000,2.92304296875,0.0014915894716978073,-0.0007736505940556526,-0.00034246710129082203
1772733772520057000,2.93305712890625,-0.0015683823730796576,-0.00013422546908259392,0.0000844376627355814
1772733772530072000,2.943072021484375,0.0009303777478635311,0.0005567516200244427,0.0007720345165580511
1772733772540086800,2.953086669921875,-0.0006211800500750542,-0.00010690814815461636,0.001200803555548191
1772733772550101800,2.963101806640625,-0.00013690069317817688,-0.0012094296980649233,-0.0007074627210386097
1772733772560116700,2.97311669921875,-0.0002727219834923744,-0.00012871879152953625,-0.0002395453630015254
1772733772570131700,2.983131591796875,0.0000013718381524085999,-0.000771084101870656,-0.0016961126821115613
1772733772580146700,2.993146728515625,0.0005577057600021362,0.00033439393155276775,-0.0020780100021511316
1772733772590162000,3.003161865234375,0.00032316427677869797,-0.0004205792210996151,0.00044489488936960697
1772733772600177000,3.013177001953125,-0.00009175622835755348,-0.00009008101187646389,-0.0003330144681967795
1772733772610191400,3.02319140625,-0.0005939626134932041,0.000040382612496614456,-0.0003270667511969805
1772733772620206300,3.033206298828125,0.00023747608065605164,0.000023870961740612984,-0.0005068301106803119
1772733772630220300,3.04322021484375,-0.000937808072194457,-0.000014801742509007454,0.0012990321265533566
1772733772640235500,3.053235595703125,0.0009264047257602215,0.0003897324204444885,0.000562934554181993
1772733772650250500,3.06325048828125,-0.0025690884795039892,-0.0004581185057759285,0.0010917526669800282
1772733772660265500,3.073265380859375,0.0015550828538835049,-0.00003733905032277107,0.00038202013820409775
1772733772670280400,3.083280517578125,0.0011932183988392353,0.000769477803260088,-0.0005496504018083215
1772733772680295400,3.09329541015625,0.0005311565473675728,0.0006917135324329138,0.0014850045554339886
1772733772690310100,3.10331005859375,-0.0013833979610353708,-0.0022133635357022285,-0.00023412902373820543
1772733772700325400,3.113325439453125,0.0019434229470789433,-0.000023978762328624725,0.00012726197019219398
1772733772710340400,3.12334033203125,-0.000024910084903240204,0.0001444416120648384,-0.0007257197285071015
1772733772720355300,3.133355224609375,-0.0007032174617052078,0.0012046459596604109,-0.0007827113731764257
1772733772730370300,3.143370361328125,-0.00033464934676885605,-0.000485484953969717,0.0015899261925369501
1772733772740385300,3.15338525390625,-0.001353840809315443,0.0002697876188904047,0.001063152914866805
1772733772750399200,3.163399169921875,0.002309282310307026,0.00032599340192973614,0.0014098947867751122
1772733772760414500,3.17341455078125,-0.0012646797113120556,-0.0007134382613003254,-0.0005200979649089277
1772733772770429400,3.183429443359375,-0.0007666975725442171,-0.0014527307357639074,0.0012799176620319486
1772733772780444400,3.1934443359375,0.00029137637466192245,0.0003587515093386173,-0.00019307679031044245
1772733772790459400,3.20345947265625,-0.0014433299656957388,-0.0005645076744258404,0.0002905554138123989
1772733772800474400,3.213474365234375,-0.00097674410790205,0.00037132715806365013,-0.000315846293233335
1772733772810489300,3.2234892578125,0.0012067821808159351,0.001991233555600047,0.00015599571634083986
1772733772820504300,3.23350439453125,-0.0004784662742167711,0.0007328898645937443,0.00034374860115349293
1772733772830519600,3.24351953125,0.001448227558284998,-0.00048313592560589314,-0.0003328542225062847
1772733772840534500,3.253534423828125,-0.0010226534213870764,0.0005658830050379038,0.0010381409665569663
1772733772850549500,3.263549560546875,0.00033578788861632347,-0.0009366907179355621,0.0009397345129400492
1772733772860563200,3.273563232421875,-0.0010365389753133059,-0.0006282967515289783,0.0015581203624606133
1772733772870578200,3.283578125,-0.00013349205255508423,0.000457369489595294,-0.0002475230721756816
1772733772880593400,3.293593505859375,-0.002253368031233549,-0.00026701041497290134,0.0009759330423548818
1772733772890608400,3.3036083984375,0.0005365675315260887,-0.000630255090072751,-0.0004348228103481233
1772733772900623400,3.313623291015625,-0.000300463754683733,-0.00047472654841840267,0.00043975934386253357
1772733772910638300,3.323638427734375,-0.002776362933218479,0.0005520395934581757,-0.0004941094666719437
1772733772920653300,3.3336533203125,0.0009501981548964977,0.0015680354554206133,0.000024407985620200634
1772733772930668300,3.343668212890625,0.0012208176776766777,0.0014381008222699165,-0.00001318322028964758
1772733772940683300,3.353683349609375,0.00004689628258347511,0.0010692530777305365,0.000500007881782949
1772733772950698500,3.363698486328125,-0.0005006922874599695,-0.0011867929715663195,0.0008634943515062332
1772733772960713500,3.37371337890625,-0.00023144669830799103,0.0014763681683689356,0.00002300064079463482
1772733772970727400,3.3837275390625,0.000920239370316267,0.0007623885758221149,-0.000956494128331542
1772733772980742400,3.393742431640625,0.0013418179005384445,-0.0008714606519788504,-0.0010145510314032435
1772733772990757400,3.40375732421875,0.0009479359723627567,0.0002820065710693598,0.00007530045695602894
1772733773000772400,3.4137724609375,-0.00030934205278754234,0.0007597776129841805,0.00022603536490350962
1772733773010787300,3.423787353515625,-0.0002406686544418335,-0.0016741410363465548,0.00007125467527657747
1772733773020802300,3.43380224609375,0.0016515073366463184,0.00022096442990005016,0.000007072463631629944
1772733773030817300,3.4438173828125,-0.00008646724745631218,0.0012994057033210993,-0.0008199922740459442
1772733773040832300,3.453832275390625,-0.0013996718917042017,0.0007726324256509542,-0.00007031240966171026
1772733773050847200,3.46384716796875,-0.0006072206888347864,-0.0008276575244963169,-0.0007184484857134521
1772733773060862200,3.4738623046875,-0.000843442976474762,0.00037715653888881207,0.000489294994622469
1772733773070877400,3.48387744140625,0.000554288737475872,-0.00042436947114765644,0.0009051065426319838
1772733773080891400,3.493891357421875,0.0017974521033465862,-0.0012909623328596354,0.0005096271634101868
1772733773090906400,3.50390625,-0.000648558372631669,-0.0004205973818898201,0.0006147179519757628
1772733773100921300,3.51392138671875,0.0003900746814906597,0.0015549357049167156,-0.00023989041801542044
1772733773110936300,3.523936279296875,-0.000049649737775325775,-0.00014400272630155087,-0.0005758155602961779
1772733773120951300,3.533951416015625,0.0004813848063349724,-0.00012323004193603992,-0.0010485266102477908
1772733773130966500,3.543966552734375,-0.00004223501309752464,-0.000963075552135706,-0.0007300265715457499
1772733773140981500,3.5539814453125,-0.001966901822015643,-0.0012751980684697628,-0.00034440081799402833
1772733773150996500,3.56399658203125,0.0009905672632157803,0.0005692043341696262,-0.00013598822988569736
1772733773161011500,3.574011474609375,0.0014845835976302624,0.0009652164299041033,-0.0005264076753519475
1772733773171026400,3.5840263671875,-0.0003258963115513325,-0.0006370421033352613,-0.0004527129349298775
1772733773181041200,3.594041259765625,0.00033403513953089714,0.0008564586751163006,-0.0005746856913901865
1772733773191055400,3.604055419921875,-0.0004722077865153551,-0.000847900053486228,-0.0012632953003048897
1772733773201070300,3.6140703125,0.00037787342444062233,-0.0005544198211282492,0.0008568472694605589
1772733773211085300,3.624085205078125,-0.0005589846987277269,0.0009956399444490671,0.0005305934464558959
1772733773221100300,3.634100341796875,0.00001705670729279518,-0.0005287532694637775,0.0017886706627905369
1772733773231115300,3.644115234375,-0.0009564508218318224,0.0005611602682620287,0.0005675393622368574
1772733773241130200,3.654130126953125,-0.000648322980850935,-0.0011991893406957388,0.0005028245504945517
1772733773251145500,3.6641455078125,0.0010012732818722725,-0.0005879250820726156,-0.00034342362778261304
1772733773261160400,3.674160400390625,-0.0005990203935652971,-0.0002955098170787096,0.0009324968559667468
1772733773271175400,3.684175537109375,0.0013356292620301247,0.000008445000275969505,-0.00046202761586755514
1772733773281190400,3.6941904296875,-0.00016852375119924545,-0.0005145999602973461,0.0007877938915044069
1772733773291205400,3.704205322265625,-0.0002060839906334877,-0.0004028761759400368,0.001033881912007928
1772733773301220400,3.714220458984375,-0.000406620092689991,-0.001358151901513338,-0.0004481673240661621
1772733773311234600,3.724234619140625,0.0009741522371768951,-0.00024045421741902828,0.0006482618628069758
1772733773321249300,3.734249267578125,-0.0003244052641093731,-0.0007057085167616606,-0.000011669355444610119
1772733773331264300,3.74426416015625,0.0010242336429655552,-0.0008715076837688684,-0.0009422149742022157
1772733773341279200,3.754279296875,-0.0003329128958284855,0.0013676781672984362,-0.0005017281509935856
1772733773351294200,3.764294189453125,-0.00138610671274364,-0.0005091328639537096,-0.0010781490709632635
1772733773361309200,3.77430908203125,0.00043309852480888367,-0.0006761129479855299,-0.00011701416224241257
1772733773371324400,3.784324462890625,0.0006605414673686028,-0.0005656816065311432,-0.0007326218765228987
1772733773381339400,3.79433935546875,0.00013856170699000359,-0.00036168331280350685,-0.0003206308465451002
1772733773391354400,3.804354248046875,-0.0021119052544236183,0.0011013161856681108,0.0011764001101255417
1772733773401369300,3.814369384765625,0.00042422302067279816,0.00044111860916018486,0.0008107481990009546
1772733773411384300,3.82438427734375,-0.001079668989405036,-0.0007258334662765265,0.000600511790253222
1772733773421398500,3.8343984375,-0.0006005663890391588,0.0007309154607355595,-0.0004706115578301251
1772733773431413500,3.84441357421875,0.0018725115805864334,-0.00004258728586137295,-0.00022670457838103175
1772733773441428500,3.854428466796875,0.000021348707377910614,-0.0001989149022847414,-0.00017477292567491531
1772733773451443500,3.864443359375,0.0010913149453699589,-0.001797940582036972,-0.00038837362080812454
1772733773461458400,3.87445849609375,0.00039649615064263344,-0.00018299976363778114,0.000663042301312089
1772733773471473400,3.884473388671875,0.00002125510945916176,0.0008054445497691631,0.00001861737109720707
1772733773481488400,3.89448828125,0.0006755939684808254,0.00011888169683516026,0.0008663014741614461
1772733773491503400,3.90450341796875,-0.00013994472101330757,0.0005569369532167912,0.00011309713590890169
1772733773501518300,3.914518310546875,-0.0005817629862576723,0.001687182579189539,0.0007469294359907508
1772733773511533300,3.924533203125,-0.000018777325749397278,-0.0009315370116382837,-0.0009277659701183438
1772733773521548300,3.93454833984375,-0.001321862218901515,-0.0013805462513118982,-0.001240687444806099
1772733773531562200,3.944562255859375,-0.0017982181161642075,-0.0010754191316664219,-0.0006271965685300529
1772733773541577200,3.9545771484375,-0.0015694524627178907,0.0009299411904066801,-0.0015577049925923347
1772733773551592400,3.964592529296875,0.0004491596482694149,0.0011124450247734785,0.0010361326858401299
1772733773561607400,3.974607421875,-0.0019279778935015202,0.0005483874119818211,-0.001090135076083243
1772733773571622400,3.984622314453125,-0.0012818081304430962,0.00010425434447824955,-0.00041067542042583227
1772733773581637400,3.994637451171875,0.00023752544075250626,-0.0011349143460392952,0.0014990774216130376
1772733773591652400,4.00465234375,-0.001493755728006363,-0.0001789929810911417,-0.0007730898214504123
1772733773601667300,4.014667236328125,-0.0003318185918033123,0.0007760166190564632,-0.0005477864178828895
1772733773611683000,4.02468310546875,0.0001681661233305931,0.0006499642040580511,0.00018536567222326994
1772733773621698000,4.034697998046875,-0.0011434408370405436,-0.00039639207534492016,-0.0000553840072825551
1772733773631713000,4.044713134765625,-0.00009862706065177917,-0.0004148888401687145,0.00025143695529550314
1772733773641727000,4.05472705078125,-0.0010304669849574566,-0.0006252788007259369,0.0004362603649497032
1772733773651742000,4.064741943359375,-0.00056256796233356,-0.0003740477841347456,0.00021261721849441528
1772733773661757000,4.0747568359375,0.0003381134010851383,0.0003804254811257124,0.0007612283807247877
1772733773671772000,4.08477197265625,0.00026529841125011444,0.0013266236055642366,-0.00029895995976403356
1772733773681787100,4.094787109375,0.000036532990634441376,0.0008315418381243944,-0.000006278511136770248
1772733773691802000,4.104802001953125,-0.0013391252141445875,-0.0005462819244712591,0.00024689408019185066
1772733773701817000,4.114817138671875,0.0002997838892042637,-0.0005161880981177092,-0.00008200632873922586
1772733773711832000,4.12483203125,-0.00010172370821237564,0.0003366644959896803,0.0017939973622560501
1772733773721847000,4.134846923828125,-0.001333701889961958,0.0006213563028723001,-0.0007937961490824819
1772733773731862000,4.144862060546875,-0.00028464850038290024,0.0009401307906955481,0.0016075316816568375
1772733773741877000,4.154876953125,-0.0013555055484175682,-0.0005621584132313728,0.0013896850869059563
1772733773751891200,4.16489111328125,-0.00024268962442874908,-0.0003204324748367071,0.0013874301221221685
1772733773761906000,4.174906005859375,0.0017733233980834484,-0.0003816853277385235,0.0011338971089571714
1772733773771921000,4.1849208984375,0.0005870433524250984,-0.000425317557528615,-0.00027702999068424106
1772733773781935900,4.194935791015625,-0.0008420087397098541,0.00012382632121443748,-0.00023042468819767237
1772733773791950800,4.204950927734375,-0.0005635474808514118,-0.0015787477605044842,0.00006943591870367527
1772733773801965800,4.2149658203125,-0.0011169523932039738,-0.0006828601472079754,-0.0004924910608679056
1772733773811981000,4.22498095703125,-0.0008153032977133989,0.00009955582208931446,-0.0007729674689471722
1772733773821996000,4.23499609375,0.0004358496516942978,0.0001634717918932438,0.0012976402649655938
1772733773832011000,4.245010986328125,-0.00019958848133683205,-0.0005960615817457438,-0.0003873963141813874
1772733773842026000,4.25502587890625,-0.0009458060376346111,0.00021673529408872128,-0.0004073700401932001
1772733773852041000,4.265041015625,0.0008346154354512691,0.00022799265570938587,-0.001194497337564826
1772733773862055200,4.27505517578125,0.0011054589413106441,0.0002658094745129347,0.0006846291944384575
1772733773872070100,4.285070068359375,0.0006476733833551407,-0.000026969239115715027,0.000795688945800066
1772733773882085000,4.295085205078125,-0.00011026207357645035,-0.0013186025898903608,0.0019203417468816042
1772733773892100000,4.30510009765625,0.0011760988272726536,0.0013155872002243996,0.00041530781891196966
1772733773902115000,4.315114990234375,0.0007161712273955345,-0.0015459794085472822,0.0010771031957119703
1772733773912130000,4.325130126953125,0.0008707460947334766,0.0005584598984569311,-0.0005598493153229356
1772733773922145000,4.33514501953125,0.00017566094174981117,-0.0005619321018457413,0.0019144936231896281
1772733773932160300,4.34516015625,-0.0016370536759495735,0.000018393388018012047,0.00013036467134952545
1772733773942175000,4.355175048828125,0.0006932122632861137,-0.00013367296196520329,-0.000013712327927350998
1772733773952190000,4.36518994140625,-0.00046265171840786934,-0.0006741555407643318,-0.0010431837290525436
1772733773962205000,4.375204833984375,-0.0003422768786549568,-0.0008070473559200764,-0.0018525184132158756
1772733773972219000,4.385218994140625,-0.00033432338386774063,0.00029431795701384544,-0.0003974970313720405
1772733773982234000,4.395234130859375,-0.00015216320753097534,0.0008309448603540659,-0.0008683439227752388
1772733773992249000,4.4052490234375,0.00009060418233275414,-0.00006994232535362244,0.0011544432491064072
1772733774002264000,4.41526416015625,0.00007648952305316925,0.0004174159839749336,0.000454564462415874
1772733774012279000,4.425279052734375,-0.0019287553150206804,-0.00003502308391034603,0.0013179313391447067
1772733774022294000,4.4352939453125,-0.0014206240884959698,0.0016417030710726976,0.0017094160430133343
1772733774032309000,4.44530908203125,0.00009222887456417084,-0.0016193785704672337,0.0015350192552432418
1772733774042324000,4.455323974609375,-0.000033206306397914886,-0.0015589245595037937,0.0002084987936541438
1772733774052339200,4.465339111328125,-0.0004981972742825747,0.001597962575033307,-0.00029093271587044
1772733774062354200,4.475354248046875,0.00016919104382395744,-0.000383695587515831,-0.0005471288459375501
1772733774072369200,4.485369140625,-0.0011889655143022537,-0.00028984458185732365,-0.0008065825677476823
1772733774082384100,4.495384033203125,0.00029548071324825287,-0.001382539514452219,-0.0003905968042090535
1772733774092397800,4.505397705078125,-0.00129005778580904,-0.0003039620351046324,-0.0017774896696209908
1772733774102413000,4.5154130859375,0.0006575118750333786,0.0004076345358043909,-0.0006911862292326987
1772733774112428000,4.525427978515625,-0.00004122592508792877,0.000274397898465395,0.0016490219859406352
1772733774122443000,4.535443115234375,-0.00037784921005368233,0.0008001057431101799,-0.00016246025916188955
1772733774132458000,4.5454580078125,0.0005191112868487835,0.00009979191236197948,0.0006069863447919488
1772733774142473000,4.555472900390625,-0.0002372264862060547,-0.0008799848146736622,-0.00016559666255488992
1772733774152488000,4.565488037109375,-0.0013118917122483253,0.0001229606568813324,-0.00039071496576070786
1772733774162503000,4.5755029296875,-0.000736382557079196,-0.00030474294908344746,0.0013243608409538865
1772733774172518000,4.585517822265625,0.00008290959522128105,0.00020100921392440796,0.001974422251805663
1772733774182533000,4.595533203125,-0.0011416119523346424,-0.000741749769076705,0.000667875399813056
1772733774192548000,4.605548095703125,0.00028058839961886406,-0.0011749197728931904,0.0011380197247490287
1772733774202562000,4.61556201171875,-0.001239011064171791,0.0005899569950997829,-0.00014003121759742498
1772733774212577000,4.625576904296875,0.0000062659382820129395,-0.0007295999675989151,-0.0010746269254013896
1772733774222592000,4.635592041015625,-0.00037669669836759567,0.0010038514155894518,-0.001132151228375733
1772733774232607200,4.645607177734375,0.00038820644840598106,0.0009367989841848612,-0.0004286770708858967
1772733774242622200,4.655622314453125,-0.0013790673110634089,0.00013838335871696472,-0.0010531883453950286
1772733774252637000,4.665636962890625,-0.000600544735789299,0.00019974936731159687,0.0005500297993421555
1772733774262652000,4.67565185546875,-0.00018748827278614044,0.0016932501457631588,0.0009838588302955031
1772733774272667000,4.6856669921875,0.0007602204568684101,-0.000733652152121067,0.0003047449281439185
1772733774282681900,4.695681884765625,0.0009056287817656994,-0.00023324391804635525,0.00027758069336414337
1772733774292696800,4.70569677734375,0.0021997042931616306,-0.00007361825555562973,0.0003184407250955701
1772733774302712000,4.715712158203125,0.000821518711745739,0.0008028282318264246,0.0002907438902184367
1772733774312726000,4.72572607421875,-0.0008998033590614796,0.000016680685803294182,-0.0005591355147771537
1772733774322741000,4.735740966796875,0.0002932930365204811,-0.0009276764467358589,-0.0007183925481513143
1772733774332756000,4.745755859375,0.00008260132744908333,-0.000614094315096736,0.00039798778016120195
1772733774342771000,4.75577099609375,0.0005838084034621716,-0.00018612435087561607,0.0005226236535236239
1772733774352786200,4.7657861328125,-0.0007617096416652203,-0.00032888632267713547,-0.0005165556794963777
1772733774362801200,4.77580126953125,0.0006811912171542645,0.001422142144292593,0.0009891956578940153
1772733774372816100,4.785816162109375,0.0025197318755090237,-0.0005140330176800489,0.0004733733367174864
1772733774382831000,4.7958310546875,-0.0004590137396007776,-0.0006490552332252264,0.0004004026995971799
1772733774392846000,4.80584619140625,0.00007498124614357948,-0.0013335233088582754,0.00006084376946091652
1772733774402861000,4.815861083984375,-0.0013926869723945856,-0.0012618841137737036,-0.00037751253694295883
1772733774412876000,4.8258759765625,0.0018851379863917828,0.0004039097111672163,0.0013540126383304596
1772733774422890000,4.835889892578125,-0.0009010613430291414,0.0011091148480772972,0.0018688016571104527
1772733774432905000,4.845905029296875,0.0010723648592829704,-0.0024371203035116196,-0.0009965056087821722
1772733774442920000,4.855919921875,-0.0009140868205577135,-0.0010538743808865547,-0.00030408374732360244
1772733774452935000,4.865934814453125,-0.00021827500313520432,-0.000044286251068115234,0.0014003627002239227
1772733774462950000,4.875949951171875,0.0003218138590455055,-0.0003268476575613022,-0.0006084597553126514
1772733774472965000,4.885965087890625,0.000025860033929347992,-0.0011608847416937351,0.000759991118684411
1772733774482980000,4.89597998046875,0.0006375880911946297,-0.0009696697816252708,0.0005764993838965893
1772733774492995000,4.9059951171875,0.0001632622443139553,-0.0005092944484204054,-0.00024038058472797275
1772733774503010000,4.916010009765625,-0.00011823372915387154,-0.000008620088919997215,0.0004395244177430868
1772733774513025000,4.92602490234375,-0.00018040649592876434,0.00046218628995120525,0.00020425557158887386
1772733774523040000,4.9360400390625,-0.0013804268091917038,0.0007708466146141291,0.0011925547150895
1772733774533054200,4.94605419921875,0.00045095477253198624,-0.0012985758949071169,0.0001414216822013259
1772733774543069200,4.956069091796875,-0.0002683652564883232,-0.00032252748496830463,0.000846626702696085
1772733774553084200,4.966084228515625,0.00022316351532936096,0.00014498084783554077,-0.00017328711692243814
1772733774563099000,4.976098876953125,-0.00037791207432746887,0.000326608307659626,0.0019907974638044834
1772733774573113900,4.98611376953125,-0.0006306055001914501,0.0005139620043337345,-0.0001766858040355146
1772733774583128800,4.99612890625,0.0009723510593175888,-0.0006053647957742214,-0.0009956078138202429
1772733774593144000,5.00614404296875,0.0006687715649604797,0.0006568552926182747,-0.0014678756706416607
1772733774603159000,5.016158935546875,0.00012069288641214371,0.00015032198280096054,0.0011907580774277449
1772733774613173800,5.026173828125,0.0004768301732838154,0.00012898934073746204,-0.00011692231055349112
1772733774623188500,5.0361884765625,0.0003556562587618828,-0.00005343719385564327,0.0001320833107456565
1772733774633202400,5.046202392578125,-0.0006792314816266298,-0.0002940194681286812,0.0011247236980125308
1772733774643217700,5.0562177734375,0.00027098413556814194,-0.0009446297772228718,0.000008060131222009659
1772733774653232600,5.066232666015625,0.0006491346284747124,-0.001170649193227291,-0.0012437873519957066
1772733774663247600,5.07624755859375,0.0021713972091674805,-0.0012827683240175247,-0.0007311288500204682
1772733774673262600,5.0862626953125,-0.0014990945346653461,0.0010204613208770752,0.0001390428515151143
1772733774683277600,5.096277587890625,0.00025939056649804115,0.000549880787730217,-0.000507306307554245
1772733774693292500,5.10629248046875,0.00027309637516736984,0.000812063692137599,0.0015939552104100585
1772733774703307500,5.1163076171875,0.0008217077702283859,0.00014547468163073063,0.0025718682445585728
1772733774713322800,5.12632275390625,-0.0014251735992729664,0.0023131519556045532,0.002338904421776533
1772733774723337700,5.136337646484375,-0.0002789488062262535,-0.0002567986957728863,0.00127124332357198
1772733774733352700,5.146352783203125,-0.0005520898848772049,-0.0009599833283573389,-0.0007294249953702092
1772733774743366700,5.15636669921875,-0.00021599885076284409,0.000028582289814949036,0.0012322594411671162
1772733774753381400,5.16638134765625,-0.0004507575649768114,0.0002858205698430538,0.0003559674369171262
1772733774763396600,5.176396728515625,-0.0008827224373817444,-0.0013083477970212698,0.00030882947612553835
1772733774773411600,5.18641162109375,-0.001367403194308281,-0.0000744042918086052,-0.001457582926377654
1772733774783426600,5.196426513671875,-0.0006281097885221243,0.0005250731483101845,0.000006889342330396175
1772733774793441500,5.206441650390625,0.00019547250121831894,0.0003835405223071575,0.00005870498716831207
1772733774803456500,5.21645654296875,0.0002620513550937176,-0.001341122668236494,-0.00030801224056631327
1772733774813471500,5.226471435546875,0.0009483029134571552,-0.0013202826958149672,-0.0009803978027775884
1772733774823486500,5.236486572265625,0.0001791822724044323,-0.00011972966603934765,0.0009099140297621489
1772733774833501700,5.246501708984375,0.00028748391196131706,-0.0002001929096877575,0.00020604208111763
1772733774843516700,5.2565166015625,-0.0006076046265661716,-0.0002459990791976452,-0.00007412245031446218
1772733774853530600,5.266530517578125,-0.0005814319010823965,-0.0004146173596382141,0.000975537346675992
1772733774863545600,5.276545654296875,-0.00007463246583938599,-0.00022393511608242989,0.0008314603473991156
1772733774873560600,5.286560546875,-0.0000857403501868248,0.0010553929023444653,-0.00026641564909368753
1772733774883575600,5.296575439453125,-0.00048068701289594173,0.0005563164595514536,0.001436675782315433
1772733774893590800,5.3065908203125,0.0006260895170271397,-0.0011639997828751802,-0.0004332776879891753
1772733774903605800,5.316605712890625,0.0009970678947865963,-0.0011480210814625025,-0.0006537873996421695
1772733774913620700,5.326620849609375,-0.000010791700333356857,-0.00068131391890347,0.0006989071844145656
1772733774923635700,5.3366357421875,-0.0006997513119131327,-0.0003649303689599037,0.0001700033899396658
1772733774933650400,5.346650390625,0.0006402884609997272,0.0007256856188178062,0.0018016871763393283
1772733774943665400,5.35666552734375,0.0018304549157619476,-0.0015204243827611208,0.00033108959905803204
1772733774953680600,5.3666806640625,-0.00005491822957992554,-0.00020733848214149475,-0.0003067516372539103
1772733774963694600,5.376694580078125,-0.0008235063869506121,0.001044347183778882,-0.00009423145093023777
1772733774973709600,5.38670947265625,-0.0003320113755762577,-0.0014894003979861736,-0.0013733603991568089
1772733774983724500,5.396724609375,-0.00037621986120939255,-0.0011296076700091362,0.00035156903322786093
1772733774993739500,5.406739501953125,0.0009743031114339828,0.0013558890204876661,-0.002296844497323036
1772733775003754500,5.41675439453125,-0.0017474472988396883,0.0005185911431908607,-0.00022224208805710077
1772733775013769700,5.426769775390625,-0.00048119365237653255,-0.00033579650335013866,0.0000685025006532669
1772733775023784700,5.43678466796875,-0.000878004590049386,0.0006189467385411263,0.0007614570204168558
1772733775033799700,5.446799560546875,0.0008082836866378784,-0.0007687376346439123,0.0009984049247577786
1772733775043814700,5.456814697265625,0.0011345208622515202,0.0000608367845416069,0.0023912382312119007
1772733775053829600,5.46682958984375,0.00003277091309428215,-0.0012494383845478296,0.0005659075686708093
1772733775063844600,5.4768447265625,0.001148320734500885,-0.0006138223689049482,0.00008162332233041525
1772733775073858600,5.486858642578125,-0.0003085802309215069,0.00008075498044490814,0.00034362205769866705
1772733775083873500,5.49687353515625,-0.001389557495713234,-0.0008907660376280546,0.00034042622428387403
1772733775093888500,5.506888427734375,0.00019583618268370628,-0.0007830029353499413,-0.0001799978781491518
1772733775103903500,5.516903564453125,0.0007148864679038525,-0.0005190835800021887,-0.00015576311852782965
1772733775113918500,5.52691845703125,-0.0007240693084895611,-0.0015684880781918764,-0.0006248460849747062
1772733775123933400,5.536933349609375,-0.00009369896724820137,-0.0001205273438245058,-0.0016179388621822
1772733775133948700,5.54694873046875,0.000049909111112356186,-0.00023261015303432941,-0.0021768654696643353
1772733775143963600,5.556963623046875,-0.0007916500326246023,0.0001442271750420332,-0.0000018617138266563416
1772733775153978600,5.566978515625,-0.000796870794147253,-0.00014274916611611843,-0.00034528912510722876
1772733775163993600,5.57699365234375,0.00026493147015571594,-0.0007480857893824577,0.001442224602214992
1772733775174008600,5.587008544921875,-0.0007333168759942055,-0.0006230692379176617,-0.00009631435386836529
1772733775184022800,5.597022705078125,-0.000588707160204649,-0.0014944551512598991,-0.0016710414784029126
1772733775194037800,5.607037841796875,-0.00018949713557958603,-0.0012989859096705914,0.0003477344289422035
1772733775204052700,5.617052734375,0.0011982759460806847,-0.0022247005254030228,0.0005053934874013066
1772733775214067700,5.627067626953125,0.0016522211953997612,0.0012112108524888754,0.0005781049840152264
1772733775224082700,5.637082763671875,0.0004223734140396118,-0.0007547347340732813,0.00012829701881855726
1772733775234097700,5.64709765625,-0.001041593262925744,-0.00021486706100404263,-0.00019343500025570393
1772733775244112400,5.6571123046875,-0.0002900492399930954,0.0005097792018204927,-0.001909842249006033
1772733775254127600,5.667127685546875,-0.0009998520836234093,0.00021248520351946354,-0.0014572972431778908
1772733775264142600,5.677142578125,-0.0004507082048803568,0.00043965294025838375,0.00034459750168025494
1772733775274157600,5.687157470703125,-0.0003821970894932747,-0.00033158366568386555,-0.0005528234178200364
1772733775284172500,5.697172607421875,-0.0001257346011698246,-0.0004993628244847059,0.0004914019955322146
1772733775294186500,5.7071865234375,0.0003402004949748516,0.0016427128575742245,0.0006508619990199804
1772733775304201700,5.71720166015625,-0.00026913080364465714,0.0004890314303338528,-0.0008471660548821092
1772733775314216700,5.727216796875,-0.0005843956023454666,-0.0002488270401954651,0.0008701580809429288
1772733775324231700,5.737231689453125,-0.00022513512521982193,0.00016582710668444633,-0.000027593574486672878
1772733775334246700,5.74724658203125,0.00009118719026446342,0.0014425271656364202,0.0022106661926954985
1772733775344261600,5.75726171875,0.0011916053481400013,0.0006076262798160315,0.001148065086454153
1772733775354276600,5.767276611328125,0.00028618983924388885,-0.00002496154047548771,-0.0008723648497834802
1772733775364291600,5.77729150390625,0.00036954693496227264,-0.000056919408962130547,-0.001597543596290052
1772733775374306600,5.787306640625,0.0013107694685459137,0.0013226314913481474,-0.0011877448996528983
1772733775384321800,5.79732177734375,0.0005810633301734924,-0.001641999464482069,-0.00041196600068360567
1772733775394336800,5.807336669921875,0.000995100475847721,-0.001276602502912283,-0.0005902711418457329
1772733775404350500,5.8173505859375,0.0007679327391088009,-0.0005431680474430323,-0.0003372709034010768
1772733775414365400,5.827365478515625,-0.000128104817122221,-0.0004540644586086273,-0.001555943046696484
1772733775424380400,5.83738037109375,-0.0010729942005127668,-0.0009731145109981298,0.00008882512338459492
1772733775434395600,5.847395751953125,-0.0008164062164723873,0.00020694988779723644,0.00028286478482186794
1772733775444410600,5.85741064453125,-0.000800959998741746,0.00035209208726882935,-0.00038212654180824757
1772733775454425600,5.867425537109375,0.0006561405025422573,-0.0007473891600966454,0.0015844693407416344
1772733775464440600,5.877440673828125,0.001261743251234293,0.0005085577722638845,0.00034024042543023825
1772733775474455600,5.88745556640625,0.000689131673425436,0.0009044196922332048,0.0010589120211079717
1772733775484470500,5.897470458984375,-0.002553799655288458,-0.0009483415633440018,0.0003462501335889101
1772733775494485500,5.907485595703125,-0.00005373125895857811,-0.00015633576549589634,-0.0011993704829365015
1772733775504499700,5.917499755859375,0.00022057443857192993,0.0015922957099974155,-0.0025322826113551855
1772733775514514700,5.9275146484375,-0.0008530269842594862,-0.000013339333236217499,-0.0021749772131443024
1772733775524529700,5.93752978515625,-0.0004370412789285183,-0.0007552958559244871,-0.0010471285786479712
1772733775534544600,5.947544677734375,0.0011902381666004658,-0.000430527376011014,-0.0022785200271755457
1772733775544559600,5.9575595703125,0.0005406932905316353,-0.0014574425294995308,-0.0006286916905082762
1772733775554574600,5.96757470703125,-0.0005321323405951262,-0.0011948526371270418,0.0015826772432774305
1772733775564589600,5.977589599609375,-0.00010469509288668633,0.0003178231418132782,0.0027565984055399895
1772733775574604500,5.9876044921875,-0.00011644605547189713,-0.001073682913556695,0.00034999696072191
1772733775584619500,5.99761962890625,0.0006486801430583,-0.00010003126226365566,0.0014070055913180113
1772733775594634500,6.007634521484375,-0.00031561823561787605,-0.0002879919484257698,0.0011313437717035413
1772733775604649500,6.0176494140625,0.001308910083025694,-0.0010547160636633635,0.0018131131073459983
1772733775614664000,6.027663818359375,-0.0002517444081604481,-0.0006957598961889744,0.0027164355851709843
1772733775624679000,6.037678955078125,-0.0005462903063744307,0.0004818898160010576,0.0021957873832434416
1772733775634694000,6.04769384765625,0.0003719688393175602,0.0004216087982058525,0.0023187552578747272
1772733775644708900,6.057708984375,-0.0009462961461395025,-0.00014085066504776478,0.00006359058897942305
1772733775654723800,6.067723876953125,0.001495435368269682,-0.000046233879402279854,-0.00015077495481818914
1772733775664738800,6.07773876953125,0.0006493488326668739,0.00010210438631474972,-0.002313528209924698
1772733775674753800,6.08775390625,-0.002590735210105777,0.00047080800868570805,-0.0017532099736854434
1772733775684769000,6.09776904296875,0.0014801728539168835,0.0010947866830974817,-0.0031572284642606974
1772733775694784000,6.107783935546875,-0.0012857557740062475,-0.00042630056850612164,-0.003007686696946621
1772733775704799000,6.117799072265625,-0.0001344713382422924,0.0010421662591397762,-0.001380761619657278
1772733775714814000,6.12781396484375,0.0006097564473748207,-0.00026516919024288654,0.00014247186481952667
1772733775724827600,6.13782763671875,0.00040655722841620445,0.001039779745042324,0.00033022474963217974
1772733775734843000,6.1478427734375,0.0008346247486770153,-0.0015848248731344938,0.0031643337570130825
1772733775744857900,6.15785791015625,0.0007571266032755375,-0.0008710974361747503,0.0014034516643732786
1772733775754872800,6.167872802734375,0.00041557149961590767,-0.0011534581426531076,0.0027509566862136126
1772733775764887800,6.1778876953125,-0.00040681264363229275,-0.000274348771199584,0.0018761081155389547
1772733775774902800,6.18790283203125,0.00047692516818642616,-0.0006717236246913671,0.0008546903263777494
1772733775784917800,6.197917724609375,-0.00005890289321541786,-0.00011911755427718163,-0.0002590436488389969
1772733775794932700,6.2079326171875,-0.0015592293348163366,-0.00021624215878546238,-0.001568335690535605
1772733775804948000,6.217947998046875,-0.000004209578037261963,0.0001313001848757267,-0.0020730046089738607
1772733775814963000,6.227962890625,-0.0008721037302166224,0.0001199822872877121,-0.0032339051831513643
1772733775824978000,6.23797802734375,0.00023497221991419792,0.000007863389328122139,-0.0010080351494252682
1772733775834991900,6.247991943359375,0.00008271262049674988,-0.0005664292257279158,0.0003721520770341158
1772733775845006800,6.2580068359375,0.0006997669115662575,-0.0003049068618565798,-0.0002520928392186761
1772733775855022000,6.26802197265625,-0.002334067365154624,-0.00010252348147332668,0.0010388371301814914
1772733775865037000,6.278037109375,-0.0004709197673946619,0.0005219876766204834,-0.00040512881241738796
1772733775875052000,6.288052001953125,-0.0018989418167620897,-0.00004321872256696224,0.001167312148027122
1772733775885066800,6.298066650390625,-0.0002610976807773113,-0.0005470889154821634,0.0011044616112485528
1772733775895081700,6.308081787109375,0.0014645983465015888,-0.001011069631204009,0.0009799416875466704
1772733775905096700,6.3180966796875,-0.0012145417276769876,-0.0008555410895496607,0.00013705110177397728
1772733775915111700,6.328111572265625,0.00004192022606730461,-0.00007727090269327164,-0.00042856507934629917
1772733775925127000,6.338126953125,0.0013191723264753819,-0.0009686308912932873,-0.0009358972311019897
1772733775935140900,6.348140869140625,-0.0005028231535106897,-0.00011375988833606243,-0.001197936711832881
1772733775945155800,6.35815576171875,-0.0003627410624176264,-0.0015361541882157326,-0.003303964389488101
1772733775955170800,6.3681708984375,0.0013985182158648968,-0.0006147879175841808,-0.0015927928034216166
1772733775965185800,6.378185791015625,0.0010517742484807968,0.00007603620178997517,-0.0017334077274426818
1772733775975200800,6.38820068359375,0.00029064295813441277,0.0006152056157588959,0.00010581116657704115
1772733775985216000,6.398216064453125,0.001529012806713581,-0.00004818779416382313,-0.0006489287479780614
1772733775995231000,6.40823095703125,-0.00018182815983891487,-0.0006209665443748236,-0.0009480325388722122
1772733776005246000,6.418245849609375,-0.0009011479560285807,0.0007710678037256002,-0.0009211346041411161
1772733776015261000,6.428260986328125,0.00009596720337867737,-0.00016389531083405018,0.00038621388375759125
1772733776025276000,6.43827587890625,-0.00034984597004950047,-0.0018190497066825628,0.0023524255957454443
1772733776035291000,6.448290771484375,0.0012558987364172935,-0.000334535026922822,0.001132530509494245
1772733776045304800,6.458304931640625,-0.0005332131404429674,0.0009829308837652206,0.0002078810939565301
1772733776055319800,6.46831982421875,0.00028052693232893944,-0.00025665690191090107,0.00031847378704696894
1772733776065334800,6.478334716796875,-0.0006483837496489286,-0.0004915476310998201,0.0004239350091665983
1772733776075349800,6.488349853515625,-0.0006911046802997589,-0.0011214788537472486,-0.0008012965554371476
1772733776085364700,6.49836474609375,0.00035205576568841934,-0.00023651053197681904,-0.0003464285982772708
1772733776095379700,6.508379638671875,0.0008922433480620384,-0.0010453439317643642,-0.0002562542213127017
1772733776105395000,6.51839501953125,-0.0003341424744576216,0.006552654318511486,0.005353428423404694
1772733776115410000,6.528409912109375,-0.0003590318374335766,-0.0033403232228010893,0.04078865051269531
1772733776125425000,6.5384248046875,0.0007198145613074303,0.0006291181780397892,0.07981248199939728
1772733776135440000,6.54843994140625,0.001281552016735077,-0.006856156513094902,0.10172520577907562
1772733776145454800,6.558454833984375,-0.00008571520447731018,-0.0016494106967002153,0.1155608594417572
