time,seconds_elapsed,z,y,x
1772785649506929400,0.051929443359375,-0.592079757720232,0.036820860462263225,-0.2916581201119348
1772785649516946400,0.061946533203125,-0.24268881242275236,-0.12257613996341823,-0.48654272310212254
1772785649526962400,0.07196240234375,0.006976268753409385,-0.3659035425506532,-0.5060291485343128
1772785649536979500,0.0819794921875,0.2882967173874378,-0.40110524084586646,-0.48415188244283197
1772785649546995500,0.091995361328125,0.3870505216062069,-0.30101631556581704,-0.4327655036745593
1772785649557011500,0.102011474609375,0.37270050921440123,-0.06077858608961105,-0.2431251945460215
1772785649567028500,0.112028564453125,0.605630728688836,0.20160740843918173,-0.11226771284630521
1772785649577044500,0.12204443359375,0.8772785090923308,0.31943624427765605,-0.0883742115615867
1772785649587061500,0.1320615234375,1.5292349356263875,0.5161990987624973,-0.27844971550330516
1772785649597077200,0.1420771484375,1.8221528830736875,0.34856629450898613,-0.09139955073213205
1772785649607094500,0.152094482421875,1.5594132162690162,0.02585124775636941,0.07324442413605284
1772785649617110500,0.162110595703125,1.3065122219115495,-0.023354882629681377,0.017242190169356762
1772785649627127300,0.172127197265625,0.9179156399071215,0.038364573639770964,0.00028893647659569975
1772785649637143300,0.182143310546875,0.44993221745491024,0.27167545386170966,-0.032750323087722064
1772785649647160600,0.19216064453125,0.09284311887025833,0.5446028074806556,0.046222895057871936
1772785649657176600,0.202176513671875,-0.2197650329530239,0.6022676819965243,0.20431005499400198
1772785649667193300,0.212193359375,-0.8491291039288044,0.251497502501402,0.3761932467009872
1772785649677209300,0.222209228515625,-0.6016033728688955,0.07288799821408465,0.4077303215414285
1772785649687225300,0.232225341796875,0.24737667797803878,-0.09777341487929224,0.4756971386346966
1772785649697242600,0.24224267578125,0.7462421454280614,-0.6579734948664904,0.6203199099071324
1772785649707258400,0.25225830078125,0.12266191855072975,-0.5977278100771829,0.1777104365557432
1772785649717275400,0.262275390625,-0.40463527813553807,0.010894355512596666,-0.4652595504462719
1772785649727291400,0.27229150390625,-0.6197481013685464,0.5609615658789873,-0.9695671358849852
1772785649737308400,0.282308349609375,-1.2031453709393738,0.7304007254347205,-0.9445017412766814
1772785649747324400,0.292324462890625,-1.1969693126529455,0.5856542547173798,-0.7345625943545252
1772785649757341400,0.302341552734375,-0.7693880432158708,0.20927198825031518,-0.4175047696460038
1772785649767357400,0.312357421875,-0.24175299287736415,-0.38853352670557795,0.10819712067283689
1772785649777374500,0.32237451171875,0.6368617332547902,-0.9703902157709002,0.5056665257669986
1772785649787390500,0.332390380859375,1.5408762735813855,-1.2616468058772385,0.658476622083038
1772785649797407500,0.342407470703125,1.9977146171629427,-1.3692737985119223,0.8101246888823807
1772785649807423200,0.35242333984375,0.9553332241535186,-1.3096674710720777,0.9837707255434245
1772785649817439500,0.362439453125,-0.17203531352877616,-0.8334626751761883,0.7538456792343408
1772785649827456500,0.37245654296875,-0.11046937645375728,0.04805785540007054,0.4599549412321299
1772785649837472500,0.382472412109375,0.17096330038309096,0.3597163783483207,-0.005816613856889307
1772785649847489300,0.3924892578125,0.46550037346482276,-0.036107013104483485,-0.4168904736725613
1772785649857505500,0.402505615234375,0.6503396389871835,-0.45230661843605335,-0.7386683491729199
1772785649867522600,0.4125224609375,0.8300111464828253,-0.7044508761420846,-0.8209178855754434
1772785649877538600,0.42253857421875,1.0681646535634994,-0.795361565645039,-0.5001248929265886
1772785649887555300,0.432555419921875,1.0574217257529497,-0.5373537496678531,-0.2141095827409066
1772785649897571300,0.4425712890625,1.0391121620804071,0.1106342116266489,0.14575493537383152
1772785649907588600,0.452588623046875,0.9742103585809468,0.3200720579631626,0.7272662998665124
1772785649917604400,0.462604248046875,0.6216384451597928,0.04636719889938831,1.0581848921451718
1772785649927620400,0.472620361328125,1.0573515831261873,-0.08188442941717804,-0.38239772736430166
1772785649937637400,0.482637451171875,0.3956500076472759,0.5269439993344247,-0.6010589272612705
1772785649947653600,0.492653564453125,0.43297874456644053,0.7700226147923618,-0.033489633680321276
1772785649957670400,0.50267041015625,-0.03785013044476509,0.3799026956781745,0.4339927073819563
1772785649967686400,0.512686279296875,-1.305218674969673,0.3279775703907013,0.9092040717937052
1772785649977703400,0.522703369140625,-1.7546195620268583,0.5484651089319958,0.6729899352777748
1772785649987719400,0.532719482421875,-2.0005162305802107,0.4765648248473182,0.3404846217969432
1772785649997736400,0.542736328125,-2.7552456338465214,0.2968010907572694,0.08318674418739974
1772785650007752400,0.55275244140625,-2.645072609990835,0.06645472289673052,-0.45012196787334974
1772785650017769200,0.562769287109375,-1.2289520123690365,-0.30397567682806403,-0.5443673182243481
1772785650027785000,0.572784912109375,0.11589140150249004,-0.15979801897462456,-0.43053431055638935
1772785650037802200,0.58280224609375,0.5093161343157291,0.12140831089359708,-0.9800471749756484
1772785650047818200,0.592818359375,0.6632523120522499,0.05712684494929853,-1.5507548396475612
1772785650057834200,0.602834228515625,0.8535340608894825,-0.3961202189749107,-1.8039285134665668
1772785650067851000,0.61285107421875,-0.5712275238275527,-0.31657654399760066,-0.46320035289414224
1772785650077867000,0.622866943359375,-0.9933996276974677,0.09232925106398761,0.6474034394048154
1772785650087884300,0.63288427734375,-0.6284305895179509,0.1340336640504189,0.9751936705298722
1772785650097900000,0.642900146484375,-0.598967179146409,0.01602472240468487,0.9403042165216058
1772785650107917000,0.6529169921875,0.36046938867270945,-0.10283942956458776,0.46274676390774544
1772785650117933000,0.66293310546875,1.2234686125218868,-0.3231026943633333,-0.18713678360870106
1772785650127950000,0.6729501953125,1.517805194595456,-0.15719293277645482,-0.43087534254640336
1772785650137966000,0.682966064453125,1.8695020787477492,0.22522088720612227,-0.11150357833970337
1772785650147983000,0.692983154296875,1.5966244642883538,0.5100042992429807,0.7245419164039194
1772785650157999000,0.7029990234375,1.6302350574672222,0.4390670515041798,1.399988962510228
1772785650168015000,0.71301513671875,1.8381372186690568,0.137179369064467,0.9831531051017344
1772785650178032000,0.7230322265625,1.293506609866023,0.12942346684122458,0.38871604366563256
1772785650188048100,0.733048095703125,0.9588234043568372,0.1950867196998559,0.020673406727053225
1772785650198065200,0.743065185546875,0.4532324280440807,0.2915011394519359,0.18392342931907624
1772785650208081000,0.753080810546875,0.11928221298456192,0.44137211357615885,0.416459571442008
1772785650218098200,0.76309814453125,0.44902971565723415,0.6537631836950779,0.11313837646730243
1772785650228114200,0.7731142578125,0.5365647912472487,0.7540983388211577,0.06363171049840748
1772785650238131000,0.783130859375,0.4740454989701509,0.7110451598405838,-0.0636480771113187
1772785650248147000,0.79314697265625,0.5044833073318005,0.4768851793754846,-0.2522477180805057
1772785650258164200,0.803164306640625,1.0610165353745222,0.30603942269114776,-0.3934801162622869
1772785650268180200,0.81318017578125,1.9242659345924853,0.40783151689358055,-0.1067133118558675
1772785650278196200,0.8231962890625,2.5915625535994766,0.3418251862183213,-0.15740874921791254
1772785650288213000,0.833212890625,2.8250182582527397,0.25924860981851816,-0.2819050435889512
1772785650298229200,0.843229248046875,3.215208831450343,0.059134001786937,-0.4218350904678926
1772785650308246000,0.85324609375,3.504487545612454,-0.213792260420043,-0.5314369633721188
1772785650318262000,0.863261962890625,3.515039919286966,-0.40495194286927577,-0.5351690991051494
1772785650328279000,0.873279052734375,3.228890150800347,-0.37301118259876964,-0.6405014779966324
1772785650338295300,0.88329541015625,2.5768390317201613,-0.08760746497279033,-0.9187908883716911
1772785650348312000,0.89331201171875,2.3763187974631785,-0.19912160123912617,-0.710773868618533
1772785650358328000,0.903328125,1.2705284698605537,-0.565668245732598,-0.7804237434279173
1772785650368345000,0.913344970703125,-0.20050386764407158,-0.8554002200875431,-0.9278881678670644
1772785650378361300,0.923361328125,-1.297893446648121,-1.1186720210075378,-0.9958343074984848
1772785650388377000,0.933377197265625,-2.3084604822456836,-1.226440175678581,-1.0089537551820278
1772785650398394000,0.94339404296875,-3.3782319864839314,-1.3711889844834804,-0.777941863484308
1772785650408410000,0.95341015625,-2.892025509598851,-0.9821958774421363,-0.4712424973133951
1772785650418427100,0.96342724609375,-2.328750990602374,-0.7195823943004012,-0.022576135075837372
1772785650428443100,0.973443115234375,-1.4270844747066498,-0.6143527451310307,0.004817812077887356
1772785650438460200,0.983460205078125,-1.5288900677114725,-0.8133055839408189,0.12573544424455613
1772785650448476200,0.99347607421875,-2.507377957481146,-0.9099608084451407,0.15185224760193378
1772785650458493000,1.003492919921875,-2.4858599531561136,-0.4017300582133233,-0.1396130898842588
1772785650468509200,1.01350927734375,-2.875401122534275,0.06637904557832516,0.6146323657900095
1772785650478525200,1.023525146484375,-4.439073165291547,0.48511108286380766,1.2241539644375443
1772785650488542000,1.0335419921875,-5.96781417992115,0.9374073991015552,1.373463066895306
1772785650498558000,1.043557861328125,-7.654014285716414,0.39178569690193976,0.6946409183327108
1772785650508575200,1.0535751953125,-7.33788555855155,0.18862932372139765,-0.4428298015711829
1772785650518591200,1.06359130859375,-6.772613728258014,0.44080300845131276,-1.697530185844004
1772785650528608000,1.07360791015625,-6.184517487215995,1.2067349929291755,-2.415171382948756
1772785650538624000,1.0836240234375,-6.350748498380184,1.821588527189195,-2.4043220721542835
1772785650548641300,1.093641357421875,-6.62972384519279,2.2910747554197908,-1.7348733896799384
1772785650558657300,1.1036572265625,-8.613582370960712,1.8887071299552916,-1.1925197128329426
1772785650568674000,1.113674072265625,-9.781146140909195,1.2116223996445536,-0.34505437739789485
1772785650578690000,1.12368994140625,-10.132338582670688,1.1263856641247867,0.5846103716876357
1772785650588706000,1.1337060546875,-10.163850157743692,0.9934279039438814,0.3939375046409666
1772785650598723000,1.14372314453125,-10.202352614617347,0.8597830382816493,0.19509514046832918
1772785650608739000,1.153739013671875,-10.250064798384905,0.7380815622609108,-0.02816518725454807
1772785650618756000,1.163756103515625,-10.309989982515573,0.6324919937379658,-0.28598785592317577
1772785650628772000,1.173772216796875,-10.383098473346232,0.5468645784001797,-0.573797082054615
1772785650638789000,1.1837890625,-9.188032948487997,-0.4102878970697522,2.863173216862976
1772785650648805000,1.19380517578125,-4.807707740241288,-0.3289959536530077,2.84784500708878
1772785650658822100,1.203822265625,-0.5827461121857166,0.22861717858090996,3.4670100478723644
1772785650668838100,1.213838134765625,2.670237446385622,0.32991496819406746,2.4606617990136144
1772785650678854100,1.223854248046875,4.032494351872802,-0.43224633863866324,0.6561249443903565
1772785650688871200,1.23387109375,4.898944008436799,-0.7244955199789256,-1.5592466275304555
1772785650698887200,1.24388720703125,5.99067833815813,0.12784465495087205,-4.267525927540659
1772785650708904000,1.253904052734375,7.2669181714028115,-0.009239902836456895,-7.625208462470769
1772785650718920000,1.263919921875,7.863870503595471,-0.4711369180470705,-8.282484038200973
1772785650728937200,1.273937255859375,11.693706440138817,0.006261617678031325,-6.774841341179609
1772785650738953200,1.283953125,15.14218918993473,1.3841761840894817,-6.4120946552246805
1772785650748970000,1.293969970703125,18.51473319391012,2.5284566936060786,-4.896086865440011
1772785650758986000,1.303986083984375,19.684658432292938,2.570377142229676,-2.8150656040370463
1772785650769003300,1.314003173828125,18.203070798504353,1.45712466205284,-1.7333973257780073
1772785650779019000,1.32401904296875,15.038635291957855,-0.4109310172788799,-2.211138902787119
1772785650789035000,1.334034912109375,13.245453067302703,-2.3438877694576976,-1.7846993507310747
1772785650799052000,1.344052001953125,11.747031203091144,-3.3560049571067094,-0.7374791393883526
1772785650809068300,1.354068359375,11.211809058624505,-4.024105878233909,0.017111156801367176
1772785650819085000,1.3640849609375,10.727055703157186,-4.0964150353804225,0.22960829024380072
1772785650829101000,1.37410107421875,9.999928008043765,-4.049355762563645,-0.7183974953647703
1772785650839118000,1.3841181640625,8.92782367694378,-4.236505935376882,-1.7844697797589002
1772785650849134000,1.394134033203125,8.31408621416688,-3.2045044820845123,-1.100301009471342
1772785650859151000,1.404151123046875,8.869480793568492,-1.6029486988738177,0.03120024410150945
1772785650869167000,1.4141669921875,9.989386740285157,-0.47372189303897316,-0.1660913104325533
1772785650879183000,1.42418310546875,8.897934734636545,-0.6333980757322162,0.5750969126068055
1772785650889200000,1.4342001953125,6.904044059675932,-1.043530928370729,0.6168472653605044
1772785650899216100,1.444216064453125,6.855237650930881,-1.3390782744735479,0.309005451156199
1772785650909233200,1.454233154296875,7.076639345175027,-1.706842204068601,0.6454582966864109
1772785650919249200,1.464249267578125,7.624432801923155,-1.1544603966169058,0.9725732588984072
1772785650929266200,1.47426611328125,7.515057065925002,-0.19959913735669105,1.2138957514040172
1772785650939282200,1.4842822265625,7.712922986280918,0.9936545523066073,1.246813393882662
1772785650949299200,1.49429931640625,8.189729766657948,2.2005179939210415,0.9128492964282632
1772785650959315000,1.50431494140625,5.095191972202063,2.3106796195998784,-0.2371843697875738
1772785650969331000,1.5143310546875,-2.1297306395143267,1.7970216566875576,-0.7623300875283777
1772785650979348200,1.52434814453125,-8.695672040626405,1.7229763233982025,-1.7589575912311672
1772785650989364200,1.5343642578125,-14.610094237577915,0.018451894752681254,-4.539799146366119
1772785650999381000,1.544381103515625,-14.623913504093885,0.0728805638263002,-4.479818724916875
1772785651009397000,1.55439697265625,-14.608022692000866,0.10610511682964861,-4.529491395102441
1772785651019414800,1.564414794921875,-14.576152220487593,0.12005286856349556,-4.642956446240842
1772785651029430500,1.574430419921875,-14.544038587868213,0.1437607841482386,-4.761346094299853
1772785651039447800,1.58444775390625,-14.517798231196403,0.20184297076072544,-4.856189154815674
1772785651049463800,1.5944638671875,-14.50137316609621,0.2926548943306319,-4.910529816812277
1772785651059479800,1.604479736328125,-8.867613246130944,2.6311998597219586,1.9109283141136169
1772785651069496600,1.61449658203125,-6.430072210463881,2.1584425008662045,0.004601064054667949
1772785651079512600,1.6245126953125,-4.509072584190965,0.7217857495635748,-2.8852345342844723
1772785651089529900,1.63452978515625,-3.266946032950282,-0.9794613379117101,-6.190913325732946
1772785651099545600,1.644545654296875,-2.917013235861063,-2.0084430780567226,-8.149349240952729
1772785651109562600,1.654562744140625,-3.3615099842637775,-1.853422466084361,-7.43268331862092
1772785651119578600,1.66457861328125,-4.849877487450838,-0.5645858938559889,-5.665623377215862
1772785651129595600,1.674595703125,-8.138838368332385,0.8556350517567247,-3.6872114264160394
1772785651139611600,1.684611572265625,-12.014980713498591,1.7921470363885164,-2.1391016944497823
1772785651149627600,1.694627685546875,-14.77724528619647,2.0923867050260303,-1.4513491473913191
1772785651159644700,1.704644775390625,-14.751476054167746,2.04281997943297,-1.5616361530154943
1772785651169661000,1.714660888671875,-14.719044441640376,2.000720228719711,-1.706069027739018
1772785651179677700,1.724677734375,-14.681466698396205,1.9432421454802153,-1.8902822703175246
1772785651189693700,1.734693603515625,-14.64106220729351,1.858564212886989,-2.119777108515799
1772785651199710700,1.744710693359375,-8.868370786499977,-0.5767462872490287,-3.3753727976605292
1772785651209726700,1.754726806640625,-7.873025285431742,-0.4854775780886411,-3.3287288276463745
1772785651219743700,1.76474365234375,-8.832185374397039,-0.6113870271932333,-3.099386403530836
1772785651229759700,1.774759765625,-10.094555087721346,-0.8078248144421726,-2.690575301015377
1772785651239775700,1.784775634765625,-10.09868999556899,-0.9241367063790559,-3.020307606118917
1772785651249792500,1.79479248046875,-10.106278258740902,-0.9802055073425173,-3.3212390564128755
1772785651259808800,1.804808837890625,-8.793695192483067,-1.3000215447179972,1.3720866639755664
1772785651269825800,1.81482568359375,-4.69768844564259,-0.8330126663863658,3.0943010630905627
1772785651279841500,1.824841552734375,-0.644016281184554,-0.3704008539699018,4.238697015680373
1772785651289858600,1.834858642578125,1.2790735953658818,-0.2363978225197643,4.23887003415972
1772785651299874800,1.844874755859375,3.964432038515806,-0.07895451344512402,4.078515221552551
1772785651309890800,1.854890869140625,6.950886474871635,0.003587503097951412,3.1019594688892362
1772785651319907600,1.864907470703125,10.239538728195429,0.1416978237364441,1.3290192372739313
1772785651329923600,1.874923583984375,12.467258032774925,0.8283042694997041,-1.3838517744407057
1772785651339940900,1.88494091796875,13.840697426533698,1.7265037668719887,-2.9806948499158024
1772785651349956900,1.894956787109375,15.11633695579767,3.3844667892202733,-3.784602417849004
1772785651359973600,1.9049736328125,15.929558880043029,4.616256363102793,-4.644690430426597
1772785651369989600,1.91498974609375,16.827214991253612,4.072342378136516,-4.33517761427015
1772785651380007000,1.9250068359375,17.803192359507083,2.957539307516813,-2.99648658554852
1772785651390022700,1.935022705078125,17.369738983166215,1.4372794132456184,-2.0912368043385445
1772785651400038700,1.94503857421875,16.519357833349705,0.059441090408153825,-1.894797555784881
1772785651410055700,1.9550556640625,14.4800918931365,-0.6880698693793267,-1.3585953142397105
1772785651420071700,1.96507177734375,12.509016276574133,-1.3509073900856077,-0.8300034015677868
1772785651430088700,1.975088623046875,10.561213983571529,-1.5968322618201374,-0.7064436573944985
1772785651440104700,1.985104736328125,8.824819229543209,-1.6801228317081927,-0.41471802500430494
1772785651450121700,1.995121826171875,7.205858430284262,-1.7558251384243369,-0.5217658660441636
1772785651460137700,2.0051376953125,5.928001224970817,-2.0444895200803876,-0.7138629937402904
1772785651470154800,2.01515478515625,5.721811128383875,-2.6154195222660896,-1.0152697333957998
1772785651480170800,2.025170654296875,6.094015378513932,-3.265423645688593,-1.316434042597562
1772785651490186800,2.035186767578125,6.919705154666304,-3.4675314413979645,-1.3053814643159507
1772785651500203500,2.04520361328125,7.3349623645812265,-3.1285537535652517,-0.9820462398383766
1772785651510219800,2.0552197265625,7.054998591253161,-2.2229405458703635,-0.3027587387863546
1772785651520236800,2.06523681640625,6.940031903380155,-1.3381404091015456,-0.18459179356731473
1772785651530252800,2.075252685546875,7.337933489346503,-0.6844301246374845,-0.06122391870431602
1772785651540269600,2.08526953125,8.345676699694991,-0.08237199373841285,0.06744593502432107
1772785651550285600,2.09528564453125,9.536565231129526,0.2668389188170433,-0.09707096569836139
1772785651560301800,2.1053017578125,10.323817432337998,0.5192871279057115,0.04386860528299585
1772785651570318600,2.115318603515625,10.867775840967893,0.7542254723321646,-0.29100720018884163
1772785651580334600,2.12533447265625,10.01651790831685,1.2460901941746472,-1.4373323124766348
1772785651590351600,2.1353515625,7.669095534992217,1.9502131535366176,-3.2338392976403236
1772785651600367900,2.145367919921875,5.676168152105808,2.8764260816678404,-5.321331800884008
1772785651610384600,2.155384521484375,3.6500428484946488,3.3386241987168788,-5.563446612811088
1772785651620400600,2.165400634765625,0.8553963476300239,2.7360575337737796,-4.2186917540058495
1772785651630417700,2.175417724609375,-4.3783582920879125,2.1719088622912763,-2.889225942008197
1772785651640433700,2.18543359375,-10.695123272323608,0.6705211340114474,-2.893647850103676
1772785651650449700,2.19544970703125,-18.219940100240706,-1.7329796848878263,-3.538272910836339
1772785651660466700,2.205466796875,-18.219142812383176,-1.8573999914132058,-3.6311446712791917
1772785651670482700,2.215482666015625,-18.204762404853103,-1.9589400653496383,-3.812719382047653
1772785651680499700,2.225499755859375,-18.186222539556024,-1.987250652424246,-3.9811113706380126
1772785651690515700,2.235515625,-18.16758213649392,-1.9348149472661316,-4.0788896078228944
1772785651700532700,2.24553271484375,-18.15423516366482,-1.8418379728831349,-4.093196657855809
1772785651710548700,2.255548828125,-7.119462003335356,1.4041691708043216,5.753437854269147
1772785651720564500,2.265564453125,-4.84522995390594,-0.8912126341596245,1.4227031908825039
1772785651730581800,2.275581787109375,-5.0696244002252815,-3.473105149877071,-3.9868338399380443
1772785651740597800,2.28559765625,-6.208209328448772,-4.831106443746387,-7.060916875386238
1772785651750614500,2.295614501953125,-7.942349581548571,-3.7796909726709127,-7.573990900930762
1772785651760630500,2.305630615234375,-10.188812749564647,-2.5592358627513048,-7.43553578544259
1772785651770647800,2.315647705078125,-10.91709195280075,0.05479432404823601,-7.323772862046956
1772785651780663800,2.325663818359375,-10.910269413304329,-0.01990187436528504,-7.400500712418555
1772785651790679800,2.3356796875,-10.90086445609927,-0.10913016373924911,-7.508750659257173
1772785651800696600,2.345696533203125,-10.894015028595923,-0.20182978248558936,-7.616493825617432
1772785651810712600,2.355712646484375,-10.889532914745807,-0.29467662768289443,-7.722578118854761
1772785651820729900,2.365729736328125,-10.883729781424998,-0.38308468671515583,-7.8491943279892205
1772785651830745600,2.37574560546875,-10.875655196040869,-0.47181116404682394,-8.0163553134799
1772785651840762600,2.3857626953125,-10.868010818767546,-0.5683141205988824,-8.230471526890993
1772785651850778600,2.395778564453125,-10.866156715333462,-0.6812438958168029,-8.483621527573465
1772785651860795600,2.405795654296875,-7.373014155077934,0.818576290885359,1.7739932477995752
1772785651870811600,2.415811767578125,-5.533543641978502,0.4174062046423554,3.278527749672532
1772785651880827600,2.42582763671875,-4.485086728447675,-0.20182561776712535,3.4460879636138677
1772785651890844700,2.4358447265625,-5.342645807069539,-0.8777420349508523,2.408957623000443
1772785651900860700,2.445860595703125,-6.3182011505186555,-1.8218410406455396,0.9888616920068859
1772785651910877700,2.455877685546875,-6.569008971989154,-3.007018500956893,-0.22107691926918924
1772785651920893700,2.465893798828125,-4.028669240626693,-3.1983293005809186,-0.2877259317621588
1772785651930910500,2.475910400390625,-0.8436182315528392,-2.0837309587530792,0.8513644617654382
1772785651940926700,2.4859267578125,1.3868775520026684,-0.6054292147673667,2.030452957551926
1772785651950942700,2.495942626953125,3.6162189048260447,0.4016057011812925,2.3534373958304524
1772785651960959700,2.505959716796875,5.755974094748496,0.527388382101059,0.6357635627545416
1772785651970975700,2.515975830078125,7.390993463882803,0.6056872811816633,-3.390331589600444
1772785651980992800,2.52599267578125,10.272857644951342,0.7356507549174129,-7.556075889533758
1772785651991008800,2.5360087890625,15.102974785399436,1.042684613739699,-8.517629011115432
1772785652001025800,2.54602587890625,18.569442104697227,1.637807246287167,-6.1192731538891785
1772785652011041500,2.55604150390625,18.015555007249116,1.8668762602888047,-3.423921139991283
1772785652021057300,2.566057373046875,15.140865832376479,1.7001966285742818,-1.0131121900357305
1772785652031074300,2.57607421875,12.684379857742785,1.5598084991969168,1.050392703898996
1772785652041090300,2.58609033203125,11.013816297018527,1.590037633243948,1.8997507942780851
1772785652051107300,2.596107421875,8.80098418044746,1.3189590310305357,1.739451803511381
1772785652061123300,2.606123291015625,11.026671102416515,0.11298384349271655,-0.09589878011383116
1772785652071140400,2.616140380859375,13.964634771847724,-1.2114116064380853,-0.9158797501653432
1772785652081156400,2.62615625,15.713871471792459,-2.7773849849402903,-1.7817533604070543
1772785652091172400,2.63617236328125,15.502827505433558,-3.659503335279226,-2.5439766265600916
1772785652101189400,2.646189453125,13.92027657468319,-4.178653173606097,-2.7137711754247547
1772785652111205400,2.656205322265625,11.898339370411634,-4.246110799068212,-2.572493988253176
1772785652121222100,2.66622216796875,9.246088831615447,-3.449182422497868,-2.10454227611348
1772785652131238400,2.67623828125,5.911516538637876,-2.460583765341341,-2.0297474396310746
1772785652141255400,2.68625537109375,3.7786411713570356,-1.3598831620931624,-2.0790105061024424
1772785652151271400,2.696271484375,4.664953466254472,-0.6388660588145255,-1.895264734905213
1772785652161288200,2.7062880859375,7.44154233238101,-0.2984108457751572,-1.1093034502901136
1772785652171304400,2.716304443359375,10.144405452561378,-0.33193763312809166,0.21480755667611956
1772785652181320400,2.726320556640625,10.115262360185383,-0.6335856341935694,1.1555439540699124
1772785652191337500,2.73633740234375,7.91064686781764,-1.1101234614361077,1.7748361283645033
1772785652201353200,2.746353271484375,5.390849573746324,-0.22830058691240845,2.3532471339553593
1772785652211370500,2.75637060546875,3.6653152364283796,1.5969941743835805,0.9904086291879415
1772785652221386500,2.766386474609375,5.271168716832995,2.9225977579951286,-3.1734874125301835
1772785652231403300,2.7764033203125,8.97748874834478,3.1912969177260995,-7.9437232079893345
1772785652241419300,2.786419189453125,11.017779355430603,1.2954802480265497,-10.51309380352497
1772785652251435300,2.796435302734375,10.284321288251876,-1.124922459704429,-7.079498826259374
1772785652261452500,2.80645263671875,5.31649722033441,-0.8004631996329873,-0.882057048605755
1772785652271468300,2.81646826171875,-2.6726936073660847,-0.8734327203843743,0.7281660982504486
1772785652281485300,2.8264853515625,-10.96651444761753,-1.583063556447625,-1.55291567094326
1772785652291501300,2.836501220703125,-20.615857916665075,-2.8546669620633125,-5.314778141456842
1772785652301518300,2.846518310546875,-20.617260769200325,-2.9548510913461445,-5.432833442994952
1772785652311534300,2.856534423828125,-20.601969676566124,-2.9945696460112927,-5.6717100036531685
1772785652321550300,2.86655029296875,-20.57549317305088,-2.909333202752471,-5.8905281111449
1772785652331567400,2.8765673828125,-20.547604464650153,-2.7339433180987833,-5.993970365440845
1772785652341583400,2.886583251953125,-5.005222947463393,-2.498382165598869,3.985659535461664
1772785652351600400,2.896600341796875,-1.8860855492800472,-2.6342624621629716,3.6699700764968988
1772785652361616400,2.906616455078125,-1.9714947187572716,-2.3452084966674445,3.0867963865488766
1772785652371632400,2.91663232421875,-6.15355010202229,-1.2728091281436382,2.141383375646174
1772785652381649200,2.926649169921875,-11.586201174187659,0.19399127087965606,-0.26864647969566285
1772785652391665400,2.93666552734375,-15.180575911474227,1.7638311886169016,-3.888915902021527
1772785652401682400,2.946682373046875,-15.18179873126745,1.8145839091241358,-3.8396272627174852
1772785652411698400,2.956698486328125,-15.179738876128196,1.8778756470784543,-3.816335818979144
1772785652421715200,2.966715087890625,-15.175677618038653,1.9196362289652227,-3.8276089081436395
1772785652431731500,2.9767314453125,-7.616925202772021,3.4504163482069967,-5.5331981895416975
1772785652441748500,2.98674853515625,-5.776900562921166,4.90554384509325,-2.115953750835359
1772785652451764200,2.99676416015625,-6.893548969146609,4.6959746274620295,-0.01892901074513793
1772785652461780200,3.0067802734375,-9.351656407502293,3.8640100088238714,0.5202526119370013
1772785652471797500,3.016797607421875,-11.695264775496721,3.655868778169155,1.6412055104233323
1772785652481813500,3.0268134765625,-11.709755073142052,3.503542665977776,1.4040870454788208
1772785652491830300,3.036830322265625,-11.727241629993914,3.386573113849759,1.116086315363273
1772785652501846300,3.04684619140625,-11.752827322149276,3.2918466654509304,0.7858372198440134
1772785652511862300,3.0568623046875,-9.421426109299063,0.986030560234189,3.400023547053337
1772785652521879600,3.066879638671875,-4.287493195292353,-1.390295689883083,3.2589445128023624
1772785652531895300,3.076895263671875,-1.0275012192636728,-2.741114817163348,3.1853023534864184
1772785652541912300,3.086912353515625,-1.724737049460411,-3.494952240025997,2.46344032381624
1772785652551928300,3.09692822265625,-3.831018424326181,-3.896505334237218,1.7311003008820116
1772785652561945300,3.1069453125,-4.398676272973418,-3.5677772377401586,1.2771372204758227
1772785652571961300,3.11696142578125,-2.85504456320405,-2.9292145457863805,0.04548471697643399
1772785652581977300,3.126977294921875,1.8538199409693479,-1.7594507815755902,-1.3174828209981322
1772785652591994400,3.136994384765625,8.80144887534976,0.040985944252461194,-2.0067877120651305
1772785652602010400,3.14701025390625,15.004751727056503,1.2609459641315042,-2.591225868991017
1772785652612027400,3.15702734375,18.726547560119627,1.179747325021401,-4.581846143978834
1772785652622043400,3.16704345703125,18.4257420742929,0.8395446254383772,-6.486214953446388
1772785652632060400,3.177060302734375,16.45996222605109,1.0282035223141313,-6.6484320527940985
1772785652642076200,3.187076171875,15.329832406961916,0.8608660112127661,-6.145776545411348
1772785652652092400,3.197092529296875,15.500496432137489,1.218193886989355,-5.301850855344534
1772785652662109400,3.207109375,14.980540830385683,2.392620236183703,-2.7526819208383557
1772785652672125400,3.21712548828125,13.93340259823799,3.2074604092806576,0.2665001883819699
1772785652682142200,3.22714208984375,13.190174832195042,3.212328892099857,1.6987084358431397
1772785652692158500,3.237158447265625,11.838326507997513,2.008318428763747,1.6299465959146617
1772785652702175500,3.247175537109375,10.457788680410385,-0.14144706384576855,0.44261210369989273
1772785652712191200,3.257191162109375,9.239541601929067,-1.632547718323767,-0.5825908485587686
1772785652722207200,3.267207275390625,8.493860597515106,-2.217369613870233,-1.0803200785204767
1772785652732224500,3.277224609375,8.165551603212952,-2.3915201659873127,-1.4412360419169068
1772785652742240500,3.287240478515625,7.669766566121578,-2.0826848107010125,-1.7064562734909354
1772785652752257300,3.29725732421875,7.131954989683628,-1.725484945218265,-1.6022370434731243
1772785652762273300,3.307273193359375,7.738401126408577,-1.4302835630089044,-0.8766780589811504
1772785652772290600,3.31729052734375,8.995006284856796,-0.6287549261014909,-0.05245042780321091
1772785652782306600,3.327306640625,9.57490168378651,-0.10218743192926048,0.4344872129006311
1772785652792322300,3.337322265625,8.861728864267468,-0.35994507253766056,0.6852760739423335
1772785652802339300,3.34733935546875,7.379348618796468,-0.9092098439473658,1.1456442721504718
1772785652812355300,3.357355224609375,5.954897415202856,-1.1067584419824181,1.5960855351060628
1772785652822372400,3.367372314453125,6.076677874743938,-0.621844342995435,1.7779715037807822
1772785652832388400,3.377388427734375,6.762618988466262,-0.38653373119048773,2.08144460138157
1772785652842404400,3.387404296875,9.215893599838019,-0.08965016804784535,2.4167522223994133
1772785652852421400,3.39742138671875,11.8886667021811,0.3083109660860151,2.611751062886417
1772785652862437400,3.407437255859375,12.430160766524075,0.45527211717814203,2.114991043283045
1772785652872454400,3.417454345703125,10.404843856686353,0.4627672952391207,1.2764260034665464
1772785652882470400,3.427470458984375,7.710614709338546,0.845580471536517,-0.4961125154800713
1772785652892487200,3.437487060546875,4.151594778549671,1.0500456440269947,-3.7438510130047797
1772785652902503200,3.447503173828125,1.794353606522083,-0.044516748727113004,-6.046850891757011
1772785652912519400,3.45751953125,-2.0680033743977546,-0.09139438136667012,-5.7907624995350835
1772785652922536400,3.467536376953125,-5.629768804502487,0.4027399659082293,-6.055416475528478
1772785652932552400,3.477552490234375,-8.979302519768476,1.4540614750899374,-4.997564541664719
1772785652942569200,3.4875693359375,-19.703924273777005,0.5732635596998036,-6.665783585089445
1772785652952585500,3.49758544921875,-19.669725067055225,0.3570342996574938,-6.920979996907711
1772785652962602500,3.5076025390625,-19.600344656836985,0.237065565713495,-7.26035691319108
1772785652972618200,3.5176181640625,-19.522009371268748,0.2938749559111893,-7.513111777076125
1772785652982634200,3.52763427734375,-19.455579627549646,0.4536617593720555,-7.6410606961190695
1772785652992651500,3.537651611328125,-9.406430200219154,1.4499518478140234,2.5766654287189246
1772785653002667500,3.54766748046875,-3.421320017582178,1.7118221844382584,2.0102628408297893
1772785653012684300,3.557684326171875,-4.291100864395499,0.7931732618205248,-1.4561395965382455
1772785653022700800,3.56770068359375,-11.2386736846745,1.0070724714800714,-6.290452727371454
1772785653032716800,3.577716796875,-15.219148510974644,1.7106521177455782,-8.962830692917109
1772785653042733800,3.58773388671875,-15.226455034595727,1.8006489072740077,-8.881455893522501
1772785653052749800,3.597749755859375,-15.222660318487883,1.9061780508466064,-8.83466374720931
1772785653062766800,3.607766845703125,-8.926221502444147,2.9518168382167813,-4.216904286067187
1772785653072782800,3.617782958984375,-5.473741207444667,2.5815698596343397,-2.183321652187407
1772785653082799900,3.6277998046875,-5.721490810388326,2.6839894928842782,0.07927548902779817
1772785653092816000,3.63781591796875,-9.233357360336184,3.597178104269504,0.7539194020576775
1772785653102831900,3.647831787109375,-13.002496543854475,4.089195897781849,0.33693566061109304
1772785653112848600,3.6578486328125,-12.97941611251831,3.9552871935516594,0.08671703720539808
1772785653122864600,3.66786474609375,-12.94224519650936,3.9182740984529256,-0.1689626280851662
1772785653132882000,3.6778818359375,-12.887807503879069,3.9812499023258683,-0.44502910171374677
1772785653142898000,3.68789794921875,-12.827411195105313,4.101023113697767,-0.7529662660513072
1772785653152914000,3.697913818359375,-8.426130877113343,-0.8779895799711346,-1.4560500185586511
1772785653162930700,3.7079306640625,-3.507178684392571,-2.7598136724144218,-1.202295256916061
1772785653172947000,3.717947021484375,-0.4443441881895065,-3.433613681966066,-1.2723039551004767
1772785653182964000,3.7279638671875,2.3825679209858177,-2.950250904074311,-1.4542217802181838
1772785653192979700,3.737979736328125,4.507744550457597,-2.3073759018793703,-0.5626721691891551
1772785653202996700,3.747996826171875,6.197820036381483,-1.2766212337777019,0.07661343021169305
1772785653213013000,3.758012939453125,7.449409412494301,-0.0719320674624294,0.38904140316247937
1772785653223029000,3.768029052734375,8.00320883165896,0.8973949760563671,0.5248262765280902
1772785653233045800,3.778045654296875,9.159514125490189,1.5126868286684154,-0.1067559088885784
1772785653243061800,3.788061767578125,10.664000988829136,1.3181560440845788,-1.526034532149881
1772785653253079000,3.7980791015625,11.381451339536905,1.15341519841291,-3.939014104142785
1772785653263094800,3.8080947265625,11.415684448528289,2.0999336132742465,-7.5669064956277605
1772785653273110800,3.81811083984375,13.391447930645942,2.6298911152109503,-8.552755269554257
1772785653283127800,3.8281279296875,17.712832289624213,1.9747053513668475,-7.7759227555513375
1772785653293143800,3.838143798828125,19.952565857124327,1.0181821867763996,-6.7827008225083345
1772785653303160800,3.848160888671875,18.73799483680725,0.43190534318126733,-4.636645071136951
1772785653313176800,3.8581767578125,16.897744571506976,0.4664634828759357,-1.81859519059211
1772785653323193900,3.86819384765625,13.729977290189266,0.3754513422925025,-0.11695566973313688
1772785653333209900,3.8782099609375,9.813360311293602,-0.09622892538364976,0.354533495817706
1772785653343225600,3.8882255859375,6.873302884453535,-0.8492149555813521,0.0848755009919405
1772785653353243000,3.898242919921875,5.054117034491896,-1.755666148470342,-0.8285392472993582
1772785653363259000,3.9082587890625,4.785593523588776,-2.3187276092380285,-1.7335504705131053
1772785653373275600,3.918275634765625,5.855940781888365,-2.739199338930845,-2.2156541882544754
1772785653383291600,3.928291748046875,7.105147646778821,-3.008389204788208,-2.287344775111228
1772785653393308000,3.938307861328125,7.938308781725167,-2.8714088380277154,-1.9843872258171438
1772785653403325000,3.948324951171875,8.444607614046335,-2.4883418330997227,-1.5198298322908579
1772785653413341000,3.9583408203125,8.236077676334977,-1.7103350146204233,-0.940005891162157
1772785653423357700,3.968357666015625,7.652308650842309,-0.6829116828985512,-0.2682606587158516
1772785653433374000,3.9783740234375,7.505621129059791,0.11030368276434019,0.016295433671423235
1772785653443390700,3.988390625,8.369895195150375,0.6044084568848833,0.9900465909425169
1772785653453406700,3.99840673828125,10.472904416477679,1.0607211326245218,2.327873477115482
1772785653463422700,4.008422607421875,12.639310881960391,1.4465582598529756,3.9195071473792193
1772785653473440000,4.01843994140625,14.075411022293567,1.9316003691338002,5.253084778609872
1772785653483456000,4.0284560546875,14.031536809253693,2.491125618599355,6.023121056601405
1772785653493472800,4.03847265625,11.671458367973566,3.30262758718431,5.714840704849362
1772785653503488800,4.04848876953125,8.858733774104714,4.1022886035889385,4.962765030962228
1772785653513504800,4.0585048828125,7.013918977367878,4.480977539563178,3.094910134899616
1772785653523521800,4.068521728515625,6.507627159309386,3.9503444764524698,-0.15579466508477927
1772785653533537800,4.078537841796875,7.050218955761194,2.5960841226771474,-4.584048622459173
1772785653543554800,4.088554931640625,7.886843382903933,0.5035121607447043,-8.762747681033611
1772785653553570800,4.09857080078125,5.564377756181359,0.32444212627355007,-8.27683872579038
1772785653563586800,4.1085869140625,-1.794051993227005,2.2456680721156297,-6.436170527338981
1772785653573603800,4.118603759765625,-11.106666430151462,2.7549586335986853,-6.926431832572818
1772785653583619800,4.128619873046875,-19.80013657681942,1.1265203964203596,-8.232176577243209
1772785653593636900,4.138636962890625,-19.786935734462737,0.9225310247480869,-8.393528584194183
1772785653603652600,4.148652587890625,-19.74714616038799,0.7195069909766316,-8.720019130897521
1772785653613668900,4.1586689453125,-19.714197830510138,0.6071593995608389,-9.004935558196902
1772785653623686000,4.168685791015625,-19.695217235708235,0.6026465983115137,-9.130532361155748
1772785653633702000,4.178701904296875,-19.68944449752569,0.643480128481239,-9.124286160242557
1772785653643718700,4.18871875,-19.690559765291212,0.6753150902897119,-9.083614542636274
1772785653653735000,4.19873486328125,-19.692612606167792,0.6928238589733838,-9.052892656636237
1772785653663752000,4.208751953125,-19.69181064213514,0.7216239831306039,-9.02983852878511
1772785653673767700,4.218767578125,-19.681261191070078,0.7711058069191873,-9.048977529019117
1772785653683783700,4.22878369140625,-19.658679941427707,0.8031501736946404,-9.166278212797641
1772785653693801000,4.238801025390625,-19.632509727382658,0.7941593502484261,-9.369300785264372
1772785653703817000,4.24881689453125,-19.61061587548256,0.782534963428229,-9.57676864670217
1772785653713833700,4.258833740234375,-19.594113653492926,0.789104551076889,-9.74173066084385
1772785653723849700,4.268849609375,-19.5824512727499,0.7997858118280768,-9.869880070894956
1772785653733865700,4.27886572265625,-19.574083257377147,0.8002646813862025,-9.996182391774655
1772785653743883000,4.288883056640625,-19.567863944470883,0.7895908732891083,-10.147358457148075
1772785653753898800,4.298898681640625,-19.56219642022848,0.7869388974756002,-10.322906747233867
1772785653763915800,4.308915771484375,-19.556452908140418,0.8060292362622916,-10.516667570358514
1772785653773931800,4.318931884765625,-8.626498551157116,5.063889655965566,6.483007681837678
1772785653783947800,4.32894775390625,-6.25707594294846,2.7548405601769685,5.450132368320227
1772785653793964800,4.33896484375,-4.74742950488925,-0.10237754767388105,3.9315868767514823
1772785653803980800,4.348980712890625,-4.158500320154428,-2.5927842043489218,3.161800774128735
1772785653813997800,4.358997802734375,-3.62184200540483,-4.241180941450596,2.505146545167267
1772785653824013800,4.369013916015625,-2.786621015319228,-5.445328767430782,0.2254945165157318
1772785653834030800,4.37903076171875,-0.9893909765779971,-5.33330164014101,-1.703171991123259
1772785653844046800,4.389046875,1.9508301163911819,-3.991827410441637,-2.9561215496733784
1772785653854062800,4.399062744140625,7.966910606831312,-1.2986363739699125,-2.4298962200023233
1772785653864079600,4.40907958984375,13.581120607674121,2.0055805282324553,-0.8118903833806514
1772785653874095900,4.419095947265625,16.95624001509547,2.7409464748591184,-0.9501252802468836
1772785653884113000,4.42911279296875,18.275555019956826,2.2991639538511635,-2.796104590718448
1772785653894129000,4.43912890625,17.039045724076033,1.6624429442413151,-5.2786839147686955
1772785653904144600,4.44914453125,15.133181707614659,1.592739439548552,-6.674397099655867
1772785653914162000,4.459161865234375,14.140547803592682,1.9753280133098363,-6.409625634762644
1772785653924178000,4.469177978515625,14.165856432372331,1.774193154285848,-5.109852950239182
1772785653934194700,4.479194580078125,14.569734170138835,1.5919979735314844,-3.4479771383613347
1772785653944210700,4.489210693359375,14.59820389329791,1.0847579879026858,-2.060424755837023
1772785653954226700,4.499226806640625,14.092649741864204,0.49060843817107375,-1.2790128050893543
1772785653964244000,4.509243896484375,13.038726379621028,0.09869606441585346,-0.6070055972386151
1772785653974260000,4.519260009765625,11.21728369064331,-0.25485965414457024,-0.36410409191325305
1772785653984276700,4.52927685546875,9.098964671981333,-0.7414810685060917,-0.5502604313835502
1772785653994292700,4.539292724609375,7.21253893096149,-1.2302981662809849,-0.9413947882372885
1772785654004308700,4.549308837890625,6.028430268925428,-1.6784591362796724,-1.6066091210775075
1772785654014325800,4.55932568359375,5.7341930555731055,-2.2400673294991256,-2.1521585982911287
1772785654024341500,4.569341552734375,6.03370440993607,-2.6066560778349634,-2.4132168878801163
1772785654034358500,4.579358642578125,6.891987711179256,-2.875565373185277,-2.505691319568455
1772785654044374800,4.589374755859375,7.661088169625401,-2.9274840687319634,-2.3645668387405574
1772785654054390800,4.599390869140625,8.253850064390898,-2.428592736188322,-1.9101314646475016
1772785654064407600,4.609407470703125,8.516256553718447,-1.6076514697372912,-0.9321142611294985
1772785654074423600,4.619423583984375,8.763840152445434,-0.9876854878343642,0.2919329732642509
1772785654084440800,4.62944091796875,8.891981963711977,-0.39614436703547834,1.2402592960640788
1772785654094456600,4.63945654296875,8.533245097920299,0.06423362191431224,1.896038641887158
1772785654104472600,4.64947265625,8.373909106966853,0.17190010630916802,2.376247193531692
1772785654114489600,4.659489501953125,8.623437410020827,-0.06598682225719094,2.386749736715108
1772785654124505600,4.669505615234375,9.157259624561666,-0.36418150453101844,2.184166870839894
1772785654134522600,4.679522705078125,9.17221169449985,-0.7329193571921437,1.9782953386828301
1772785654144538600,4.68953857421875,8.55030378474891,-1.0499550431340932,1.5477888294488191
1772785654154554600,4.6995546875,7.07490039255321,-1.1177629433386027,0.7555240607753395
1772785654164571600,4.709571533203125,5.027452899450063,-0.7368882608231156,0.42535091656912116
1772785654174587600,4.719587646484375,3.4671365968614816,-0.11787110407762229,0.40922446908932175
1772785654184604700,4.729604736328125,3.3534272155731912,0.26510018539093433,0.05683441504109651
1772785654194620700,4.73962060546875,3.969540175309777,0.7859163494948297,-0.9130257489737122
1772785654204636700,4.74963671875,4.500210063299536,1.2128534027442335,-2.872592202593386
1772785654214653400,4.7596533203125,-0.22421558262109756,1.4769279714144765,-7.21686380842328
1772785654224669700,4.769669677734375,-15.447195050060747,-0.8547149412371218,-11.293491316533087
1772785654234686700,4.779686767578125,-27.360957615053653,-1.6202129912771284,-8.740353478395939
1772785654244702500,4.789702392578125,-27.413847493720052,-1.8829757466964423,-9.16553411643207
1772785654254718500,4.799718505859375,-27.45846521860361,-1.9962924754053353,-9.522025833645463
1772785654264735700,4.80973583984375,-27.47649888794422,-1.9590289126768707,-9.766580439940094
1772785654274751700,4.819751708984375,-27.474981469118593,-1.8504818825878202,-9.90797336244583
1772785654284768500,4.8297685546875,-27.464350184988973,-1.7297583847537636,-9.973692327547072
1772785654294784500,4.839784423828125,-8.646470495083928,5.614771141856909,9.075511315679549
1772785654304800500,4.849800537109375,-8.944539249423146,3.2263962881579995,4.259270724892616
1772785654314817800,4.85981787109375,-11.355714840734004,0.746364675829187,-1.652135485238582
1772785654324833500,4.86983349609375,-11.349174040788412,0.8199011828135698,-1.669495639231801
1772785654334850600,4.8798505859375,-11.346620849174261,0.8914599599841981,-1.7103877677209673
1772785654344866600,4.889866455078125,-11.344211449944972,0.9706786042582243,-1.7527974611662327
1772785654354882800,4.8998828125,-7.777401011410355,-1.7457541185259817,-5.289270775234699
1772785654364899600,4.909899658203125,-5.44205018415153,-1.3567913335576653,-3.677789810337126
1772785654374915600,4.91991552734375,-3.9663632988393305,-1.2191808522000909,-1.693610089790821
1772785654384932600,4.9299326171875,-3.7188732236146924,-1.7271002714604138,-0.623107933190465
1772785654394948600,4.939948486328125,-2.962960748043656,-1.87187845249027,0.22556524366438388
1772785654404964600,4.949964599609375,-2.988682633799314,-2.0358467794194817,1.5200518044784663
1772785654414981600,4.959981689453125,-5.3547150150477885,-2.3248072214126587,2.073946500711143
1772785654424997600,4.96999755859375,-7.1657865321367975,-3.1060321251556275,2.162896119274199
1772785654435014700,4.9800146484375,-5.62485706706345,-3.402614148068428,2.3847169157132506
1772785654445030700,4.99003076171875,-3.833132055479288,-3.327761443918943,2.6382868953734633
1772785654455046700,5.000046630859375,-2.444194648337364,-2.9741856141522525,2.8968004689157008
1772785654465063700,5.010063720703125,-1.6577134315013884,-2.5886758922472595,3.142387633128464
1772785654475079400,5.020079345703125,-1.5656237613469361,-2.365172549548745,3.601002338732779
1772785654485096700,5.0300966796875,-1.3198194472521543,-2.1983137618750335,4.140512828043103
1772785654495112700,5.04011279296875,-0.8527052088499069,-1.8254411109641193,4.526031317776441
1772785654505128700,5.050128662109375,-0.6789660140126943,-1.2913590764433145,4.620213284035027
1772785654515145500,5.0601455078125,-1.1358552109986544,-0.8767444022156298,4.252073506864905
1772785654525161500,5.070161376953125,-1.754314441600442,-0.7205784196004271,3.744927994586527
1772785654535178800,5.0801787109375,-1.9200521162897348,-0.7963498460300267,3.1845845606058836
1772785654545194800,5.09019482421875,-1.5899766968369482,-0.6514767532583325,2.818717696803808
1772785654555210500,5.10021044921875,-1.1469365769833326,-0.002825578814744949,3.1314389536127445
1772785654565227500,5.1102275390625,-0.8627075474262237,0.8285122131619602,3.627187165825069
1772785654575243800,5.120243896484375,-0.8136217372179031,1.735300236789882,4.091194962644577
1772785654585260500,5.130260498046875,-0.62785425093472,2.6541058112740514,4.322115595862269
1772785654595276500,5.140276611328125,-0.24170856921374798,2.783541754004359,4.1459570649236435
1772785654605292500,5.15029248046875,0.6831693109214305,2.2271097943790257,3.670432433311641
1772785654615309800,5.160309814453125,1.8124293614387512,1.4437268358193338,2.7314491631954905
1772785654625325600,5.17032568359375,2.742120194813609,0.8279245494671166,1.9912094730526209
1772785654635342600,5.180342529296875,3.4323639741659164,0.5574744544155895,1.4444120416045187
1772785654645358600,5.190358642578125,4.209973902282119,0.9580958207346498,0.7832526101782917
1772785654655374600,5.20037451171875,4.040581212216615,1.2313114349767564,0.30238552155978976
1772785654665391600,5.2103916015625,3.068253598642349,1.4349471709057688,-0.21540179624222217
1772785654675407600,5.22040771484375,2.051148685708642,2.004831609561294,-0.4958880225418135
1772785654685423600,5.230423583984375,1.4886819759637115,2.7515727905526757,-0.4545258288554847
1772785654695440600,5.240440673828125,1.6795575990408658,3.2567502176284786,-0.47779228428304193
1772785654705456400,5.250456298828125,2.570851189482212,3.1095608838036655,-0.5102834815105423
1772785654715473700,5.2604736328125,4.039625518926978,2.3912701367489992,-0.5271614414773881
1772785654725489700,5.27048974609375,5.251902290827036,1.747250348433107,-0.5861236988600343
1772785654735505700,5.280505615234375,6.1888236599773165,1.6934477388359606,-0.6407355790134519
1772785654745522400,5.2905224609375,6.202274093180894,1.9086781970992683,-0.7947385383758694
1772785654755538700,5.30053857421875,5.342433041101693,2.6358897711038587,-0.3910033508852124
1772785654765555700,5.3105556640625,4.082010370191932,3.289926218782365,-0.2403859605741687
1772785654775571700,5.32057177734375,3.146345138582587,3.2678765917986627,-0.7695210219457745
1772785654785587500,5.33058740234375,1.6142086362957953,3.827465700280666,-1.3674782933972776
1772785654795604700,5.340604736328125,2.64935247926712,3.561186168912053,-1.938190999570489
1772785654805620700,5.350620849609375,1.3352964178472757,1.9642619910247623,-2.4350230614967643
1772785654815637500,5.360637451171875,2.2567887471973895,1.033829983893782,-3.0500244067296385
1772785654825653500,5.370653564453125,2.9993291154980657,0.9303415523685514,-2.776297774225473
1772785654835669500,5.38066943359375,1.7422955025047062,1.0829005965329705,-2.5289018070250746
1772785654845686800,5.390686767578125,0.11579787800014019,1.626537810384482,-2.4617902185216542
1772785654855702500,5.40070263671875,-0.6481973662614822,2.4532819178953766,-2.088716784341633
1772785654865719600,5.410719482421875,-0.8006482738763093,3.1692931757107377,-1.0678230735842138
1772785654875735600,5.420735595703125,0.41019641939401624,3.2039065161913634,0.025402152281999588
1772785654885751800,5.430751708984375,2.3457371967166663,2.89732420052886,0.5061038942709565
1772785654895768600,5.4407685546875,3.8376954178720712,2.2566168977618215,0.3982800638899207
1772785654905784600,5.45078466796875,4.872296824529767,1.0731098548807203,-0.23741036056317388
1772785654915801600,5.460801513671875,5.119395270088314,-0.709658966179192,-1.2228307530097662
1772785654925817900,5.47081787109375,4.565470178717375,-1.6825637951195238,-2.1238012494653464
1772785654935833600,5.48083349609375,3.3371693237334488,-1.114252304869145,-2.5976374895989895
1772785654945850600,5.4908505859375,1.6382862619757652,-0.8188781964413822,-2.5760893823966384
1772785654955866600,5.50086669921875,0.5276069932878017,-0.7215639235064387,-2.1710237500198186
1772785654965882600,5.510882568359375,0.1842635114610195,-0.5824890686847269,-1.675749146668613
1772785654975899600,5.520899658203125,0.7161544656783342,-0.05144450216367841,-1.2269590849861503
1772785654985915600,5.53091552734375,1.3964578657746314,0.3480132272034883,-0.9375137820854782
1772785654995932700,5.5409326171875,1.6611217786401509,0.25151757717505097,-0.724498077262193
1772785655005948400,5.550948486328125,1.8731231918543576,-0.006784691704064608,-0.6023540451057255
1772785655015964400,5.56096435546875,2.1159563811838624,-0.19395152339115737,-0.6092224695704878
1772785655025981700,5.570981689453125,1.9734715717881917,-0.2533155665077269,-0.4561791490204632
1772785655035997700,5.580997802734375,1.4309633619666098,-0.08339958322048187,-0.3487416876085102
1772785655046014700,5.5910146484375,0.9964473248302936,0.21285247708559035,-0.369260013371706
1772785655056030700,5.60103076171875,0.4294523240059614,0.32597529065757985,-0.49033276303485035
1772785655066046700,5.611046630859375,-0.14941080926656722,0.36093934427201746,-0.7052534246966242
1772785655076063700,5.621063720703125,-0.3925561332851648,0.2518703361354768,-0.8679165142461657
1772785655086079500,5.63107958984375,-0.35265608457326886,0.060847267411649225,-0.8678113003060222
1772785655096096800,5.6410966796875,-0.035472295397520066,0.06401069987863302,-0.7823477702930569
1772785655106112800,5.65111279296875,0.5773188264399767,0.06886018573641776,-0.5059114404387772
1772785655116128800,5.661128662109375,0.9735790749400853,0.07456891877204179,-0.23925913023501633
1772785655126145500,5.6711455078125,0.8478244510710239,0.2754961263947189,-0.08037439018040896
1772785655136161800,5.681161865234375,0.4575315865427255,0.3135397335849702,-0.005400689999759197
1772785655146177800,5.691177734375,0.10113806900680064,0.3578004617244005,-0.06611877807378769
1772785655156194600,5.701194580078125,-0.21026012250483034,0.5402177607968449,-0.2837621426977217
1772785655166210600,5.71121044921875,-0.32017011151015756,0.42745296688228845,-0.4848799044564366
1772785655176227800,5.721227783203125,-0.2799929994225502,0.16174743600934743,-0.5043913912646473
1772785655186243800,5.731243896484375,-0.1880412764340639,0.03364391092658043,-0.7794878508172929
1772785655196259800,5.741259765625,0.17837094629108904,-0.21342340884134173,-1.314278764259815
1772785655206276600,5.751276611328125,0.6388514457672834,-0.6845318314462899,-1.4962426204763353
1772785655216292600,5.761292724609375,0.9013982203483581,-0.8479188513562083,-1.3262196696832775
1772785655226310000,5.771309814453125,0.8859761948108673,-0.7148382685132324,-1.043746836143732
1772785655236325600,5.78132568359375,0.34991584595441816,-0.633025808353722,-0.8514682874660938
1772785655246341600,5.791341552734375,-0.15494623156189918,-0.6893383549451828,-0.786448775871098
1772785655256358700,5.801358642578125,-0.3921078049957752,-0.6883931830495595,-0.8295260663796216
1772785655266374700,5.811374755859375,-0.6100216571241617,-0.6040319151900708,-0.9576896510865539
1772785655276391000,5.821390869140625,-0.5821060607165098,-0.31395299056097864,-0.9013149259790778
