time,seconds_elapsed,z,y,x
1772785649506929400,0.051929443359375,0.10279165953397751,0.18067899346351624,0.5828362703323364
1772785649516946400,0.061946533203125,0.1208454966545105,0.2584260106086731,0.6440780758857727
1772785649526962400,0.07196240234375,0.1110282614827156,0.2612825930118561,0.6696447134017944
1772785649536979500,0.0819794921875,0.05928303673863411,0.22508595883846283,0.6741214990615845
1772785649546995500,0.091995361328125,-0.01845855638384819,0.20096224546432495,0.6669776439666748
1772785649557011500,0.102011474609375,-0.0926121398806572,0.1499461978673935,0.6652956008911133
1772785649567028500,0.112028564453125,-0.138349711894989,0.08414971083402634,0.6360273957252502
1772785649577044500,0.12204443359375,-0.14545395970344543,-0.09706428647041321,0.5628847479820251
1772785649587061500,0.1320615234375,-0.13018952310085297,-0.4739473760128021,0.46956413984298706
1772785649597077200,0.1420771484375,-0.13382339477539062,-0.8556603789329529,0.3933306038379669
1772785649607094500,0.152094482421875,-0.15464432537555695,-1.1840991973876953,0.35951414704322815
1772785649617110500,0.162110595703125,-0.18146927654743195,-1.4284141063690186,0.3798902630805969
1772785649627127300,0.172127197265625,-0.20890013873577118,-1.5876723527908325,0.4612862467765808
1772785649637143300,0.182143310546875,-0.22072485089302063,-1.6594144105911255,0.6135189533233643
1772785649647160600,0.19216064453125,-0.21565434336662292,-1.6731141805648804,0.7970325350761414
1772785649657176600,0.202176513671875,-0.2257527858018875,-1.4191362857818604,0.8716908097267151
1772785649667193300,0.212193359375,-0.2809591293334961,-0.9739557504653931,0.8395214676856995
1772785649677209300,0.222209228515625,-0.30859875679016113,-0.5025815367698669,0.7718369364738464
1772785649687225300,0.232225341796875,-0.32192885875701904,-0.19297882914543152,0.5679839253425598
1772785649697242600,0.24224267578125,-0.31737247109413147,-0.01746373251080513,0.391643762588501
1772785649707258400,0.25225830078125,-0.3172392249107361,0.027893586084246635,0.33191725611686707
1772785649717275400,0.262275390625,-0.3604103922843933,-0.0351458340883255,0.36642569303512573
1772785649727291400,0.27229150390625,-0.42646560072898865,-0.05510662868618965,0.497221440076828
1772785649737308400,0.282308349609375,-0.4887779653072357,0.018463462591171265,0.6690869927406311
1772785649747324400,0.292324462890625,-0.5427498817443848,0.1377246081829071,0.8225348591804504
1772785649757341400,0.302341552734375,-0.5788530707359314,0.2679198980331421,0.907448410987854
1772785649767357400,0.312357421875,-0.584010124206543,0.34546852111816406,0.8918145895004272
1772785649777374500,0.32237451171875,-0.5446480512619019,0.3649412989616394,0.7641090750694275
1772785649787390500,0.332390380859375,-0.45344802737236023,0.36408576369285583,0.5592290163040161
1772785649797407500,0.342407470703125,-0.31183281540870667,0.40248268842697144,0.370796263217926
1772785649807423200,0.35242333984375,-0.13102644681930542,0.5578820109367371,0.2829626798629761
1772785649817439500,0.362439453125,0.05768061429262161,0.7250651121139526,0.2816723883152008
1772785649827456500,0.37245654296875,0.17461293935775757,0.798983633518219,0.2797591984272003
1772785649837472500,0.382472412109375,0.19640105962753296,0.7705450654029846,0.22271986305713654
1772785649847489300,0.3924892578125,0.1582953780889511,0.7714102864265442,0.11197694391012192
1772785649857505500,0.402505615234375,0.0948849767446518,0.8417227864265442,-0.03204094618558884
1772785649867522600,0.4125224609375,0.045015737414360046,0.8828361630439758,-0.1926640421152115
1772785649877538600,0.42253857421875,0.02446332573890686,0.9350377917289734,-0.3613145649433136
1772785649887555300,0.432555419921875,0.059802647680044174,1.0136264562606812,-0.5285447835922241
1772785649897571300,0.4425712890625,0.14977595210075378,0.9691871404647827,-0.6834656000137329
1772785649907588600,0.452588623046875,0.2754339575767517,0.8823032379150391,-0.8116001486778259
1772785649917604400,0.462604248046875,0.29501697421073914,0.7882127165794373,-0.9626719355583191
1772785649927620400,0.472620361328125,0.1628551483154297,0.7444410920143127,-1.1190097332000732
1772785649937637400,0.482637451171875,0.051909979432821274,0.700118362903595,-1.2620553970336914
1772785649947653600,0.492653564453125,0.035488709807395935,0.5902955532073975,-1.3468421697616577
1772785649957670400,0.50267041015625,0.12800267338752747,0.47388559579849243,-1.279902458190918
1772785649967686400,0.512686279296875,0.23298124969005585,0.49371445178985596,-1.079179286956787
1772785649977703400,0.522703369140625,0.28123748302459717,0.3661077618598938,-0.8148772716522217
1772785649987719400,0.532719482421875,0.27640166878700256,0.1368018388748169,-0.5251741409301758
1772785649997736400,0.542736328125,0.2545296549797058,0.08561000972986221,-0.25510373711586
1772785650007752400,0.55275244140625,0.2101196050643921,0.05550115928053856,-0.06767181307077408
1772785650017769200,0.562769287109375,0.14599043130874634,-0.2153548300266266,-0.019032903015613556
1772785650027785000,0.572784912109375,0.09272369742393494,-0.46551278233528137,-0.08321640640497208
1772785650037802200,0.58280224609375,0.045956458896398544,-0.5622638463973999,-0.16262361407279968
1772785650047818200,0.592818359375,-0.019190149381756783,-0.7737192511558533,-0.2650241553783417
1772785650057834200,0.602834228515625,-0.006143590435385704,-0.7262715697288513,-0.3149016797542572
1772785650067851000,0.61285107421875,0.12274300307035446,-0.5319012403488159,-0.22469407320022583
1772785650077867000,0.622866943359375,0.30589815974235535,-0.42289963364601135,-0.0753360167145729
1772785650087884300,0.63288427734375,0.461008757352829,-0.2259470820426941,0.08649442344903946
1772785650097900000,0.642900146484375,0.5399494171142578,-0.0057348087430000305,0.16322781145572662
1772785650107917000,0.6529169921875,0.5431185960769653,0.0965590626001358,0.13679239153862
1772785650117933000,0.66293310546875,0.4844547212123871,0.17539264261722565,0.06394587457180023
1772785650127950000,0.6729501953125,0.4202296733856201,0.2237151563167572,-0.035020921379327774
1772785650137966000,0.682966064453125,0.44914281368255615,0.3463715612888336,-0.1386018991470337
1772785650147983000,0.692983154296875,0.5814707279205322,0.5063201785087585,-0.22748875617980957
1772785650157999000,0.7029990234375,0.6797962188720703,0.5201702117919922,-0.2902786135673523
1772785650168015000,0.71301513671875,0.68038409948349,0.4992559552192688,-0.33820024132728577
1772785650178032000,0.7230322265625,0.635627269744873,0.4754398465156555,-0.3816204071044922
1772785650188048100,0.733048095703125,0.6142362356185913,0.4497077167034149,-0.4117785096168518
1772785650198065200,0.743065185546875,0.6563000679016113,0.3997436463832855,-0.4136885404586792
1772785650208081000,0.753080810546875,0.7062366008758545,0.3773038685321808,-0.4062405228614807
1772785650218098200,0.76309814453125,0.7549031972885132,0.3136061131954193,-0.3502776622772217
1772785650228114200,0.7731142578125,0.81435227394104,0.28620627522468567,-0.22229202091693878
1772785650238131000,0.783130859375,0.8653914928436279,0.28506189584732056,0.0038130232132971287
1772785650248147000,0.79314697265625,0.8720089197158813,0.1299491673707962,0.24259105324745178
1772785650258164200,0.803164306640625,0.8749607801437378,-0.11923322826623917,0.36965152621269226
1772785650268180200,0.81318017578125,0.880430281162262,-0.3939656913280487,0.4199720621109009
1772785650278196200,0.8231962890625,0.8779647350311279,-0.6488994359970093,0.464870810508728
1772785650288213000,0.833212890625,0.8471790552139282,-0.8625401258468628,0.47167399525642395
1772785650298229200,0.843229248046875,0.7909584045410156,-1.0756157636642456,0.4440477192401886
1772785650308246000,0.85324609375,0.7307907938957214,-1.2141766548156738,0.3891206383705139
1772785650318262000,0.863261962890625,0.6646469235420227,-1.2156715393066406,0.2864014506340027
1772785650328279000,0.873279052734375,0.5854543447494507,-1.0134977102279663,0.132185161113739
1772785650338295300,0.88329541015625,0.5039360523223877,-0.716553270816803,-0.13240255415439606
1772785650348312000,0.89331201171875,0.4272465705871582,-0.48942598700523376,-0.3681982755661011
1772785650358328000,0.903328125,0.34013831615448,-0.25563934445381165,-0.4560959041118622
1772785650368345000,0.913344970703125,0.2559075653553009,-0.03756788745522499,-0.4134088158607483
1772785650378361300,0.923361328125,0.22746527194976807,0.12855158746242523,-0.32836583256721497
1772785650388377000,0.933377197265625,0.14069710671901703,0.4970510005950928,-0.13348524272441864
1772785650398394000,0.94339404296875,0.12114418298006058,0.6132788062095642,-0.01263898890465498
1772785650408410000,0.95341015625,0.12255614995956421,0.6745098233222961,0.08500823378562927
1772785650418427100,0.96342724609375,0.19675713777542114,0.5030421614646912,0.08252616226673126
1772785650428443100,0.973443115234375,0.27557623386383057,0.3631645143032074,-0.01505681499838829
1772785650438460200,0.983460205078125,0.2929387092590332,0.43989497423171997,-0.04080159217119217
1772785650448476200,0.99347607421875,0.3372851014137268,0.44135263562202454,-0.11410209536552429
1772785650458493000,1.003492919921875,0.40249261260032654,0.3324996531009674,-0.22058327496051788
1772785650468509200,1.01350927734375,0.5069332122802734,0.16077326238155365,-0.2051876038312912
1772785650478525200,1.023525146484375,0.7012472748756409,-0.14695847034454346,-0.06844279915094376
1772785650488542000,1.0335419921875,0.7734771966934204,-0.21065488457679749,0.22317808866500854
1772785650498558000,1.043557861328125,0.7591453790664673,-0.22536244988441467,0.3894954323768616
1772785650508575200,1.0535751953125,0.6867751479148865,-0.06476718932390213,0.38114282488822937
1772785650518591200,1.06359130859375,0.5893734693527222,0.22066614031791687,0.10784365236759186
1772785650528608000,1.07360791015625,0.44627073407173157,0.7905214428901672,-0.2770455479621887
1772785650538624000,1.0836240234375,0.43644607067108154,1.155448317527771,-0.7927024960517883
1772785650548641300,1.093641357421875,0.3220444321632385,1.498452067375183,-1.0901440382003784
1772785650558657300,1.1036572265625,0.10946851968765259,1.7097939252853394,-1.1869851350784302
1772785650568674000,1.113674072265625,-0.1225121021270752,1.8216229677200317,-1.2342252731323242
1772785650578690000,1.12368994140625,-0.27439084649086,1.9430897235870361,-1.2914304733276367
1772785650588706000,1.1337060546875,-0.23138675093650818,1.9990108013153076,-1.3709063529968262
1772785650598723000,1.14372314453125,-0.12155292183160782,2.1561248302459717,-1.3143846988677979
1772785650608739000,1.153739013671875,-0.03305954486131668,2.4842653274536133,-1.1824465990066528
1772785650618756000,1.163756103515625,0.06718449294567108,2.885977029800415,-1.0145965814590454
1772785650628772000,1.173772216796875,0.10569951683282852,3.072345495223999,-0.821302592754364
1772785650638789000,1.1837890625,0.2152172178030014,2.8142220973968506,-0.6113278269767761
1772785650648805000,1.19380517578125,0.5244603753089905,2.2110729217529297,-0.44646334648132324
1772785650658822100,1.203822265625,0.9203312397003174,1.3202162981033325,-0.3918437659740448
1772785650668838100,1.213838134765625,1.2716904878616333,0.3427150547504425,-0.30421578884124756
1772785650678854100,1.223854248046875,1.5706380605697632,-0.5379126667976379,-0.18507978320121765
1772785650688871200,1.23387109375,1.7868609428405762,-1.0968328714370728,0.003545860294252634
1772785650698887200,1.24388720703125,1.7803438901901245,-1.2747576236724854,0.24929571151733398
1772785650708904000,1.253904052734375,1.4496961832046509,-1.2128218412399292,0.6774269342422485
1772785650718920000,1.263919921875,1.1314045190811157,-1.361508846282959,0.9887528419494629
1772785650728937200,1.273937255859375,0.9369353652000427,-1.7992342710494995,0.9624534249305725
1772785650738953200,1.283953125,0.8568850159645081,-1.9852312803268433,0.5506938099861145
1772785650748970000,1.293969970703125,0.862813413143158,-2.3903284072875977,0.0347515307366848
1772785650758986000,1.303986083984375,0.9056609869003296,-3.0947165489196777,-0.2735580801963806
1772785650769003300,1.314003173828125,0.7563005089759827,-3.5670981407165527,-0.2697005867958069
1772785650779019000,1.32401904296875,0.5255285501480103,-3.8620479106903076,-0.2282537966966629
1772785650789035000,1.334034912109375,0.3196202218532562,-3.880125045776367,-0.2675462067127228
1772785650799052000,1.344052001953125,0.12189888209104538,-3.698884963989258,-0.3876505196094513
1772785650809068300,1.354068359375,-0.061963990330696106,-3.682265520095825,-0.47613388299942017
1772785650819085000,1.3640849609375,-0.29577967524528503,-3.575742721557617,-0.4538179337978363
1772785650829101000,1.37410107421875,-0.6096559762954712,-3.180979013442993,-0.28358346223831177
1772785650839118000,1.3841181640625,-0.8749858736991882,-2.323124408721924,-0.015659067779779434
1772785650849134000,1.394134033203125,-0.9014974236488342,-1.4914830923080444,0.25134435296058655
1772785650859151000,1.404151123046875,-0.8039628863334656,-1.184132695198059,0.35265421867370605
1772785650869167000,1.4141669921875,-0.6208477020263672,-1.1134713888168335,0.329638808965683
1772785650879183000,1.42418310546875,-0.460869163274765,-0.7552179098129272,0.3102680444717407
1772785650889200000,1.4342001953125,-0.42430928349494934,-0.3630126714706421,0.2814270257949829
1772785650899216100,1.444216064453125,-0.459160178899765,-0.10622724145650864,0.27424898743629456
1772785650909233200,1.454233154296875,-0.5214511752128601,-0.1477855145931244,0.240912064909935
1772785650919249200,1.464249267578125,-0.5285812616348267,-0.236953467130661,0.18000957369804382
1772785650929266200,1.47426611328125,-0.43279698491096497,-0.47125065326690674,0.0427708774805069
1772785650939282200,1.4842822265625,-0.13632112741470337,-1.067797064781189,-0.1844066083431244
1772785650949299200,1.49429931640625,0.19066379964351654,-1.877683401107788,-0.3486362397670746
1772785650959315000,1.50431494140625,0.35955774784088135,-2.474311113357544,-0.22129851579666138
1772785650969331000,1.5143310546875,0.5821517109870911,-2.7845001220703125,0.1537955105304718
1772785650979348200,1.52434814453125,0.7184954285621643,-2.4603307247161865,0.6248573064804077
1772785650989364200,1.5343642578125,0.5810046792030334,-1.314362645149231,0.7926480174064636
1772785650999381000,1.544381103515625,0.2847685217857361,-0.01357071753591299,0.5742807984352112
1772785651009397000,1.55439697265625,-0.00006075180135667324,0.9808032512664795,0.2124672383069992
1772785651019414800,1.564414794921875,-0.20665813982486725,1.328339695930481,0.07507741451263428
1772785651029430500,1.574430419921875,-0.30346474051475525,1.1599013805389404,0.3225060999393463
1772785651039447800,1.58444775390625,-0.2640584707260132,0.8452392220497131,0.7518337368965149
1772785651049463800,1.5944638671875,-0.06728361546993256,0.3063492774963379,1.0393469333648682
1772785651059479800,1.604479736328125,0.1976228803396225,-0.2090059518814087,1.1372601985931396
1772785651069496600,1.61449658203125,0.3269352614879608,-0.7888972759246826,1.1387332677841187
1772785651079512600,1.6245126953125,0.20176854729652405,-1.2476160526275635,0.9324088096618652
1772785651089529900,1.63452978515625,-0.10370022803544998,-1.2230180501937866,0.4645768404006958
1772785651099545600,1.644545654296875,-0.3941293954849243,-0.7245078086853027,-0.17701703310012817
1772785651109562600,1.654562744140625,-0.561811089515686,-0.14268872141838074,-0.8549684882164001
1772785651119578600,1.66457861328125,-0.5726616382598877,0.29699093103408813,-1.3596484661102295
1772785651129595600,1.674595703125,-0.4840811491012573,0.6664533019065857,-1.4507285356521606
1772785651139611600,1.684611572265625,-0.406549334526062,0.8750216960906982,-1.151152491569519
1772785651149627600,1.694627685546875,-0.3487233817577362,1.0382473468780518,-0.7346360683441162
1772785651159644700,1.704644775390625,-0.2595037519931793,1.3231384754180908,-0.4936564564704895
1772785651169661000,1.714660888671875,-0.1917319893836975,1.726956844329834,-0.529655933380127
1772785651179677700,1.724677734375,-0.19868843257427216,2.141714096069336,-0.7703284621238708
1772785651189693700,1.734693603515625,-0.2876948118209839,2.672661542892456,-1.0915141105651855
1772785651199710700,1.744710693359375,-0.34361881017684937,3.1423251628875732,-1.471433162689209
1772785651209726700,1.754726806640625,-0.44417324662208557,3.4762630462646484,-1.7758690118789673
1772785651219743700,1.76474365234375,-0.6012630462646484,3.710543632507324,-1.8034049272537231
1772785651229759700,1.774759765625,-0.8207635283470154,3.6155853271484375,-1.5099728107452393
1772785651239775700,1.784775634765625,-1.0509413480758667,3.383871078491211,-0.9141331315040588
1772785651249792500,1.79479248046875,-1.1362109184265137,3.112297534942627,-0.23690468072891235
1772785651259808800,1.804808837890625,-1.0488922595977783,2.8203816413879395,0.308916300535202
1772785651269825800,1.81482568359375,-0.7634457945823669,2.226735830307007,0.5408646464347839
1772785651279841500,1.824841552734375,-0.3978787064552307,1.5253368616104126,0.7261335253715515
1772785651289858600,1.834858642578125,-0.03863968327641487,0.914059042930603,0.9711436033248901
1772785651299874800,1.844874755859375,0.32830318808555603,0.45961886644363403,1.163268804550171
1772785651309890800,1.854890869140625,0.6421531438827515,0.1923907846212387,1.2408921718597412
1772785651319907600,1.864907470703125,0.8542259931564331,0.03097127377986908,1.2066668272018433
1772785651329923600,1.874923583984375,0.9741538763046265,-0.07143352925777435,1.083790898323059
1772785651339940900,1.88494091796875,1.1138406991958618,-0.1607341170310974,0.8959042429924011
1772785651349956900,1.894956787109375,1.173879623413086,-0.4708665907382965,0.7076420783996582
1772785651359973600,1.9049736328125,1.0375784635543823,-0.7083832621574402,0.6750396490097046
1772785651369989600,1.91498974609375,0.8958402276039124,-1.0111900568008423,0.47661352157592773
1772785651380007000,1.9250068359375,0.7454448938369751,-1.0003327131271362,0.09919434785842896
1772785651390022700,1.935022705078125,0.5590496063232422,-0.866867184638977,-0.44302132725715637
1772785651400038700,1.94503857421875,0.30999138951301575,-0.667672872543335,-0.8814948201179504
1772785651410055700,1.9550556640625,0.04785031080245972,-0.522936224937439,-1.1039880514144897
1772785651420071700,1.96507177734375,-0.15518243610858917,-0.41529497504234314,-1.1224040985107422
1772785651430088700,1.975088623046875,-0.2881004512310028,-0.257223904132843,-1.005832314491272
1772785651440104700,1.985104736328125,-0.3624039590358734,-0.10356776416301727,-0.8172043561935425
1772785651450121700,1.995121826171875,-0.4071812033653259,0.09967119246721268,-0.5742336511611938
1772785651460137700,2.0051376953125,-0.45057979226112366,0.3475100100040436,-0.3687896728515625
1772785651470154800,2.01515478515625,-0.5493072271347046,0.564762532711029,-0.23515422642230988
1772785651480170800,2.025170654296875,-0.6693840622901917,0.6705984473228455,-0.16495728492736816
1772785651490186800,2.035186767578125,-0.74242103099823,0.5910283327102661,-0.13938553631305695
1772785651500203500,2.04520361328125,-0.750558078289032,0.339763879776001,-0.03989943861961365
1772785651510219800,2.0552197265625,-0.6918705701828003,0.004471756052225828,0.22072644531726837
1772785651520236800,2.06523681640625,-0.5893803834915161,-0.4390508234500885,0.5817935466766357
1772785651530252800,2.075252685546875,-0.4479069709777832,-0.7980446815490723,0.8574784994125366
1772785651540269600,2.08526953125,-0.2858871817588806,-1.1301054954528809,0.920199990272522
1772785651550285600,2.09528564453125,-0.11334248632192612,-1.3952921628952026,0.8354918360710144
1772785651560301800,2.1053017578125,0.04440933093428612,-1.703776240348816,0.6427921652793884
1772785651570318600,2.115318603515625,0.10919274389743805,-2.106464385986328,0.3864474892616272
1772785651580334600,2.12533447265625,0.12452082335948944,-2.330556631088257,0.14038975536823273
1772785651590351600,2.1353515625,0.0331764817237854,-2.3511717319488525,-0.15974289178848267
1772785651600367900,2.145367919921875,-0.11960773169994354,-2.247403860092163,-0.5345247983932495
1772785651610384600,2.155384521484375,-0.2739543318748474,-2.2973086833953857,-0.8817245364189148
1772785651620400600,2.165400634765625,-0.39151424169540405,-2.478937864303589,-1.0307350158691406
1772785651630417700,2.175417724609375,-0.362712562084198,-2.541837453842163,-0.9645038843154907
1772785651640433700,2.18543359375,-0.3796460032463074,-1.7974953651428223,-0.946771502494812
1772785651650449700,2.19544970703125,-0.6807611584663391,0.23288267850875854,-1.334358811378479
1772785651660466700,2.205466796875,-0.7546396851539612,1.714705467224121,-1.4137390851974487
1772785651670482700,2.215482666015625,-0.5680258274078369,2.0761327743530273,-0.8252781629562378
1772785651680499700,2.225499755859375,-0.4117717146873474,1.4816588163375854,0.11626992374658585
1772785651690515700,2.235515625,-0.10225259512662888,0.6083568334579468,0.8430629968643188
1772785651700532700,2.24553271484375,0.3604428768157959,-0.35263070464134216,1.0499893426895142
1772785651710548700,2.255548828125,0.6613640785217285,-1.2460342645645142,1.0541733503341675
1772785651720564500,2.265564453125,0.6076425313949585,-1.7365469932556152,0.9700931310653687
1772785651730581800,2.275581787109375,0.2021772414445877,-1.6447588205337524,0.6099894046783447
1772785651740597800,2.28559765625,-0.20033985376358032,-1.4017727375030518,0.20651543140411377
1772785651750614500,2.295614501953125,-0.6012005805969238,-1.0858445167541504,-0.048777997493743896
1772785651760630500,2.305630615234375,-0.9359146356582642,-0.3888819217681885,-0.4029019773006439
1772785651770647800,2.315647705078125,-0.9783148169517517,0.5734733939170837,-0.8147774934768677
1772785651780663800,2.325663818359375,-0.850153923034668,1.1402760744094849,-1.0405248403549194
1772785651790679800,2.3356796875,-0.8009036779403687,1.238959789276123,-1.0919201374053955
1772785651800696600,2.345696533203125,-0.7138816714286804,1.1771621704101562,-1.0809553861618042
1772785651810712600,2.355712646484375,-0.5804018378257751,1.2194712162017822,-1.0305829048156738
1772785651820729900,2.365729736328125,-0.4698406755924225,1.5737360715866089,-0.9624235033988953
1772785651830745600,2.37574560546875,-0.4296514689922333,2.027076244354248,-0.996941328048706
1772785651840762600,2.3857626953125,-0.44871091842651367,2.536735773086548,-1.1064647436141968
1772785651850778600,2.395778564453125,-0.46609368920326233,2.8229029178619385,-1.3110500574111938
1772785651860795600,2.405795654296875,-0.32956671714782715,2.8899755477905273,-1.4615305662155151
1772785651870811600,2.415811767578125,-0.08959558606147766,2.584158420562744,-1.4414103031158447
1772785651880827600,2.42582763671875,0.1604888141155243,2.157388687133789,-1.1359633207321167
1772785651890844700,2.4358447265625,0.31342607736587524,1.924952745437622,-0.6943192481994629
1772785651900860700,2.445860595703125,0.20699414610862732,2.1737430095672607,-0.23676159977912903
1772785651910877700,2.455877685546875,-0.07979173958301544,2.4064455032348633,0.14357033371925354
1772785651920893700,2.465893798828125,-0.23649318516254425,2.379965305328369,0.34943825006484985
1772785651930910500,2.475910400390625,-0.1477392166852951,2.176706314086914,0.4866775870323181
1772785651940926700,2.4859267578125,0.20355835556983948,1.8023756742477417,0.6486531496047974
1772785651950942700,2.495942626953125,0.669331431388855,1.4122925996780396,0.8907890915870667
1772785651960959700,2.505959716796875,1.024828553199768,1.2275654077529907,1.1698329448699951
1772785651970975700,2.515975830078125,1.1262608766555786,1.2893335819244385,1.4037703275680542
1772785651980992800,2.52599267578125,1.047214150428772,1.0177117586135864,1.3137339353561401
1772785651991008800,2.5360087890625,0.9118192791938782,0.26229074597358704,0.8788517713546753
1772785652001025800,2.54602587890625,0.858627438545227,-0.7326374650001526,0.5006008744239807
1772785652011041500,2.55604150390625,0.8763067722320557,-1.596893310546875,0.4328397214412689
1772785652021057300,2.566057373046875,0.986731767654419,-2.1382029056549072,0.5202869772911072
1772785652031074300,2.57607421875,1.0948258638381958,-2.4912304878234863,0.642415463924408
1772785652041090300,2.58609033203125,1.1920530796051025,-2.316938638687134,0.9235970973968506
1772785652051107300,2.596107421875,1.1534171104431152,-1.8072290420532227,1.0743714570999146
1772785652061123300,2.606123291015625,1.0027055740356445,-1.4157829284667969,0.900335431098938
1772785652071140400,2.616140380859375,0.7987892031669617,-0.9713097214698792,0.42303940653800964
1772785652081156400,2.62615625,0.5801545977592468,-0.5075601935386658,-0.19254228472709656
1772785652091172400,2.63617236328125,0.331888347864151,-0.08500757068395615,-0.7801884412765503
1772785652101189400,2.646189453125,0.05912020429968834,0.20537763833999634,-1.1498287916183472
1772785652111205400,2.656205322265625,-0.18811248242855072,0.21569949388504028,-1.1503491401672363
1772785652121222100,2.66622216796875,-0.4026756286621094,0.02763211354613304,-0.7385302186012268
1772785652131238400,2.67623828125,-0.5546627044677734,-0.002588114235550165,-0.08419272303581238
1772785652141255400,2.68625537109375,-0.6236963868141174,0.12658292055130005,0.392323762178421
1772785652151271400,2.696271484375,-0.5898305773735046,0.24830211699008942,0.5123076438903809
1772785652161288200,2.7062880859375,-0.42075687646865845,0.23587234318256378,0.28264814615249634
1772785652171304400,2.716304443359375,-0.15671119093894958,-0.044355083256959915,-0.019632898271083832
1772785652181320400,2.726320556640625,0.01888725906610489,-0.501623809337616,-0.018757786601781845
1772785652191337500,2.73633740234375,0.20052681863307953,-1.0394283533096313,0.31273725628852844
1772785652201353200,2.746353271484375,0.40336835384368896,-1.269444227218628,0.8000251054763794
1772785652211370500,2.75637060546875,0.5780017971992493,-1.0370863676071167,1.0574772357940674
1772785652221386500,2.766386474609375,0.585346519947052,-0.7246060371398926,0.7583049535751343
1772785652231403300,2.7764033203125,0.2762115001678467,-0.622331440448761,0.011454636231064796
1772785652241419300,2.786419189453125,-0.26671305298805237,-1.2519532442092896,-0.7818719744682312
1772785652251435300,2.796435302734375,-0.6435350775718689,-2.534052610397339,-1.1961935758590698
1772785652261452500,2.80645263671875,-0.826224684715271,-3.500443696975708,-1.193566083908081
1772785652271468300,2.81646826171875,-0.9110006093978882,-3.755455255508423,-1.0309076309204102
1772785652281485300,2.8264853515625,-0.9442174434661865,-3.002375364303589,-0.8393717408180237
1772785652291501300,2.836501220703125,-1.4100912809371948,0.16422702372074127,-1.2042087316513062
1772785652301518300,2.846518310546875,-1.1316953897476196,2.3323614597320557,-1.0267494916915894
1772785652311534300,2.856534423828125,-0.6888878345489502,2.7185111045837402,0.1410066932439804
1772785652321550300,2.86655029296875,-0.705489456653595,1.854926586151123,1.4722399711608887
1772785652331567400,2.8765673828125,-0.7489479184150696,0.493717223405838,1.9260029792785645
1772785652341583400,2.886583251953125,-0.7717719674110413,-0.4050876498222351,1.4996421337127686
1772785652351600400,2.896600341796875,-0.7461079955101013,-1.0646814107894897,0.7810174226760864
1772785652361616400,2.906616455078125,-0.7613574862480164,-1.4370813369750977,0.20602233707904816
1772785652371632400,2.91663232421875,-0.7517185211181641,-1.3967781066894531,-0.020703833550214767
1772785652381649200,2.926649169921875,-0.683880627155304,-1.1666514873504639,0.1294552981853485
1772785652391665400,2.93666552734375,-0.5923733711242676,-0.6749069094657898,0.3558678925037384
1772785652401682400,2.946682373046875,-0.5695027112960815,-0.2865162789821625,0.5601800084114075
1772785652411698400,2.956698486328125,-0.7468481063842773,-0.07407774031162262,0.5489003658294678
1772785652421715200,2.966715087890625,-0.9151660203933716,0.4191897511482239,0.061183422803878784
1772785652431731500,2.9767314453125,-0.8313549757003784,0.8169172406196594,-0.6635345220565796
1772785652441748500,2.98674853515625,-0.6050435304641724,1.21817147731781,-1.3672151565551758
1772785652451764200,2.99676416015625,-0.4326298236846924,1.6953625679016113,-1.9283456802368164
1772785652461780200,3.0067802734375,-0.36310720443725586,1.982478380203247,-2.056633710861206
1772785652471797500,3.016797607421875,-0.2460305243730545,2.24747633934021,-1.7802430391311646
1772785652481813500,3.0268134765625,-0.04393735155463219,2.694162368774414,-1.363685965538025
1772785652491830300,3.036830322265625,0.1869015246629715,3.2042176723480225,-1.0707119703292847
1772785652501846300,3.04684619140625,0.4023112952709198,3.4842336177825928,-0.9142810106277466
1772785652511862300,3.0568623046875,0.5783425569534302,3.260833263397217,-0.8680185079574585
1772785652521879600,3.066879638671875,0.7296133041381836,2.3819358348846436,-0.8547690510749817
1772785652531895300,3.076895263671875,0.7789402604103088,1.288182258605957,-0.512920081615448
1772785652541912300,3.086912353515625,0.7104656100273132,0.40299251675605774,0.27472370862960815
1772785652551928300,3.09692822265625,0.6015767455101013,-0.04304761067032814,1.2538570165634155
1772785652561945300,3.1069453125,0.4899841845035553,0.2813592255115509,1.9233777523040771
1772785652571961300,3.11696142578125,0.43389779329299927,1.0652774572372437,2.032973527908325
1772785652581977300,3.126977294921875,0.47945836186408997,1.5278041362762451,1.840656042098999
1772785652591994400,3.136994384765625,0.7273396849632263,1.4176689386367798,1.5459412336349487
1772785652602010400,3.14701025390625,0.9192150831222534,0.7031769156455994,1.1383246183395386
1772785652612027400,3.15702734375,0.8744034171104431,-0.12299317121505737,0.6889739632606506
1772785652622043400,3.16704345703125,0.6807695031166077,-0.6237545013427734,0.3558434247970581
1772785652632060400,3.177060302734375,0.41768133640289307,-0.8316601514816284,0.19772687554359436
1772785652642076200,3.187076171875,0.13363178074359894,-0.9341473579406738,0.024230197072029114
1772785652652092400,3.197092529296875,0.012025224044919014,-0.9333274960517883,-0.284532368183136
1772785652662109400,3.207109375,0.17018157243728638,-0.9174201488494873,-0.5456859469413757
1772785652672125400,3.21712548828125,0.4383530020713806,-1.2011375427246094,-0.6354554891586304
1772785652682142200,3.22714208984375,0.6052919030189514,-1.780164122581482,-0.5174873471260071
1772785652692158500,3.237158447265625,0.5986681580543518,-2.287445306777954,-0.36628907918930054
1772785652702175500,3.247175537109375,0.4722548723220825,-2.427957057952881,-0.33420225977897644
1772785652712191200,3.257191162109375,0.29940560460090637,-2.2801384925842285,-0.3626178801059723
1772785652722207200,3.267207275390625,0.11854343116283417,-2.1283376216888428,-0.3667793273925781
1772785652732224500,3.277224609375,-0.03837064653635025,-2.0063281059265137,-0.2939999997615814
1772785652742240500,3.287240478515625,-0.19094474613666534,-1.761353611946106,-0.18865202367305756
1772785652752257300,3.29725732421875,-0.30248895287513733,-1.4482924938201904,-0.13800252974033356
1772785652762273300,3.307273193359375,-0.31077083945274353,-1.211393117904663,-0.171872079372406
1772785652772290600,3.31729052734375,-0.21807941794395447,-1.1222960948944092,-0.27396297454833984
1772785652782306600,3.327306640625,-0.11121609807014465,-1.111045479774475,-0.3500066101551056
1772785652792322300,3.337322265625,0.010325117968022823,-1.0909249782562256,-0.31307271122932434
1772785652802339300,3.34733935546875,0.14873546361923218,-0.8654099702835083,-0.1650478094816208
1772785652812355300,3.357355224609375,0.32912755012512207,-0.7102359533309937,0.020790230482816696
1772785652822372400,3.367372314453125,0.5025310516357422,-0.30027666687965393,0.2071838080883026
1772785652832388400,3.377388427734375,0.7714769840240479,0.05100227892398834,0.1407010406255722
1772785652842404400,3.387404296875,1.0589300394058228,0.09109510481357574,-0.17696881294250488
1772785652852421400,3.39742138671875,1.2523066997528076,-0.44467049837112427,-0.5660493969917297
1772785652862437400,3.407437255859375,1.3706692457199097,-1.404276967048645,-0.7348291277885437
1772785652872454400,3.417454345703125,1.400617241859436,-2.581369638442993,-0.6550789475440979
1772785652882470400,3.427470458984375,1.3153997659683228,-3.7702741622924805,-0.41162073612213135
1772785652892487200,3.437487060546875,1.1056089401245117,-4.634677410125732,-0.14753209054470062
1772785652902503200,3.447503173828125,0.9138550162315369,-4.821073055267334,-0.056973159313201904
1772785652912519400,3.45751953125,0.7571306228637695,-4.109508991241455,-0.32818281650543213
1772785652922536400,3.467536376953125,0.7330066561698914,-3.1657660007476807,-0.8974433541297913
1772785652932552400,3.477552490234375,0.7099109888076782,-1.729610562324524,-1.4403812885284424
1772785652942569200,3.4875693359375,0.17811232805252075,1.6548928022384644,-2.3689322471618652
1772785652952585500,3.49758544921875,-0.23633499443531036,3.7223410606384277,-2.180295705795288
1772785652962602500,3.5076025390625,-0.7827897667884827,3.623884439468384,-0.5864812135696411
1772785652972618200,3.5176181640625,-1.14783775806427,2.2654242515563965,1.1921955347061157
1772785652982634200,3.52763427734375,-1.0799838304519653,1.0437591075897217,1.5108911991119385
1772785652992651500,3.537651611328125,-0.7967402935028076,-0.04540025442838669,0.8734003305435181
1772785653002667500,3.54766748046875,-0.513380229473114,-1.399827241897583,0.5372361540794373
1772785653012684300,3.557684326171875,-0.32733404636383057,-1.8052129745483398,0.4910632371902466
1772785653022700800,3.56770068359375,-0.2249102145433426,-1.4346274137496948,0.4916653633117676
1772785653032716800,3.577716796875,-0.2998126745223999,-0.9799656271934509,0.7110834121704102
1772785653042733800,3.58773388671875,-0.47544097900390625,-0.6244807243347168,0.9897946715354919
1772785653052749800,3.597749755859375,-0.5827689170837402,-0.20507092773914337,0.8863801956176758
1772785653062766800,3.607766845703125,-0.6659085750579834,0.45516452193260193,0.161032035946846
1772785653072782800,3.617782958984375,-0.579023540019989,1.2770863771438599,-0.9110973477363586
1772785653082799900,3.6277998046875,-0.33906444907188416,2.052396535873413,-1.7401940822601318
1772785653092816000,3.63781591796875,-0.08473782986402512,2.5149669647216797,-2.0537304878234863
1772785653102831900,3.647831787109375,0.2528032064437866,2.585998296737671,-1.7675487995147705
1772785653112848600,3.6578486328125,0.4114929437637329,2.5646462440490723,-0.880111813545227
1772785653122864600,3.66786474609375,0.49088311195373535,2.6860172748565674,0.2698899209499359
1772785653132882000,3.6778818359375,0.49238404631614685,2.924837350845337,1.129919409751892
1772785653142898000,3.68789794921875,0.34003767371177673,3.355281352996826,1.4082961082458496
1772785653152914000,3.697913818359375,0.04717298969626427,3.693023204803467,1.2746319770812988
1772785653162930700,3.7079306640625,-0.2705298662185669,3.9070470333099365,1.1051361560821533
1772785653172947000,3.717947021484375,-0.5950090289115906,3.8286471366882324,1.0198636054992676
1772785653182964000,3.7279638671875,-0.7424948811531067,3.5403294563293457,1.0446627140045166
1772785653192979700,3.737979736328125,-0.6792017817497253,3.1051924228668213,1.14286470413208
1772785653202996700,3.747996826171875,-0.4500562250614166,2.4977078437805176,1.3364694118499756
1772785653213013000,3.758012939453125,-0.10812017321586609,1.9091300964355469,1.5669091939926147
1772785653223029000,3.768029052734375,0.2922711670398712,1.4247511625289917,1.666627287864685
1772785653233045800,3.778045654296875,0.6010251641273499,0.9323837757110596,1.6016457080841064
1772785653243061800,3.788061767578125,0.7955464720726013,0.3992953598499298,1.4562439918518066
1772785653253079000,3.7980791015625,0.737339437007904,0.007804459892213345,1.4411567449569702
1772785653263094800,3.8080947265625,0.5913934111595154,0.028759542852640152,1.4597349166870117
1772785653273110800,3.81811083984375,0.3919561803340912,-0.15964505076408386,1.2411580085754395
1772785653283127800,3.8281279296875,0.09116730093955994,-0.5672077536582947,0.7070626616477966
1772785653293143800,3.838143798828125,-0.13985922932624817,-0.7284916639328003,0.09452973306179047
1772785653303160800,3.848160888671875,-0.2233828902244568,-0.7530209422111511,-0.5486103296279907
1772785653313176800,3.8581767578125,-0.20466765761375427,-0.8362984657287598,-1.0178802013397217
1772785653323193900,3.86819384765625,-0.15929219126701355,-0.9521885514259338,-1.1419131755828857
1772785653333209900,3.8782099609375,-0.11934476345777512,-1.1297194957733154,-0.9450765252113342
1772785653343225600,3.8882255859375,-0.16004611551761627,-1.2776039838790894,-0.5325992107391357
1772785653353243000,3.898242919921875,-0.2520996034145355,-1.2831369638442993,-0.12420617789030075
1772785653363259000,3.9082587890625,-0.3661252558231354,-1.1490057706832886,0.11233072727918625
1772785653373275600,3.918275634765625,-0.4947645366191864,-1.004732608795166,0.1660347282886505
1772785653383291600,3.928291748046875,-0.610957682132721,-0.9393330812454224,0.1680944263935089
1772785653393308000,3.938307861328125,-0.6981875896453857,-0.9920224547386169,0.1926528364419937
1772785653403325000,3.948324951171875,-0.7420695424079895,-1.1046712398529053,0.28443974256515503
1772785653413341000,3.9583408203125,-0.7213898301124573,-1.2209335565567017,0.450918585062027
1772785653423357700,3.968357666015625,-0.6974046230316162,-1.246146559715271,0.668904185295105
1772785653433374000,3.9783740234375,-0.6320094466209412,-1.0381624698638916,0.8680486679077148
1772785653443390700,3.988390625,-0.49151304364204407,-0.694649875164032,0.8545402884483337
1772785653453406700,3.99840673828125,-0.2909700274467468,-0.4052094519138336,0.5888429880142212
1772785653463422700,4.008422607421875,0.019526038318872452,-0.2601499855518341,0.18830861151218414
1772785653473440000,4.01843994140625,0.4065689742565155,-0.42353636026382446,-0.22672995924949646
1772785653483456000,4.0284560546875,0.77911376953125,-0.755021870136261,-0.42201611399650574
1772785653493472800,4.03847265625,1.1580671072006226,-1.0887283086776733,-0.3753091096878052
1772785653503488800,4.04848876953125,1.4977538585662842,-1.4022233486175537,-0.20255649089813232
1772785653513504800,4.0585048828125,1.70645010471344,-1.7027360200881958,-0.039061952382326126
1772785653523521800,4.068521728515625,1.757703185081482,-2.034813404083252,-0.0815896987915039
1772785653533537800,4.078537841796875,1.5417879819869995,-2.563450336456299,-0.45206189155578613
1772785653543554800,4.088554931640625,1.1990641355514526,-3.2006168365478516,-1.1858367919921875
1772785653553570800,4.09857080078125,1.1252788305282593,-3.613511323928833,-1.891840934753418
1772785653563586800,4.1085869140625,1.1155860424041748,-3.543146848678589,-2.0290703773498535
1772785653573603800,4.118603759765625,0.8993923664093018,-2.803234100341797,-1.5723479986190796
1772785653583619800,4.128619873046875,0.39388367533683777,0.16835451126098633,-1.8129312992095947
1772785653593636900,4.138636962890625,0.16186602413654327,2.9710772037506104,-2.2977402210235596
1772785653603652600,4.148652587890625,0.20057161152362823,3.548367738723755,-1.7473254203796387
1772785653613668900,4.1586689453125,0.3177174925804138,2.18147611618042,-0.48879384994506836
1772785653623686000,4.168685791015625,0.46172499656677246,0.3568550944328308,0.408720463514328
1772785653633702000,4.178701904296875,0.6074590086936951,-0.5013444423675537,0.5288618803024292
1772785653643718700,4.18871875,0.5995097160339355,-0.47922876477241516,0.3170478940010071
1772785653653735000,4.19873486328125,0.2554742991924286,-0.3229482173919678,0.22359775006771088
1772785653663752000,4.208751953125,-0.5390552878379822,-0.06665944308042526,0.3501753807067871
1772785653673767700,4.218767578125,-1.5475013256072998,0.8672763705253601,0.2867182791233063
1772785653683783700,4.22878369140625,-2.1135077476501465,2.103086471557617,-0.22343845665454865
1772785653693801000,4.238801025390625,-2.343837022781372,2.618199586868286,-0.4822756052017212
1772785653703817000,4.24881689453125,-2.256405830383301,2.29778790473938,-0.2489621937274933
1772785653713833700,4.258833740234375,-2.1120338439941406,1.7610437870025635,-0.056430209428071976
1772785653723849700,4.268849609375,-1.9595979452133179,1.5302950143814087,-0.06414218991994858
1772785653733865700,4.27886572265625,-1.741640329360962,1.650977373123169,-0.174635112285614
1772785653743883000,4.288883056640625,-1.3766679763793945,1.9026488065719604,-0.1788141429424286
1772785653753898800,4.298898681640625,-0.9188255667686462,2.0446527004241943,0.06598655134439468
1772785653763915800,4.308915771484375,-0.3188929259777069,2.1132395267486572,0.2772811949253082
1772785653773931800,4.318931884765625,0.27833354473114014,2.141606092453003,0.2338975965976715
1772785653783947800,4.32894775390625,0.7252609729766846,2.0327816009521484,0.10464800149202347
1772785653793964800,4.33896484375,0.9208778738975525,1.5497444868087769,0.20053166151046753
1772785653803980800,4.348980712890625,0.9494279623031616,0.7729280591011047,0.7432535886764526
1772785653813997800,4.358997802734375,0.7260328531265259,0.12212223559617996,1.4862000942230225
1772785653824013800,4.369013916015625,0.25538626313209534,0.020131688565015793,2.0540874004364014
1772785653834030800,4.37903076171875,-0.2732240557670593,0.7832192778587341,2.2289817333221436
1772785653844046800,4.389046875,-0.65549236536026,1.8067705631256104,2.0066661834716797
1772785653854062800,4.399062744140625,-0.6472026109695435,2.3147456645965576,1.6551905870437622
1772785653864079600,4.40907958984375,-0.3964569568634033,2.2223479747772217,1.2877286672592163
1772785653874095900,4.419095947265625,-0.11942420899868011,1.612395167350769,0.8696877360343933
1772785653884113000,4.42911279296875,0.013313332572579384,0.8737519383430481,0.4877707362174988
1772785653894129000,4.43912890625,0.02927030809223652,0.28913363814353943,0.22201767563819885
1772785653904144600,4.44914453125,0.008257168345153332,-0.06889346241950989,0.06833542883396149
1772785653914162000,4.459161865234375,-0.008586515672504902,-0.30129650235176086,-0.03860408067703247
1772785653924178000,4.469177978515625,0.01876734383404255,-0.5502631664276123,-0.15895579755306244
1772785653934194700,4.479194580078125,0.08328414708375931,-0.9286107420921326,-0.24963319301605225
1772785653944210700,4.489210693359375,0.12848997116088867,-1.249567985534668,-0.39196717739105225
1772785653954226700,4.499226806640625,0.17089667916297913,-1.437282681465149,-0.6420432925224304
1772785653964244000,4.509243896484375,0.2031978964805603,-1.5417506694793701,-0.868015706539154
1772785653974260000,4.519260009765625,0.21358788013458252,-1.6171201467514038,-0.91965651512146
1772785653984276700,4.52927685546875,0.19571460783481598,-1.6745933294296265,-0.7758604884147644
1772785653994292700,4.539292724609375,0.1465851068496704,-1.5757346153259277,-0.5478703379631042
1772785654004308700,4.549308837890625,0.05800411105155945,-1.3513156175613403,-0.3285593092441559
1772785654014325800,4.55932568359375,-0.06117165833711624,-1.0041712522506714,-0.18356993794441223
1772785654024341500,4.569341552734375,-0.1925738900899887,-0.66156005859375,-0.1079215258359909
1772785654034358500,4.579358642578125,-0.3280746638774872,-0.3975127935409546,-0.07796890288591385
1772785654044374800,4.589374755859375,-0.43070173263549805,-0.1973261684179306,-0.09872850775718689
1772785654054390800,4.599390869140625,-0.43163183331489563,-0.010768082924187183,-0.14628857374191284
1772785654064407600,4.609407470703125,-0.3543711304664612,0.09802497178316116,-0.18488390743732452
1772785654074423600,4.619423583984375,-0.22271187603473663,0.1160166785120964,-0.17139001190662384
1772785654084440800,4.62944091796875,-0.06289052218198776,0.03455004468560219,-0.07181015610694885
1772785654094456600,4.63945654296875,0.13703393936157227,0.00043629948049783707,0.062178436666727066
1772785654104472600,4.64947265625,0.3451663553714752,0.08614987134933472,0.10967111587524414
1772785654114489600,4.659489501953125,0.5235884785652161,0.18539844453334808,0.04913410544395447
1772785654124505600,4.669505615234375,0.6801067590713501,0.2775092124938965,-0.08234455436468124
1772785654134522600,4.679522705078125,0.7934356331825256,0.34069469571113586,-0.24787580966949463
1772785654144538600,4.68953857421875,0.8385319709777832,0.364483118057251,-0.40009838342666626
1772785654154554600,4.6995546875,0.7888890504837036,0.3301248848438263,-0.46939918398857117
1772785654164571600,4.709571533203125,0.6938543915748596,0.225283682346344,-0.40556854009628296
1772785654174587600,4.719587646484375,0.5545317530632019,-0.08475843816995621,-0.35036057233810425
1772785654184604700,4.729604736328125,0.3810523748397827,-0.699309229850769,-0.4341454803943634
1772785654194620700,4.73962060546875,0.23324398696422577,-1.7731280326843262,-0.5674875974655151
1772785654204636700,4.74963671875,0.16357916593551636,-2.955772638320923,-0.5430988669395447
1772785654214653400,4.7596533203125,-0.17808541655540466,-2.2314109802246094,-0.8302409052848816
1772785654224669700,4.769669677734375,-1.0751392841339111,1.318169116973877,-2.2274580001831055
1772785654234686700,4.779686767578125,-1.6924749612808228,4.509480953216553,-3.0943636894226074
1772785654244702500,4.789702392578125,-1.8088207244873047,4.536500930786133,-2.013300657272339
1772785654254718500,4.799718505859375,-1.5333983898162842,3.4141788482666016,-0.11243133991956711
1772785654264735700,4.80973583984375,-0.9126797318458557,2.1197662353515625,1.0069421529769897
1772785654274751700,4.819751708984375,-0.1339094042778015,1.0473216772079468,1.2981853485107422
1772785654284768500,4.8297685546875,0.5578264594078064,0.2779489755630493,1.1178855895996094
1772785654294784500,4.839784423828125,0.9619250297546387,-0.29775911569595337,0.8797823786735535
1772785654304800500,4.849800537109375,0.9351602792739868,-0.4875341057777405,0.7801995873451233
1772785654314817800,4.85981787109375,0.4801725447177887,-0.10295815765857697,0.7450685501098633
1772785654324833500,4.86983349609375,-0.269268661737442,0.3980266749858856,0.759366512298584
1772785654334850600,4.8798505859375,-0.995536208152771,0.5492380261421204,0.9116649031639099
1772785654344866600,4.889866455078125,-1.5282714366912842,0.6051271557807922,1.0584423542022705
1772785654354882800,4.8998828125,-1.8741583824157715,0.6109449863433838,1.011466145515442
1772785654364899600,4.909899658203125,-1.9588046073913574,0.5200046896934509,0.8589284420013428
1772785654374915600,4.91991552734375,-1.9220643043518066,0.4507947266101837,0.7168760299682617
1772785654384932600,4.9299326171875,-1.847686767578125,0.43347620964050293,0.495140939950943
1772785654394948600,4.939948486328125,-1.6897597312927246,0.32051315903663635,0.2304040640592575
1772785654404964600,4.949964599609375,-1.5349241495132446,0.18688853085041046,0.2592026889324188
1772785654414981600,4.959981689453125,-1.4472798109054565,0.31246432662010193,0.5988945364952087
1772785654424997600,4.96999755859375,-1.3649303913116455,0.3680783212184906,0.9725285768508911
1772785654435014700,4.9800146484375,-1.256943941116333,0.4383896589279175,1.0899977684020996
1772785654445030700,4.99003076171875,-1.0824073553085327,0.5002884268760681,1.005761981010437
1772785654455046700,5.000046630859375,-0.8757380843162537,0.39894458651542664,0.930003821849823
1772785654465063700,5.010063720703125,-0.6620305776596069,0.16552521288394928,0.9827256798744202
1772785654475079400,5.020079345703125,-0.4793400764465332,-0.1214187890291214,1.0954623222351074
1772785654485096700,5.0300966796875,-0.2854140102863312,-0.39340290427207947,1.1761891841888428
1772785654495112700,5.04011279296875,-0.09941171109676361,-0.6647994518280029,1.2276225090026855
1772785654505128700,5.050128662109375,0.018975118175148964,-0.9284462332725525,1.338773488998413
1772785654515145500,5.0601455078125,0.08846732974052429,-1.057376503944397,1.5538408756256104
1772785654525161500,5.070161376953125,0.08139050751924515,-1.0606756210327148,1.7804648876190186
1772785654535178800,5.0801787109375,-0.016746457666158676,-0.9624550938606262,1.9097200632095337
1772785654545194800,5.09019482421875,-0.10762922465801239,-0.7823977470397949,1.8713937997817993
1772785654555210500,5.10021044921875,-0.1424606293439865,-0.590121328830719,1.7277135848999023
1772785654565227500,5.1102275390625,-0.0961621105670929,-0.35250023007392883,1.5306298732757568
1772785654575243800,5.120243896484375,0.06134070083498955,-0.1310248225927353,1.3662437200546265
1772785654585260500,5.130260498046875,0.2803713083267212,-0.002829837379977107,1.2961360216140747
1772785654595276500,5.140276611328125,0.46131348609924316,-0.027100637555122375,1.295706868171692
1772785654605292500,5.15029248046875,0.5162976384162903,-0.1100064367055893,1.2982814311981201
1772785654615309800,5.160309814453125,0.46965551376342773,-0.1837238073348999,1.2388890981674194
1772785654625325600,5.17032568359375,0.3425835967063904,-0.26986774802207947,1.092928409576416
1772785654635342600,5.180342529296875,0.19363918900489807,-0.5204429626464844,0.8868106603622437
1772785654645358600,5.190358642578125,0.06327373534440994,-0.8095794320106506,0.6717047095298767
1772785654655374600,5.20037451171875,-0.0888768658041954,-0.9487853050231934,0.533125102519989
1772785654665391600,5.2103916015625,-0.21197162568569183,-0.8798137307167053,0.47716671228408813
1772785654675407600,5.22040771484375,-0.25130629539489746,-0.6453610062599182,0.47287818789482117
1772785654685423600,5.230423583984375,-0.21734781563282013,-0.3927029073238373,0.465719074010849
1772785654695440600,5.240440673828125,-0.14946410059928894,-0.22820237278938293,0.43004363775253296
1772785654705456400,5.250456298828125,-0.13179616630077362,-0.2731086015701294,0.33911800384521484
1772785654715473700,5.2604736328125,-0.21141237020492554,-0.4090937376022339,0.16501659154891968
1772785654725489700,5.27048974609375,-0.3499670624732971,-0.6554153561592102,-0.07973217219114304
1772785654735505700,5.280505615234375,-0.46438488364219666,-0.9705489873886108,-0.34112581610679626
1772785654745522400,5.2905224609375,-0.5046939849853516,-1.2408305406570435,-0.5285952687263489
1772785654755538700,5.30053857421875,-0.4575033187866211,-1.3083666563034058,-0.635925829410553
1772785654765555700,5.3105556640625,-0.3965164124965668,-1.4322209358215332,-0.6435137391090393
1772785654775571700,5.32057177734375,-0.26021963357925415,-1.0430783033370972,-0.6497049927711487
1772785654785587500,5.33058740234375,-0.04832334443926811,-1.1164897680282593,-0.5824854969978333
1772785654795604700,5.340604736328125,0.017487503588199615,-0.8532817959785461,-0.4218982458114624
1772785654805620700,5.350620849609375,-0.04066048562526703,-0.740468442440033,-0.29332298040390015
1772785654815637500,5.360637451171875,-0.1875467598438263,-1.1048811674118042,-0.17909672856330872
1772785654825653500,5.370653564453125,-0.32364892959594727,-1.6598576307296753,0.08930915594100952
1772785654835669500,5.38066943359375,-0.3930758833885193,-1.8337119817733765,0.5032743811607361
1772785654845686800,5.390686767578125,-0.2954345643520355,-1.5115420818328857,0.7979776859283447
1772785654855702500,5.40070263671875,-0.012859529815614223,-0.9139010906219482,0.9626290202140808
1772785654865719600,5.410719482421875,0.30392852425575256,-0.37430521845817566,1.0491141080856323
1772785654875735600,5.420735595703125,0.5847699642181396,-0.004850514233112335,0.9007163047790527
1772785654885751800,5.430751708984375,0.8069726228713989,0.18282298743724823,0.5883360505104065
1772785654895768600,5.4407685546875,0.9228401780128479,0.14161452651023865,0.27850139141082764
1772785654905784600,5.45078466796875,0.8906676173210144,-0.14568009972572327,0.06557979434728622
1772785654915801600,5.460801513671875,0.7557188868522644,-0.604852020740509,-0.019008604809641838
1772785654925817900,5.47081787109375,0.6659389138221741,-0.8971968293190002,-0.044444456696510315
1772785654935833600,5.48083349609375,0.6153311133384705,-0.7456933856010437,-0.12484220415353775
1772785654945850600,5.4908505859375,0.5695047378540039,-0.4160798490047455,-0.17689980566501617
1772785654955866600,5.50086669921875,0.5310330390930176,-0.13984936475753784,-0.11900918930768967
1772785654965882600,5.510882568359375,0.5104369521141052,0.0027477270923554897,-0.04413574934005737
1772785654975899600,5.520899658203125,0.4858960509300232,0.022045988589525223,-0.0013675204245373607
1772785654985915600,5.53091552734375,0.44348201155662537,0.020375385880470276,-0.026294441893696785
1772785654995932700,5.5409326171875,0.3887978196144104,0.03280928358435631,-0.13212408125400543
1772785655005948400,5.550948486328125,0.32838666439056396,0.08725307881832123,-0.3031269907951355
1772785655015964400,5.56096435546875,0.2657812237739563,0.14588679373264313,-0.4807699918746948
1772785655025981700,5.570981689453125,0.2372412085533142,0.19451424479484558,-0.570634663105011
1772785655035997700,5.580997802734375,0.23732280731201172,0.18776755034923553,-0.5405916571617126
1772785655046014700,5.5910146484375,0.24465981125831604,0.11401662975549698,-0.40567728877067566
1772785655056030700,5.60103076171875,0.24733370542526245,0.06035196781158447,-0.22816430032253265
1772785655066046700,5.611046630859375,0.22386431694030762,0.03451557829976082,-0.06583770364522934
1772785655076063700,5.621063720703125,0.18672312796115875,0.05805298313498497,0.04574855789542198
1772785655086079500,5.63107958984375,0.14862793684005737,0.11620204150676727,0.09057541191577911
1772785655096096800,5.6410966796875,0.11577246338129044,0.14506962895393372,0.05611434578895569
1772785655106112800,5.65111279296875,0.11410985887050629,0.16418980062007904,-0.037783652544021606
1772785655116128800,5.661128662109375,0.15298886597156525,0.18845024704933167,-0.15078575909137726
1772785655126145500,5.6711455078125,0.1832466423511505,0.2100231796503067,-0.20864611864089966
1772785655136161800,5.681161865234375,0.2254907488822937,0.14384573698043823,-0.11787864565849304
1772785655146177800,5.691177734375,0.2751360833644867,0.06676612794399261,-0.0013331222580745816
1772785655156194600,5.701194580078125,0.2812388241291046,0.020149853080511093,0.16077078878879547
1772785655166210600,5.71121044921875,0.26155540347099304,-0.005883080884814262,0.3322325646877289
1772785655176227800,5.721227783203125,0.2542419731616974,0.0783686414361,0.38596153259277344
1772785655186243800,5.731243896484375,0.2302362471818924,0.30998295545578003,0.22887711226940155
1772785655196259800,5.741259765625,0.17602486908435822,0.5353997349739075,-0.04296576976776123
1772785655206276600,5.751276611328125,0.12150649726390839,0.6963348388671875,-0.3216453194618225
1772785655216292600,5.761292724609375,0.06920412927865982,0.7484350204467773,-0.5300453901290894
1772785655226310000,5.771309814453125,0.02420976012945175,0.747040331363678,-0.6444047689437866
1772785655236325600,5.78132568359375,-0.018198814243078232,0.7312483787536621,-0.6616188287734985
1772785655246341600,5.791341552734375,-0.05519598349928856,0.6975492835044861,-0.5854995250701904
1772785655256358700,5.801358642578125,-0.0777725949883461,0.6843545436859131,-0.42766016721725464
1772785655266374700,5.811374755859375,-0.09059252589941025,0.6876997351646423,-0.23042777180671692
1772785655276391000,5.821390869140625,-0.08023013919591904,0.6795408725738525,-0.09110675007104874
