time,seconds_elapsed,z,y,x
1772741672562916400,0.057916259765625,-0.013301380121707916,0.09111121704373508,0.07852825085707009
1772741672572931300,0.067931396484375,0.056792146801948544,0.04801456424761563,0.06568586654923855
1772741672582947300,0.077947265625,0.020894319468736648,-0.0013617168072611093,0.02606215056069195
1772741672592962300,0.08796240234375,0.02343406707942486,-0.003786971192806959,-0.00029445290192961694
1772741672602978300,0.097978271484375,-0.04868716627955436,0.029109117041155694,0.03268661020174622
1772741672612993300,0.1079931640625,-0.07189268530011177,0.06402304790355265,-0.029517186385393142
1772741672623008300,0.11800830078125,0.08819792341291904,0.09397128264997154,0.0038945232205092905
1772741672633024300,0.128024169921875,0.16817630001306533,0.08736454132869839,0.028806626963242887
1772741672643039200,0.138039306640625,0.2519412094146013,0.052084151774086054,0.008422229778021574
1772741672653055200,0.14805517578125,0.44815001021325584,0.011295374061539768,0.02472681030370295
1772741672663070200,0.1580703125,0.5489192459076643,0.014669051745720207,0.06237023919522762
1772741672673086500,0.16808642578125,0.4314917208790779,-0.03811996036209166,0.1675266769979149
1772741672683101200,0.17810107421875,0.2886579519152641,-0.0474530031084083,0.21020671181716025
1772741672693117400,0.188117431640625,0.135787357583642,0.09503149576000869,0.1692879145167768
1772741672703132400,0.19813232421875,-0.03856149358451366,0.09606306729745119,0.11505327017791568
1772741672713148400,0.2081484375,-0.28161563218832014,0.022601452180184424,0.10786796178370714
1772741672723163400,0.218163330078125,-0.4141144696205854,-0.027269188262894747,0.09580131108872592
1772741672733179400,0.228179443359375,-0.4732885431230068,-0.010972279587015509,0.04273483374640345
1772741672743194400,0.2381943359375,-0.4702086972862482,0.029180081651825455,-0.020056334274634716
1772741672753210400,0.24821044921875,-0.3921300168275833,0.03991477135699242,-0.08547390527650714
1772741672763225300,0.258225341796875,-0.2536637954235077,0.06067032167585566,-0.09112546476479619
1772741672773241300,0.268241455078125,0.04104863422513008,0.0620922807703726,0.00014843202736228704
1772741672783256300,0.27825634765625,0.2940390604317188,0.0644884734582156,0.08802523372713476
1772741672793272300,0.288272216796875,0.43287119253873824,0.0733757817310281,0.0984279332652688
1772741672803287300,0.298287353515625,0.5101987623691558,0.08706137539735063,0.04863452277686447
1772741672813303300,0.30830322265625,0.499422516810894,0.017251853046845643,0.001137625727802515
1772741672823318300,0.318318359375,0.4738847554504871,-0.02536085215723142,-0.05403930442985147
1772741672833334300,0.328334228515625,0.4314297615587711,-0.014595931710582226,-0.10194017916992307
1772741672843349200,0.338349365234375,0.4159843551456928,0.014804277231637387,-0.11669530176389961
1772741672853365200,0.348365234375,0.3165963446766138,0.015182937818299979,-0.12672244598791002
1772741672863380200,0.358380126953125,0.2220131041407585,-0.00253448691368103,-0.11370360913462936
1772741672873396500,0.368396484375,0.16344693340361116,-0.0005416873949579894,-0.09032587535232305
1772741672883411500,0.378411376953125,-0.01835807898938656,0.007828556467499583,-0.030706798028759655
1772741672893427500,0.388427490234375,-0.3101771252840757,0.04587247418500483,-0.02220178533811122
1772741672903442400,0.3984423828125,-0.5406400778621435,0.12766398288803174,-0.05379252659454942
1772741672913458400,0.40845849609375,-0.5109995573580265,0.14292418719362468,-0.08018624719716608
1772741672923473400,0.418473388671875,-0.2815869906157255,0.057844231404457234,-0.052143846072070295
1772741672933489400,0.428489501953125,0.04726911617517471,-0.013690379439294338,-0.015286051132902502
1772741672943504400,0.43850439453125,0.27921090913414953,-0.02171774641452357,0.020380890053883195
1772741672953520400,0.448520263671875,0.3716536305099726,-0.04341711692214012,0.05048343857917934
1772741672963535400,0.458535400390625,0.354263519769907,-0.03209162171697244,0.06846581612396985
1772741672973551400,0.46855126953125,0.32029636823832985,0.020558383778948336,0.07425419026706367
1772741672983566300,0.47856640625,0.2525485276579857,0.0262869540262036,0.03340820247456431
1772741672993582300,0.488582275390625,0.23234745115041733,0.02113559914501384,0.028426468539237974
1772741673003597300,0.498597412109375,0.16080781707167624,-0.0014051175575703382,0.0516064877923578
1772741673013613300,0.50861328125,-0.05125146380960941,-0.01903669063700363,0.004646802892535925
1772741673023628300,0.518628173828125,-0.1914741734921932,0.03403499260339886,-0.003946984060108662
1772741673033644300,0.528644287109375,-0.25349428407549857,0.07062094833124428,0.02503916418850422
1772741673043659300,0.5386591796875,-0.23062428061962126,0.07444905525203793,0.0061040159635245795
1772741673053675500,0.548675537109375,-0.13097966504096983,0.037346436972636725,-0.042788536695018406
1772741673063690200,0.558690185546875,0.0748626410216093,0.012745463271997869,-0.040052791588194664
1772741673073705200,0.568705322265625,0.2552636318355799,-0.006590995762869715,-0.0010782236907631159
1772741673083721500,0.578721435546875,0.31569442740082737,-0.015436547253187745,0.0519224218737334
1772741673093736400,0.588736328125,0.24475042112767695,0.009495302369631826,0.0878520691173151
1772741673103752400,0.59875244140625,0.10033552045226096,0.04241411389205604,0.04520421953462064
1772741673113767400,0.608767333984375,-0.002091419321298599,0.02678354190411046,-0.0024016908468678594
1772741673123783400,0.618783447265625,-0.087707509547472,0.03874444893598556,-0.025961028273776172
1772741673133798400,0.62879833984375,-0.1168166996538639,0.03093244174448773,-0.037257388716004786
1772741673143814400,0.638814453125,-0.06504091970920563,0.030377712204866108,-0.04697378649041056
1772741673153829400,0.648829345703125,0.031360183903574944,0.04291722284229472,-0.06103526426441967
1772741673163845400,0.658845458984375,0.15243746361136434,0.03892135813916102,-0.024858510391972958
1772741673173860400,0.6688603515625,0.248321849873662,0.03802294799471274,-0.005917772676423192
1772741673183876400,0.67887646484375,0.29534780494272705,0.0028895474290475246,-0.02482833444941789
1772741673193891300,0.688891357421875,0.25890929486155506,-0.008223601933382452,-0.044048108302056785
1772741673203907300,0.6989072265625,0.16989245628118513,0.04145221005734056,-0.03270067525971681
1772741673213922300,0.70892236328125,0.09698913263380526,0.06935138505315408,-0.008186886652186512
1772741673223938300,0.718938232421875,-0.02848901238143444,0.06036233343891799,0.022172376580536363
1772741673233953300,0.728953369140625,-0.1632534566581249,-0.014017876094300299,-0.008869498621486126
1772741673243969300,0.73896923828125,-0.27070903824865816,-0.06705963912047445,-0.05994005290623754
1772741673253984300,0.748984375,-0.2378419569134712,-0.06791421012319623,-0.07896934568807482
1772741673264000300,0.759000244140625,-0.09217091869711876,-0.042705772048700595,-0.10164159808214754
1772741673274015200,0.76901513671875,0.1642956591874361,0.00789097244553268,-0.0881624867733568
1772741673284031500,0.779031494140625,0.4153799595117569,0.0029617541487328707,-0.0215866491144523
1772741673294046500,0.78904638671875,0.5771066449940204,-0.005164945015124977,0.14666176628675312
1772741673304062500,0.7990625,0.5080629193842411,0.014620956553984432,0.2593920734098181
1772741673314077400,0.809077392578125,0.2293810025602579,0.043194377549551424,0.2268500958431512
1772741673324093400,0.819093505859375,-0.00007832593321800231,0.07083638118021189,0.12930230641327797
1772741673334108400,0.8291083984375,-0.15322481459677217,0.07182599500576034,0.06691434889826924
1772741673344124400,0.83912451171875,-0.20344693535864353,0.04814378011785447,0.060167760714888566
1772741673354139400,0.849139404296875,-0.13322715170681476,0.03254009613683447,0.1017081970449537
1772741673364155400,0.8591552734375,-0.12179214997887611,0.02202228231905028,0.14332045650221406
1772741673374170400,0.86917041015625,-0.273277427431941,0.035134843604080375,0.09126381378956139
1772741673384186400,0.879186279296875,-0.3382563878208399,0.06674019790776073,0.006068871584907174
1772741673394201300,0.889201416015625,-0.3031669542610645,0.056977202778961504,-0.07978899150788783
1772741673404217300,0.89921728515625,-0.09891630130410194,0.026324235562980174,-0.11983590134456754
1772741673414232300,0.909232421875,0.12785948719382284,-0.003068064067419618,-0.11775010804645716
1772741673424248300,0.919248291015625,0.35715456503629683,-0.06769174474524334,-0.11631159967593847
1772741673434263300,0.92926318359375,0.5445312400817871,-0.09832251839572563,-0.053700866255722936
1772741673444278300,0.9392783203125,0.5315531005650759,-0.10092698353938757,-0.038522403683140874
1772741673454294300,0.949294189453125,0.3455354389131069,-0.0355785322509706,-0.020066051951050757
1772741673464309200,0.959309326171875,0.07299976975917816,0.05177499449336901,-0.008728190454654394
1772741673474325200,0.9693251953125,-0.11336217528581619,0.08673689268333837,-0.09561210865955799
1772741673484340200,0.97934033203125,-0.12755962746441363,0.0496366124914959,-0.14363467355053872
1772741673494356500,0.9893564453125,-0.08381693184971808,-0.03076786229992285,-0.1361315313788131
1772741673504371500,0.999371337890625,0.0260159002661705,-0.016338720257300883,-0.1052571216981858
1772741673514387500,1.009387451171875,0.16251228290200231,0.015602003480587153,-0.06430142645351589
1772741673524402400,1.01940234375,0.2681400645434856,0.00977340692495927,-0.0032016455855220552
1772741673534418400,1.02941845703125,0.35672961762249467,0.004228833208791911,0.06518146069105714
1772741673544433400,1.039433349609375,0.3231932587236166,0.04118263586834073,0.06735558985974639
1772741673554449400,1.049449462890625,0.23836685757040976,0.04325003499323502,0.05014054342564195
1772741673564464400,1.05946435546875,0.18067980775535106,0.04503637042073533,0.06016027152817696
1772741673574480400,1.06948046875,0.11867606378495693,0.024169633078668266,0.06072773268520832
1772741673584495400,1.079495361328125,-0.10653145248293876,0.0057180123206228015,0.05266129407491535
1772741673594511400,1.089511474609375,-0.3263216198772192,0.01832704453030601,-0.047126017910055815
1772741673604526300,1.0995263671875,-0.4574386475622654,0.02778079104684293,-0.13076846997570246
1772741673614542300,1.109542236328125,-0.36464755114018915,0.012767455908097325,-0.10556516473405063
1772741673624557300,1.119557373046875,-0.0940033948212862,-0.006346720411907881,-0.02128912747260183
1772741673634573300,1.1295732421875,0.19597849917411803,-0.005701225582603365,0.05636365572419017
1772741673644588300,1.13958837890625,0.3758697869002819,-0.041157519693393256,0.09669467973187565
1772741673654604300,1.149604248046875,0.4417226075142622,-0.04990341020151973,0.08553549927063286
1772741673664619300,1.159619384765625,0.44542847629487514,-0.06187091137096285,0.09150215259008108
1772741673674635500,1.169635498046875,0.34453532195985315,0.004718753883894532,0.10747256925795226
1772741673684650200,1.179650146484375,0.2668430104702711,0.0741932721263729,0.12612732963897288
1772741673694666500,1.18966650390625,0.0907137056261301,0.081115381273441,0.11226871749330311
1772741673704681500,1.199681396484375,-0.21502514494955538,0.07162641731305047,0.0637034240277484
1772741673714697500,1.209697509765625,-0.44685529422760006,0.049372865255083886,-0.007420761117897927
1772741673724712400,1.21971240234375,-0.4794932429820299,0.07602841513166203,-0.05406831132862717
1772741673734728400,1.229728515625,-0.24855098245441912,0.03723910414064303,-0.0746040996832773
1772741673744743400,1.239743408203125,0.13738894756138323,-0.03230539233181626,0.00649597442317754
1772741673754758400,1.24975830078125,0.4060048129230737,-0.05871454796558246,0.061561005171574645
1772741673764774400,1.2597744140625,0.42325873006284237,-0.03443033033022657,0.06132493139337748
1772741673774789400,1.269789306640625,0.2661246330678463,-0.004748217440396547,0.011967939560860395
1772741673784805400,1.279805419921875,0.13545242654085157,0.032405162911862136,-0.07184318360257894
1772741673794820400,1.2898203125,0.12601765871942042,0.07954875301122664,-0.07562873002327979
1772741673804836400,1.29983642578125,0.10291969172656536,0.06507023713523521,-0.034226569652743635
1772741673814851300,1.309851318359375,-0.08411912966668605,0.029781043219659475,-0.028548049092292783
1772741673824867300,1.319867431640625,-0.35055765098929403,-0.012591332156211136,-0.08203297104239464
1772741673834882300,1.32988232421875,-0.4830138183236122,0.03563418969465419,-0.12867650266513228
1772741673844898300,1.339898193359375,-0.3824532569438219,0.06934020607201383,-0.1173857682460919
1772741673854913300,1.349913330078125,-0.12486030537784099,0.05703897943617776,-0.08070194163434206
1772741673864929300,1.35992919921875,0.09041559946238995,0.020248313182778654,-0.0007812135055661201
1772741673874944300,1.3699443359375,0.3105576490342617,0.059643060987349596,0.028890177060849963
1772741673884960500,1.37996044921875,0.4518120398521423,0.028869042941275982,0.030534729397483168
1772741673894975200,1.389975341796875,0.45144729819297785,-0.0017485972329974173,0.07138707386553288
1772741673904991500,1.399991455078125,0.33776012873649597,0.03010026523666456,0.05782514311149716
1772741673915006500,1.41000634765625,0.17085925548672676,0.056146250113844866,0.0058239203805103895
1772741673925022500,1.4200224609375,-0.030258944663405417,0.03220686386078596,-0.04144618217535317
1772741673935037400,1.430037353515625,-0.0750064334064722,0.055704972619749604,-0.051118777340650554
1772741673945053400,1.440053466796875,-0.0145873282790184,0.053432114050630475,-0.003909939985349774
1772741673955068400,1.450068359375,0.0650239685744047,0.05356796059105545,0.03399173798356205
1772741673965084400,1.46008447265625,0.14749182390272617,0.0431020778899081,0.03211991622969508
1772741673975099400,1.470099365234375,0.1518424203276634,0.005084207929112017,0.029739231638237832
1772741673985115400,1.480115478515625,0.13775310469865798,-0.027851025005150586,0.0385030048629269
1772741673995130400,1.49013037109375,0.09203706318438053,0.019343290634453295,0.01631411553900689
1772741674005146400,1.500146484375,0.06215805774927139,0.020492369338031856,0.007803294162079691
1772741674015161300,1.510161376953125,0.0651812049627304,0.02011069481037557,0.04965064101684838
1772741674025177300,1.52017724609375,0.07578560108542443,0.051094738877937196,0.11008077899497001
1772741674035192300,1.5301923828125,0.016021160474419593,0.06375383904073387,0.0900467296173796
1772741674045207300,1.540207275390625,-0.04072364005446434,0.06416360715171322,0.03762213037516922
1772741674055223300,1.550223388671875,-0.05161737451255321,0.02079469501916319,-0.010466485489346086
1772741674065238300,1.56023828125,-0.022020693150162696,0.017766835097968576,-0.05130480143204331
1772741674075254300,1.570254150390625,0.007343933022022247,0.00872424493189901,-0.06229403215385973
1772741674085269200,1.580269287109375,0.06727145524024963,0.005243490144051611,-0.029437435680069027
1772741674095285200,1.59028515625,0.1706955893576145,0.03569945521689951,0.009736892573162913
1772741674105300200,1.60030029296875,0.2183750398993492,0.004591583840269595,-0.0038119595035910605
1772741674115316500,1.61031640625,0.20895839225649832,0.00018560396628454327,-0.01379584910776466
1772741674125331500,1.62033154296875,0.1290869831621647,0.010202409459371118,0.033167050662450494
1772741674135347500,1.630347412109375,-0.008521160107851028,0.04127758414279669,0.006887713687121867
1772741674145362400,1.640362548828125,-0.14851999790668485,0.03392607060251757,-0.022885895144753157
1772741674155378400,1.65037841796875,-0.21270926922261713,0.031139855683781206,-0.021296178267896173
1772741674165393400,1.660393310546875,-0.2375415126621723,0.01686276239771396,-0.04933434160929173
1772741674175409400,1.670409423828125,-0.14605623814165591,-0.007032328055892139,-0.01731225973088294
1772741674185424400,1.68042431640625,0.06373802041709423,-0.03585937675265595,0.025091186636686323
1772741674195440400,1.6904404296875,0.27409049738049507,-0.06756327779367566,0.038243696339614684
1772741674205455400,1.700455322265625,0.3919803792238235,-0.07218542116899043,0.03563212560173124
1772741674215471400,1.710471435546875,0.3842915782868862,-0.05678617371888831,0.06717307289969175
1772741674225486300,1.720486328125,0.25420038651823995,0.00952759720403701,0.11434066492915153
1772741674235502300,1.73050244140625,0.15114859284460544,0.05922273494973778,0.08803107894603163
1772741674245517300,1.740517333984375,0.12065817751288413,0.04259489555275067,0.07192636837400496
1772741674255533300,1.750533203125,-0.014933949759602546,0.0054567675685510035,0.09992598980329931
1772741674265548300,1.76054833984375,-0.26244448325037956,0.01395010808771476,-0.022985665724799036
1772741674275564300,1.770564208984375,-0.32597324483096596,0.01946260616518557,-0.08735986515358089
1772741674285579300,1.780579345703125,-0.2611655493557453,0.01861535995239392,-0.02191595413405448
1772741674295595500,1.790595458984375,-0.17379998511373995,0.07739329201038926,0.04102134435940533
1772741674305610200,1.8006103515625,-0.04028349507153034,0.07438813711134716,0.029174473894946276
1772741674315625200,1.810625244140625,0.12528057661652564,0.008339446865394711,0.02802267351131886
1772741674325641500,1.820641357421875,0.2744546545177698,-0.005725172713771462,0.06477704460863024
1772741674335656400,1.830656494140625,0.3747404906094074,-0.01815219942005351,0.0481358525397256
1772741674345672400,1.84067236328125,0.4365940124541521,-0.029647388636320826,0.042751163826696574
1772741674355687400,1.8506875,0.41449557789266106,-0.0033508082652464505,0.07825714229810983
1772741674365703400,1.860703369140625,0.20848902117908,0.038608090938907116,0.07598017380945384
1772741674375718400,1.870718505859375,-0.03556114272475242,0.0563661947411485,0.03644409957174211
1772741674385734400,1.880734375,-0.17896832766234874,0.08294873418044299,0.018644494715332985
1772741674395749400,1.890749267578125,-0.20174246952831745,0.0889422755068168,0.018865261326543984
1772741674405765400,1.900765380859375,-0.11406126346588134,0.06159551022937521,0.014576697287149727
1772741674415780400,1.9107802734375,0.05594751267135143,0.005050396991055459,0.0060957595918327565
1772741674425796400,1.92079638671875,0.1603431221693754,-0.038008554143179205,0.008963643178343772
1772741674435811300,1.930811279296875,0.2055523832052946,-0.0040563079197891054,-0.02113123349715024
1772741674445827300,1.940827392578125,0.23544950881898402,0.01642760411715135,-0.04163016044013202
1772741674455842300,1.95084228515625,0.24225334361493586,0.0009173157743178307,-0.01868219637721777
1772741674465858300,1.9608583984375,0.15406477255225182,-0.01320688850497827,0.000806859403476119
1772741674475873300,1.970873291015625,-0.042832595032453534,0.02366394857885316,-0.033774332373216746
1772741674485889300,1.98088916015625,-0.17543547736108303,0.05332607812657952,-0.06595357757471501
1772741674495904300,1.990904296875,-0.18758301127254962,0.07207056261766702,-0.07959872963279485
1772741674505920500,2.00092041015625,-0.14631985751390456,0.052518981261085715,-0.057437276305072005
1772741674515935200,2.010935302734375,0.003817512461543083,0.01887541739437729,-0.0561748551538214
1772741674525951500,2.020951416015625,0.14198504317998886,-0.00598709331927821,-0.020339571662805974
1772741674535966500,2.030966552734375,0.212763629758358,0.0010075148084200919,0.008636785844154655
1772741674545982500,2.040982421875,0.2680664147853851,0.0214630958000198,0.013907858114875852
1772741674555997400,2.05099755859375,0.25057284367084504,0.024190675866696983,0.013039112456329166
1772741674566013400,2.061013427734375,0.1659597930073738,0.025091460631322116,-0.0031434856574982404
1772741674576028400,2.0710283203125,0.089811203828454,0.01102379057854414,0.0018053323889151214
1772741674586043400,2.08104345703125,-0.03976794676482677,0.02754745721500367,0.030432145805843174
1772741674596059400,2.091059326171875,-0.16970950092971324,0.043852403066866094,0.02246215330734849
1772741674606074400,2.101074462890625,-0.18799860633611679,0.041597810806799675,-0.019124971708655358
1772741674616090400,2.11109033203125,-0.07772913636863231,0.04694879817962646,-0.02847761420458555
1772741674626105300,2.121105224609375,0.09562193593382835,0.040993908363208174,-0.009393120636790991
1772741674636121300,2.131121337890625,0.272093186083436,0.007990231568925083,0.00946494376398623
1772741674646136300,2.14113623046875,0.3222983557105064,0.0015799261352047323,0.06261657863911241
1772741674656152300,2.15115234375,0.2210679322451353,0.02260170790851116,0.06317001127079129
1772741674666167300,2.161167236328125,0.058525254204869266,0.04445621417891234,0.06601133564393967
1772741674676183300,2.171183349609375,-0.11211363652944564,0.06964824910787865,0.02139909065309912
1772741674686198300,2.1811982421875,-0.19226152447760103,0.0357776715522632,-0.01701974305771291
1772741674696214300,2.19121435546875,-0.1338707103073597,0.0019312785898335278,0.01105769284814596
1772741674706229200,2.201229248046875,-0.013027239355444907,0.009533625086024403,0.035925774786062535
1772741674716245500,2.21124560546875,0.07533610375225544,-0.03444468764914199,0.00598155862763524
1772741674726260200,2.22126025390625,0.12536240968108175,-0.04340392864700406,-0.037406368732638653
1772741674736276500,2.2312763671875,0.16129530832767486,0.001440828191768378,-0.03721555886827409
1772741674746291500,2.24129150390625,0.16370470755696295,0.04782759030815214,-0.03625515287090093
1772741674756307500,2.251307373046875,0.13436521582603453,0.035197697973530735,-0.021196480753086507
1772741674766322400,2.261322509765625,0.13102818035781383,0.03923387642074376,-0.013199782910756765
1772741674776338400,2.27133837890625,0.1203109715104103,0.03515583159318193,0.017074870778433976
1772741674786353400,2.281353515625,0.028740941315889355,0.04269859338924289,0.011709471287764608
1772741674796369400,2.291369384765625,-0.051399347847700116,0.0433190633751452,-0.0019647972669452427
1772741674806384400,2.30138427734375,0.02939209870100021,0.031828988725412635,0.008123173766210674
1772741674816400400,2.311400390625,0.056012394601106644,0.01868153879009187,0.09335052040312439
1772741674826415400,2.321415283203125,0.0496790999263525,0.05639430659078061,0.09301847543716431
1772741674836431400,2.331431396484375,0.06414309408664703,0.04202330620987341,0.0734240230532363
1772741674846446300,2.3414462890625,0.04417816442251205,-0.0025244039110839367,0.05191621132865548
1772741674856462300,2.35146240234375,0.03453881393969059,0.012855773512367158,0.029991745094582436
1772741674866477300,2.361477294921875,0.07430559166073798,0.02051575021361932,-0.010784392332099378
1772741674876492300,2.3714921875,0.18395780651271343,0.024211609056871385,-0.00822305394411087
1772741674886508300,2.38150830078125,0.2513362292587757,0.015077870008628815,0.040856363056041296
1772741674896523300,2.391523193359375,0.2563333068937063,-0.001078461152780801,0.04113850446566939
1772741674906539300,2.401539306640625,0.2106499986052513,-0.0011095686770975588,-0.004228979339264333
1772741674916554200,2.41155419921875,0.09202303465902804,-0.01857749389372766,-0.031613647207990286
1772741674926570200,2.4215703125,-0.05785889925062656,-0.012478629029355943,-0.11107640243619679
1772741674936585200,2.431585205078125,-0.09580956746041774,0.008777180695533751,-0.14771653603669255
1772741674946601500,2.4416015625,-0.04834054479897022,-0.02830923536773771,-0.09906904418040066
1772741674956616400,2.451616455078125,0.01741290709376335,-0.0316657061887905,-0.02238013757970184
1772741674966632400,2.461632568359375,0.05020224701762199,0.013702508268505335,0.013432641818560659
1772741674976647400,2.4716474609375,0.05271218401193618,0.029461656805872916,0.03612597353328019
1772741674986663400,2.481663330078125,-0.03996668420732021,0.04544814782571047,0.03610054683107883
1772741674996678400,2.491678466796875,-0.056742462441325185,0.08140015303157269,0.00702686642948538
1772741675006694400,2.5016943359375,-0.023625790259242056,0.047844614508189255,-0.037260019064508376
1772741675016709400,2.51170947265625,-0.02787935605049133,-0.01513447730038315,-0.02297488860245794
1772741675026725400,2.521725341796875,-0.0864350053936243,0.021635018300823865,-0.029832170618698
1772741675036740400,2.531740234375,-0.12952128292620183,0.051192098305188116,-0.018179653682559728
1772741675046756400,2.54175634765625,-0.11971066752970218,0.03299702785778791,0.01700556840188801
1772741675056771300,2.551771240234375,-0.06406944432854653,0.02211556835938245,0.03230849760435522
1772741675066787300,2.561787353515625,-0.043857261905074114,0.019697182106040417,0.01696878005545586
1772741675076802300,2.57180224609375,0.05222703084349632,-0.006735664930567145,0.010252148618921637
1772741675086818300,2.581818359375,0.1775894405245781,-0.0034053879966959356,0.00544310436937958
1772741675096833300,2.591833251953125,0.2777151176184416,-0.008840400391165166,-0.0037480639545246957
1772741675106849300,2.601849365234375,0.34134500148594377,-0.012601049832627177,0.03539097378961742
1772741675116864300,2.6118642578125,0.35768764899969097,0.012155224027577786,0.058506512971781194
1772741675126880500,2.621880615234375,0.26768179938197134,0.03106854401323944,0.08050992619358002
1772741675136895200,2.631895263671875,0.09546119241416454,-0.010397639770526438,0.042174861776083705
1772741675146910200,2.64191015625,-0.11234101554453373,0.009969714948348701,-0.00513593811634928
1772741675156926500,2.651926513671875,-0.17544892136454582,0.01887286011110991,-0.022737645780481396
1772741675166941400,2.66194140625,-0.13125848198235035,0.0074934244953095905,0.006492065433040261
1772741675176957400,2.67195751953125,-0.014690788653492926,0.019498298533074557,0.028154483197443184
1772741675186972400,2.681972412109375,0.1218055939823389,0.008067845116090029,0.038387379126623274
1772741675196988400,2.691988525390625,0.24030396311283111,-0.014996274406090377,0.06800977945216
1772741675207003400,2.70200341796875,0.27206805164217945,-0.013123941195569932,0.08955474484935402
1772741675217019400,2.712019287109375,0.23487843093276023,0.042053025494702155,0.10742613630034029
1772741675227034400,2.722034423828125,0.09707096569836139,0.07787897490179166,0.08020944540966302
1772741675237050400,2.73205029296875,0.03918108678758144,0.06446268142983318,0.01633289330471307
1772741675247065300,2.7420654296875,0.013023147702217101,0.02805374450301751,0.029083763404190537
1772741675257081300,2.752081298828125,-0.09034019613862038,0.05935867282170802,0.021923260657675563
1772741675267096300,2.762096435546875,-0.14887480269372463,0.05648629572317004,-0.018525471445545554
1772741675277112300,2.7721123046875,-0.09956862773299216,0.011866159686818718,-0.032252821894362564
1772741675287127300,2.782127197265625,0.028200843089818954,-0.014687208456918597,-0.06849745337124913
1772741675297143300,2.792143310546875,0.16972703658640384,-0.003784907099884003,-0.07579298067428171
1772741675307158300,2.802158203125,0.2481950086236,-0.005468202278017998,-0.07840170186795294
1772741675317174300,2.81217431640625,0.21913433383405206,-0.005482815325260162,-0.035118038599751884
1772741675327189200,2.822189208984375,0.11892916176319121,0.034552166611608114,-0.013288520640134811
1772741675337205500,2.83220556640625,0.048937341648340224,0.05186660003326833,-0.028774807052873073
1772741675347220200,2.84222021484375,0.0015735329270362853,0.03357851754017174,-0.03869823517408222
1772741675357236500,2.852236572265625,-0.028829204121232032,0.014193981579877436,-0.0099049060838297
1772741675367251500,2.86225146484375,-0.00038519992530345915,0.012686883218865842,0.0008813494117930531
1772741675377267500,2.872267333984375,-0.007233458384871483,0.04608083797236904,-0.0033672114107757803
1772741675387282400,2.882282470703125,0.030548282998800275,0.06214687876813113,0.006937872971780598
1772741675397298400,2.89229833984375,0.07104688212573528,0.061443315342348065,0.05158098802492022
1772741675407313400,2.9023134765625,0.13503040173649788,0.060305945342872286,0.08696878347676247
1772741675417329400,2.912329345703125,0.2168985376060009,0.05126200346993282,0.08935056404676288
1772741675427344400,2.922344482421875,0.2579530170500278,0.01646283982731402,0.06238850550428032
1772741675437359400,2.932359375,0.1905593967348337,0.008388437106274068,0.04254727528505027
1772741675447375400,2.942375244140625,0.09227321002781391,0.05030214546183124,0.02657094033304602
1772741675457390300,2.952390380859375,-0.008824526968598366,0.08493278413712978,0.016227898560278117
1772741675467406300,2.96240625,-0.13502338747382164,0.07435253607500344,0.008098039324954152
1772741675477420800,2.9724208984375,-0.18944938966631888,0.064890295724757,0.0039464726034551855
1772741675487436800,2.982436767578125,-0.13423895909786224,0.046921873640082774,0.017829196277074515
1772741675497451800,2.99245166015625,-0.03482464514374733,0.007481770590133965,0.002116261501610279
1772741675507467800,3.0024677734375,0.09872516264617442,0.013322094116173683,-0.014332330604642628
1772741675517482800,3.012482666015625,0.24450316836833952,-0.002150456032156944,-0.05104118205979466
1772741675527498800,3.022498779296875,0.2867588402956724,-0.03267641760129481,-0.04243051703758537
1772741675537513700,3.032513671875,0.06867839942872524,-0.02453800973333418,-0.03470781383104622
1772741675547530000,3.042530029296875,-0.15595394729971884,0.05105685455296188,-0.06317150910813361
1772741675557545000,3.052544921875,-0.26551146960556504,0.057703745221532876,-0.07085088462959975
1772741675567561000,3.06256103515625,-0.22644378006458282,0.043312231775559484,-0.022609635486640033
1772741675577576000,3.072575927734375,-0.05111468568742275,0.04499386471956968,0.0014131547335535287
1772741675587592000,3.082592041015625,0.15383563997149466,0.025492259984556585,0.03205152716860175
1772741675597607000,3.09260693359375,0.27864450742304325,-0.029631095088645813,0.012070486619882284
1772741675607623000,3.102622802734375,0.33572248542904853,-0.04299014194803312,-0.012143990247510374
1772741675617638000,3.112637939453125,0.331795667374134,-0.04500489757023751,0.0017318287612870336
1772741675627654000,3.12265380859375,0.2676063960582018,0.011734094272367655,0.07524718335978686
1772741675637668900,3.1326689453125,0.10174714081585406,0.08204509987160563,0.10882749099824576
1772741675647684900,3.142684814453125,-0.0802390733629465,0.1503133110642433,0.10624982252996415
1772741675657699800,3.152699951171875,-0.1576724416553974,0.1313657234827988,0.0737595020852983
1772741675667715800,3.1627158203125,-0.15128887809813021,0.0883013289884664,0.03950984381791204
1772741675677730800,3.172730712890625,0.024166473007202146,0.030527203678153453,0.01609897495098412
1772741675687746800,3.182746826171875,0.1574374638557434,-0.01464139655381441,0.02063424376044422
1772741675697761800,3.19276171875,0.22181436669826507,-0.0332319325922057,0.022696583117730915
1772741675707776800,3.20277685546875,0.20231588550209997,-0.015088811527751385,0.06539751459453255
1772741675717792800,3.212792724609375,0.14636252761185167,0.030559425447322427,0.0902532850401476
1772741675727807700,3.222807861328125,0.05801905824840069,0.07859959906022995,0.10885255237426608
1772741675737823700,3.23282373046875,-0.05890460891127586,0.0819662442154251,0.060582369397766886
1772741675747838700,3.242838623046875,-0.09598667759299277,0.04595628001093864,0.010781250526942312
1772741675757855000,3.25285498046875,-0.06608019962906837,-0.04678986302455887,-0.014524492175877094
1772741675767870000,3.262869873046875,-0.03194295222759247,-0.10974913588780909,-0.026216427806951104
1772741675777886000,3.272885986328125,-0.0478968926846981,-0.11928710835538804,-0.066209342434071
1772741675787901000,3.28290087890625,0.053199675267934794,-0.05883488640962168,-0.07117061810325831
1772741675797917000,3.2929169921875,0.14351824409663677,0.0008972411006689071,-0.05022836783956736
1772741675807932000,3.302931884765625,0.22614625842273234,0.016172606442775576,-0.02618387724421918
1772741675817948000,3.312947998046875,0.2612269241541624,0.021517931259796022,-0.017176723717711864
1772741675827963000,3.322962890625,0.26280922490954395,0.003571721006929874,-0.020833675322681666
1772741675837979000,3.332978759765625,0.22343992207348345,-0.005921937394887208,-0.03442150770295411
1772741675847993900,3.342993896484375,0.08508475982844829,-0.02557275960855186,-0.019916450879909096
1772741675858009900,3.353009765625,-0.09489537522494793,0.008616071849688886,-0.03533127949163317
1772741675868024800,3.36302490234375,-0.21944062330424785,0.03792673934493214,-0.08045625977758318
1772741675878040800,3.373040771484375,-0.29312428367435933,0.021649521750211714,-0.05397299772799015
1772741675888055800,3.383055908203125,-0.26177929733991623,0.03691759883500635,-0.043135961893200875
1772741675898071800,3.39307177734375,-0.1317225923627615,0.022260146195534614,-0.07733451102785766
1772741675908086800,3.403086669921875,0.028458617243170736,-0.02983249941226095,-0.0821947740079835
1772741675918102800,3.413102783203125,0.22871289404034614,-0.0395358915746212,-0.060568085144087666
1772741675928117800,3.42311767578125,0.3049883244693279,-0.02835784201612696,-0.02891520190425217
1772741675938133800,3.4331337890625,0.3284633080810308,-0.030301614761352538,0.014038462224602699
1772741675948148700,3.443148681640625,0.26022622267901896,0.03228118947232142,0.03971106547843665
1772741675958165000,3.4531650390625,0.1497305427402258,0.04106624294705689,0.06038147653080523
1772741675968180000,3.463179931640625,-0.03482113801240921,0.034895792417507614,0.055811574799381196
1772741675978196000,3.473196044921875,-0.11902736144065856,0.05562975195907056,0.01847096477933228
1772741675988211000,3.4832109375,-0.173928579929471,0.005733794411644339,0.01380549371894449
1772741675998226000,3.493225830078125,-0.14805881013572214,0.01678765133488923,0.04717361991144717
1772741676008242000,3.503241943359375,-0.0760217479288578,0.07294999406700954,0.08114826062973589
1772741676018257000,3.5132568359375,-0.0006347907721996307,0.02778680066252127,0.07550857424233108
1772741676028273000,3.52327294921875,0.14310615616440772,0.012069938630610703,0.08543496150560677
1772741676038288000,3.533287841796875,0.22033201918601988,-0.0005040222656913101,0.08045757495183498
1772741676048303900,3.543303955078125,0.26245851177573204,-0.03090529800923541,0.04583133845701813
1772741676058318800,3.55331884765625,0.3142132489323616,-0.04156557077132165,0.024738135415315627
1772741676068334800,3.5633349609375,0.2691834361165762,0.0005935271800495684,0.04031717814542353
1772741676078349800,3.573349853515625,0.14551906252503394,0.04874945439342409,0.0431233216073364
1772741676088365800,3.58336572265625,0.05746376245319843,0.06617270021811127,0.0012244272284209728
1772741676098380800,3.593380859375,0.00027004911303520204,0.0415034470542334,-0.03282105023637414
1772741676108396800,3.603396728515625,-0.07213643092811108,0.023519261144846676,-0.06810578717254102
1772741676118411800,3.613411865234375,-0.07170505377352238,0.030610461514815685,-0.11148326620403677
1772741676128427800,3.623427734375,0.03476794652044773,0.01670324272075668,-0.08256963520236313
1772741676138442800,3.63344287109375,0.12118424721360206,0.00837285594465211,-0.052032311988994474
1772741676148458800,3.643458740234375,0.13917583097815514,0.02512477837903425,-0.0059255541240796445
1772741676158473700,3.6534736328125,0.13515022872388363,0.04059371179817244,0.01938745856974274
1772741676168490000,3.663489990234375,0.09787409877479075,0.03500619398942217,0.016047829285636542
1772741676178505000,3.6735048828125,0.074941551476717,0.04725035667577758,0.020800613303296266
1772741676188521000,3.68352099609375,0.08014438081681728,0.021075977912265807,0.0029017127908766266
1772741676198536000,3.693535888671875,0.13534136738181113,-0.04444225871879607,-0.027280769102834165
1772741676208552000,3.703552001953125,0.16566460945308206,-0.0758995463212952,-0.017131423271261156
1772741676218567000,3.71356689453125,0.11675649389922618,-0.08902142342394218,-0.011273892882093786
1772741676228583000,3.7235830078125,-0.0013368015617132186,-0.03839099585581571,0.011360073328204452
1772741676238598000,3.733597900390625,-0.0848795926451683,0.05372024680962786,0.048969380754418666
1772741676248614000,3.74361376953125,-0.16627426578402518,0.09077374698398634,0.038360673782788214
1772741676258628900,3.75362890625,-0.1555371831923723,0.061484505869261914,0.0035884529460221528
1772741676268643800,3.763643798828125,-0.01108604215979576,-0.0004581738299690187,-0.010313048493303358
1772741676278659800,3.773659912109375,0.1619558180630207,-0.04654465609183535,0.0008524155782535671
1772741676288674800,3.7836748046875,0.24032968207597732,-0.05483843718459829,0.005884089602530002
1772741676298690800,3.79369091796875,0.14904840569496153,-0.01918280284311622,0.04719539335183799
1772741676308705800,3.803705810546875,0.029894203004240987,0.07000825979299843,0.032731106930598615
1772741676318721800,3.8137216796875,-0.07095335862338542,0.07942898082276806,0.027230975144356486
1772741676328736800,3.82373681640625,-0.04286415921449661,0.05571532961698249,0.01626227575391531
1772741676338752800,3.833752685546875,0.06565875934660434,0.0039268545875325795,-0.0028595906822010872
1772741676348767700,3.843767822265625,0.16657646360099315,-0.03392345852032304,-0.023848164305649698
1772741676358783700,3.85378369140625,0.24309154800474642,-0.05003127436488867,-0.04544387350939214
1772741676368798700,3.863798828125,0.2821417018890381,-0.04323248107023537,-0.028671748537197707
1772741676378815000,3.87381494140625,0.2164928794145584,0.004559544734191149,0.04884253950435668
1772741676388830000,3.883829833984375,0.11185586237609386,0.08374103533560409,0.05100052125584334
1772741676398846000,3.893845947265625,-0.002056348007917404,0.08494250181354582,0.016325294520147145
1772741676408861000,3.90386083984375,-0.05321311927139759,0.05447691039582714,-0.025843648971803485
1772741676418877000,3.913876953125,-0.04087503122389316,0.0006917451238259673,-0.03591872399076819
1772741676428892000,3.923891845703125,-0.07011573875546455,-0.01898410193324089,-0.06332607861533761
1772741676438908000,3.933907958984375,-0.01732230620086193,-0.03888153758542612,-0.06090367377400398
1772741676448923000,3.9439228515625,-0.025125088906288146,-0.027893841233570128,-0.028517617421410978
1772741676458939000,3.95393896484375,-0.056713820868730544,0.03646864949110895,0.0013083791848272084
1772741676468953900,3.963953857421875,-0.05067570974826813,0.06105988724902272,0.026292123391665517
1772741676478969900,3.973969970703125,0.019609540355205533,0.055076008800137785,0.03273852305207401
1772741676488984800,3.98398486328125,0.17625030087530613,0.014239099363237619,0.02401811404507607
1772741676499000800,3.994000732421875,0.27240064459741115,-0.00246900219572708,0.004465893367677927
1772741676509015800,4.004015869140625,0.3186345725059509,-0.03531644724868238,0.017305245468206703
1772741676519031800,4.01403173828125,0.3239116361260414,-0.010116996198240667,0.039637744513899086
1772741676529046800,4.024046875,0.20232056167721746,0.01811784049272537,0.08278101293072104
1772741676539062800,4.034062744140625,0.039653380474448205,0.07189043854409828,0.08908522764146327
1772741676549077800,4.044077880859375,-0.09965104531943797,0.10827106269188225,0.060642721282877024
1772741676559092700,4.0540927734375,-0.2196826153665781,0.09936238283747807,-0.014115509516187012
1772741676569108700,4.064108642578125,-0.2649889070361853,0.022421346372924745,-0.057126274127140636
1772741676579123700,4.074123779296875,-0.12259703662097453,0.008138992389850318,-0.08595284789986908
1772741676589139700,4.0841396484375,0.11818564991950987,-0.016465671105217187,-0.06598481296319514
1772741676599154700,4.09415478515625,0.28781507135033607,-0.02914323850646615,0.005432984834164381
1772741676609170700,4.104170654296875,0.3758873225569725,-0.010402297679334878,0.05488613051753491
1772741676619185700,4.114185546875,0.313412453943491,0.02812202396625653,0.06378492829874158
1772741676629201700,4.12420166015625,0.19278817870020865,0.045951914363075046,0.04193118921332061
1772741676639216600,4.134216552734375,0.06485621079206466,0.07286896472005173,0.001843728170543909
1772741676649232600,4.144232666015625,-0.002273205628991127,0.058740887983236456,0.025136231354810298
1772741676659247600,4.15424755859375,-0.05915303071439266,0.010668273405451328,0.05363298865128308
1772741676669263600,4.164263671875,-0.06974690544307231,-0.018969835945870726,0.02830006568059325
1772741676679278600,4.174278564453125,-0.10230302113294601,-0.018566917700786143,0.02249046608638018
1772741676689294800,4.184294921875,-0.09798866506516933,-0.018771007171832024,-0.019608407844044266
1772741676699309800,4.194309814453125,-0.019431261178851127,-0.015658866500668226,-0.02477886928450316
1772741676709325800,4.204325927734375,0.06973112335205078,-0.005636599381174892,-0.012269370192848145
1772741676719340800,4.2143408203125,0.14821838461160658,0.0027229952231049535,-0.007153890342637896
1772741676729356800,4.224356689453125,0.15586100831925867,0.01082896212618798,-0.0011292597582563757
1772741676739371800,4.234371826171875,0.11467501145005225,-0.0061624498861841855,-0.005638078952208161
1772741676749387800,4.2443876953125,0.08034311825931072,0.00031650033695623277,0.003874320682696998
1772741676759402800,4.25440283203125,-0.01282499478161335,0.021635931616276503,0.00239021960478276
1772741676769418800,4.264418701171875,-0.08129179728627205,0.039327746982965615,-0.01141271683089435
1772741676779433700,4.274433837890625,-0.12306582317650318,0.027061043671239165,0.01293039138484746
1772741676789449700,4.28444970703125,-0.1658598397642374,0.022183354632277042,-0.010056224188022315
1772741676799464700,4.294464599609375,-0.16695172665417193,0.08380571633595972,-0.06999065107107162
1772741676809480700,4.304480712890625,-0.037434535381197925,0.0697947266401723,-0.07129574232026935
1772741676819495700,4.31449560546875,0.1402963594406843,0.05736941696694121,-0.03807381966542452
1772741676829510700,4.3245107421875,0.31362638895511624,0.05206515481267124,-0.010417422183230518
1772741676839526700,4.334526611328125,0.4284890319317579,-0.00896051963949576,0.001194981938228011
1772741676849541600,4.344541748046875,0.4831698856681585,-0.035972518270928414,0.021280724970437585
1772741676859557600,4.3545576171875,0.3920569515913725,-0.00764362835464999,0.029626053587347267
1772741676869572600,4.364572509765625,0.14909224483668804,0.005518215432204306,-0.0068218453766778105
1772741676879588600,4.374588623046875,-0.046262569481134413,0.039325755955278874,-0.03232511994559318
1772741676889603600,4.384603515625,-0.15587971301972864,0.06021326209073886,-0.037726905923895535
1772741676899619800,4.394619873046875,-0.13409107505977153,0.05160329118827357,-0.01861914107836783
1772741676909634800,4.404634765625,-0.013111410507559776,0.024607768767606467,-0.029745880574733017
1772741676919650800,4.41465087890625,0.07530804670155047,0.005420837738644331,-0.024703210232406854
1772741676929665800,4.424665771484375,0.16927461664378643,-0.02238028371017426,0.018051497258245945
1772741676939681800,4.434681884765625,0.23231530244648455,0.01115976498313248,0.08165759839136152
1772741676949696800,4.44469677734375,0.1844686786442995,0.05124631271045655,0.0987993238609284
1772741676959712800,4.454712646484375,0.1058458083063364,0.04537206864850595,0.09000716479197143
1772741676969727700,4.464727783203125,0.0310264219045639,0.022033863158989697,0.0895039279775694
1772741676979743700,4.47474365234375,-0.115675128403306,-0.012877017229795455,0.08231244557090103
1772741676989758700,4.4847587890625,-0.2303577386379242,-0.022269261083751917,0.049403388257510956
1772741676999774700,4.494774658203125,-0.33525895957052704,-0.023825952473841606,0.04053023637421429
1772741677009789700,4.504789794921875,-0.359547013130784,-0.05729355698544532,0.027919943789206442
1772741677019805700,4.5148056640625,-0.27883623060286045,-0.06342676251083612,0.015123773243278264
1772741677029820700,4.524820556640625,-0.17490706957280636,-0.057210920203290876,0.004423259802348912
1772741677039836700,4.534836669921875,-0.12362521062493323,-0.0051814029595814645,0.012167517253570258
1772741677049851600,4.5448515625,-0.0651028790295124,0.045212293243221936,0.014650493175722657
1772741677059867600,4.55486767578125,0.0706581750690937,0.04835802565673366,0.029213782992027697
1772741677069882600,4.564882568359375,0.12842998055815696,0.011818393288645892,0.04406458451282233
1772741677079898600,4.574898681640625,0.16446692410111427,-0.03440104943681508,-0.008035057091340421
1772741677089913600,4.58491357421875,0.17982699031829832,-0.05088244783412665,-0.07308737497739494
1772741677099928600,4.594928466796875,0.23725977311134336,-0.01805465732971206,-0.08086052972953767
1772741677109944800,4.60494482421875,0.29931027883291245,0.020081231253873556,-0.031895021432638164
1772741677119959600,4.61495947265625,0.3608545885980129,0.06338277723863721,-0.012766177266463636
1772741677129975800,4.624975830078125,0.41083763990700245,0.06742589688329026,-0.03696757545657456
1772741677139990800,4.63499072265625,0.39688510240018365,0.03161952895950526,-0.05121726927906275
1772741677150006800,4.6450068359375,0.31407471724450586,0.005453077774122357,-0.0566183611376211
1772741677160021800,4.655021728515625,0.2072036575436592,0.03522045779461041,-0.08070541223306209
1772741677170037800,4.665037841796875,0.12329261766970157,0.039147969969268885,-0.06102419488113373
1772741677180052700,4.675052734375,0.0702571930527687,0.07596110378280281,0.02006579622272402
1772741677190068700,4.68506884765625,0.014839841735363006,0.050979167940560725,0.05754712988771498
1772741677200083700,4.695083740234375,-0.05732230815589428,0.02706120806802064,0.05831183064989745
1772741677210099700,4.705099609375,-0.08784194958209991,0.025340357358474282,0.049233913442119956
1772741677220114700,4.71511474609375,-0.09329846142232417,0.0269694563976489,0.02304167022835463
1772741677230130700,4.725130615234375,0.001858195087313652,0.005980279986001551,0.03796199332140386
1772741677240145700,4.735145751953125,0.10517828430831432,-0.0023120398020371794,0.07585267497226596
1772741677250161700,4.74516162109375,0.10271394002139568,-0.0014893435086123644,0.06684738460928201
1772741677260176600,4.7551767578125,0.03432078727483749,0.026714148196019232,0.04489372881334275
1772741677270192600,4.765192626953125,-0.05608078366219997,0.018203418150637297,0.012890242037549614
1772741677280207600,4.77520751953125,-0.10797171441912651,0.007790708675142377,-0.0032081483915448188
1772741677290223600,4.7852236328125,-0.09768588272631168,0.02022621094882488,-0.034239465666934844
1772741677300238600,4.795238525390625,-0.05753273603618145,0.04046016681268811,-0.052836942902766165
1772741677310254800,4.8052548828125,0.048531098935008045,0.02444448623098433,-0.10938380970675497
1772741677320269800,4.815269775390625,0.18515724543035028,0.0074981737356632945,-0.0895984743932262
1772741677330285800,4.825285888671875,0.2963052517980337,0.047455943984165784,-0.06413220736645162
1772741677340300800,4.83530078125,0.28362580296695233,0.03708363958429545,-0.02782872184179723
1772741677350316800,4.84531689453125,0.1740600973546505,0.024381065605953333,-0.03833857154883444
1772741677360331800,4.855331787109375,0.055797875067591665,0.02858014299729839,-0.0517354114016518
1772741677370347800,4.86534765625,-0.04269406334459781,0.040337051889672876,-0.05341229510530829
1772741677380362800,4.87536279296875,-0.10417758283317088,0.05156575392317027,-0.056715172575600444
1772741677390377700,4.885377685546875,-0.08582184193134307,0.07574901366839185,-0.010103680058941245
1772741677400393700,4.895393798828125,0.026111177334189415,0.09254064705865457,0.047992096687480806
1772741677410408700,4.90540869140625,0.10240881959497929,0.08817085274290293,0.08534951171185821
1772741677420424700,4.9154248046875,0.11777765364050864,0.0851901198990643,0.06120521400384604
1772741677430439700,4.925439697265625,0.17637948021292685,0.028525453667994586,0.08333451862763613
1772741677440455700,4.93545556640625,0.17548808433115481,0.027523564882762728,0.11460760876964778
1772741677450470700,4.945470703125,0.06945347545444965,0.059481897342577576,0.1329978729955852
1772741677460486700,4.955486572265625,-0.06818506295382976,0.08294119019480421,0.07148322771638631
1772741677470501600,4.965501708984375,-0.12104571552574633,0.07475786547288298,0.03442318820338696
1772741677480518000,4.975517822265625,-0.07487433145940303,0.022511691537499427,0.012313136269338429
1772741677490532900,4.985532958984375,0.0737123019427061,-0.01805604556920007,-0.018656988870725033
1772741677500548900,4.995548828125,0.22376666980981824,-0.05688572510322556,-0.020621238148398696
1772741677510563800,5.005563720703125,0.29772739355564115,-0.09013020664975047,-0.021755174081772563
1772741677520579800,5.015579833984375,0.30109599320590497,-0.10530437663970514,-0.016098682690039275
1772741677530594800,5.0255947265625,0.21633973467946052,-0.02840800130078569,0.007208031682670116
1772741677540611000,5.035611083984375,0.021984452793002127,0.05861419286364689,0.07207311990093439
1772741677550625800,5.045625732421875,-0.11804361110031604,0.07600454106573015,0.09822185276653617
1772741677560642000,5.05564208984375,-0.22089199115633965,0.04844391384189948,0.0594469721596688
1772741677570657000,5.065656982421875,-0.2534405080616474,-0.003392638112977147,0.017514285109005868
1772741677580673000,5.075673095703125,-0.1797802285671234,-0.026258750845026223,-0.01147299565076828
1772741677590688000,5.08568798828125,-0.057546180039644235,-0.029945987990405407,-0.02108721169233322
1772741677600704000,5.0957041015625,0.14973171178400516,-0.027992059177346526,-0.016456994608417153
1772741677610719000,5.105718994140625,0.2762929758608341,-0.027417328029312193,-0.01906301238834858
1772741677620735000,5.11573486328125,0.31536943323016164,0.018109839849360286,0.05438837359584868
1772741677630750000,5.12575,0.29041970089077945,0.0662421304588206,0.10461791047919541
1772741677640766000,5.135765869140625,0.1691717407912016,0.07214567368049174,0.09452464221641421
1772741677650781000,5.145781005859375,0.013339374044537543,0.05160299892732873,0.02271389957871288
1772741677660797000,5.155796875,-0.057876434907317156,0.026532106159999964,-0.014949329991824923
1772741677670812000,5.16581201171875,-0.06330488969683647,0.010631667722109705,-0.048327941045723855
1772741677680827000,5.175826904296875,-0.09231354203820229,-0.0024598690412007272,-0.04747161647733301
1772741677690843000,5.1858427734375,-0.04732523027658462,0.024189488556608556,-0.04215970073956996
1772741677700857900,5.19585791015625,0.07793196546435356,0.044531800165772434,-0.020569179167598484
1772741677710873900,5.205873779296875,0.1671153927832842,0.04598470238782465,0.026046879926323888
1772741677720888800,5.215888916015625,0.22926702079176903,0.04165248186979443,0.036289383934065694
1772741677730904800,5.22590478515625,0.23148294327557087,0.025791005469113587,0.009982684027776122
1772741677740919800,5.235919921875,0.21523966448307036,0.025996154386084526,0.025977321821451186
1772741677750936000,5.24593603515625,0.1073614735662937,0.012738302878849207,0.028235512544400987
1772741677760950800,5.25595068359375,-0.05138648836612701,0.03866687192143872,0.011262275509536266
1772741677770967000,5.265967041015625,-0.10516016412973403,0.04260826649097726,0.0030372488040477036
1772741677780982000,5.27598193359375,-0.12307576004862784,0.06360009151743724,0.00990706150829792
1772741677790998000,5.285998046875,-0.06459025333225726,0.06909350130194798,0.01274338091276586
1772741677801013000,5.296012939453125,0.08639291981756686,0.026657065980229527,-0.01020180667117238
1772741677811029000,5.306029052734375,0.1855535512715578,-0.0036564401483163236,0.0012219064777716994
1772741677821044000,5.3160439453125,0.2656026550203562,-0.012959361751005052,0.006351049527153372
1772741677831060000,5.32606005859375,0.2234077733695507,0.014418328387662768,0.011200608450174331
1772741677841075000,5.336074951171875,0.08579729201197624,0.033591577951144425,0.021392733977548775
1772741677851091000,5.346091064453125,-0.0450824197858572,0.046088765550497915,0.016833865096792577
1772741677861106000,5.35610595703125,-0.10033084427714348,0.06076055724257603,-0.0028368673937395213
1772741677871122000,5.366121826171875,-0.1165776302009821,0.0488115963768214,-0.00657543286755681
1772741677881137000,5.376136962890625,-0.0727232909053564,0.02858704766212031,-0.017308423805981875
1772741677891153000,5.38615283203125,-0.014290975680947303,0.03273943636752665,-0.03236325999889523
1772741677901167900,5.39616796875,0.09759294374585151,0.019420100464019922,-0.0492902467392385
1772741677911184000,5.406183837890625,0.1708089866042137,-0.0015420418102294205,-0.029478936734236776
1772741677921198800,5.41619873046875,0.1715150890469551,-0.016695844865590333,0.011866634610854089
1772741677931214800,5.42621484375,0.12710019325911998,0.01912926429128274,0.04791230944953859
1772741677941229800,5.436229736328125,0.07398001296818256,0.051442365005519235,0.03416610816977918
1772741677951244800,5.446244873046875,0.0473871895968914,0.026104966789111495,-0.0032176103396341204
1772741677961261000,5.456260986328125,0.041182489737868304,0.0032943288376554845,-0.012522906562499702
1772741677971275800,5.46627587890625,0.0698737466931343,0.007365615130867809,0.00035692367888987063
1772741677981292000,5.4762919921875,0.07492460034191609,0.008928170006163418,0.005064041923917829
1772741677991307000,5.48630712890625,0.03776595929265022,0.004338741590362042,0.04886705289110541
1772741678001323000,5.496322998046875,-0.048315994879603384,0.056543122210633005,0.08710311391353606
1772741678011338000,5.506337890625,-0.1084510223686695,0.09972991924192756,0.09385967550165951
1772741678021354000,5.51635400390625,-0.053875967094302174,0.0773504027167335,0.07866480978354812
1772741678031369000,5.526368896484375,0.03964285908043384,0.045866994292289014,0.041417613667994735
1772741678041385000,5.536385009765625,0.1671323439180851,-0.0029998028704896567,0.03193286922499537
1772741678051400000,5.54639990234375,0.27392449316382406,-0.012214297271054237,0.005221168714389205
1772741678061416000,5.556416015625,0.26796120084524155,-0.007730247192177921,-0.006078187402524054
1772741678071431000,5.566430908203125,0.2118091055124998,0.027166696002800014,-0.028597075865790245
1772741678081447000,5.576447021484375,0.18590426440536975,0.03179744280967861,-0.03294763575810939
1772741678091462000,5.5864619140625,0.10985036777257919,0.011021141963731497,0.016388751677796243
1772741678101478000,5.596477783203125,0.036274843952059745,0.032449038586206735,0.04301653676461428
1772741678111492900,5.606492919921875,0.0033680151283740994,0.028847598294448107,0.022195282532088457
1772741678121508900,5.6165087890625,-0.02655015327334404,-0.0027867629080079496,0.035537981044873594
1772741678131523800,5.62652392578125,-0.08798866457641125,0.006799414349161088,-0.02739226665329188
1772741678141539800,5.636539794921875,-0.08367255494296551,0.03014346505757421,-0.037966377235576505
1772741678151554800,5.646554931640625,-0.03938742301464081,0.01819324381649494,-0.02360346882957965
1772741678161571000,5.656571044921875,-0.020111060136556624,0.02082770223962143,-0.005922083525359631
1772741678171586000,5.6665859375,0.014857377392053603,0.01801061725858599,-0.0011491335025057196
1772741678181602000,5.67660205078125,0.009575637596845626,0.03465893318802118,-0.00971884545981884
1772741678191617000,5.686616943359375,0.039806525209546084,0.02861978088794276,-0.0034624519461765885
1772741678201633000,5.696633056640625,0.1330558867931366,0.014678495427500455,-0.017384375119023025
1772741678211648000,5.70664794921875,0.16985446235835552,0.005719437092728912,-0.006514131134375929
1772741678221663000,5.7166630859375,0.20478373692035673,0.015634480978082864,0.02145283013433218
1772741678231679000,5.726678955078125,0.17081074016988276,0.02118334727687761,0.03178447373025119
1772741678241694000,5.73669384765625,0.06347498556673527,0.03580700724460184,0.03787731071263552
1772741678251710000,5.7467099609375,-0.04371580760776996,0.06102684349594637,0.029371786565333603
1772741678261725000,5.756724853515625,-0.11223463256061077,0.05283792928345501,-0.009270772898755967
1772741678271741000,5.766740966796875,-0.07377426126301288,0.007831479076948016,-0.04833137511182576
1772741678281756000,5.776755859375,0.07670096236467361,-0.03925829847594723,-0.03613897914532572
1772741678291772000,5.78677197265625,0.21800562206506727,-0.050619266853295264,-0.009737586692906915
1772741678301787000,5.796786865234375,0.2426566637188196,-0.04929030153816565,-0.013651947125047444
1772741678311803000,5.806802978515625,0.20259528696537016,-0.0440026069262065,-0.014297551552206278
1772741678321817900,5.81681787109375,0.13000175991952417,-0.01669407303361222,0.015758344819769263
1772741678331833900,5.826833740234375,0.004693710774183273,0.023782953582331536,0.033184513253904875
1772741678341848800,5.836848876953125,-0.08961188186407089,0.06600318887010216,0.018621004241891205
1772741678351864800,5.84686474609375,-0.09060147742331028,0.03756148622911423,-0.005077449394762516
1772741678361879800,5.8568798828125,-0.04570668916404247,-0.006466748328693211,-0.02750675987843424
1772741678371896000,5.86689599609375,0.03633855683803558,-0.025904146987386047,-0.024446641655452548
1772741678381910800,5.876910888671875,0.0953454570800066,-0.031877778036892415,-0.023200294856168327
1772741678391927000,5.886927001953125,0.1403933900743723,-0.040049320989474654,-0.02848462846726179
1772741678401942000,5.89694189453125,0.08125789501667022,-0.010466394157800823,-0.02083060658276081
1772741678411958000,5.9069580078125,0.05178220968544483,0.053310862291138614,0.022244345838204026
1772741678421973000,5.916972900390625,0.07261164722442627,0.0668547276655212,0.05689633782878518
1772741678431989000,5.926989013671875,0.11230243709981441,0.04915229957327246,0.017591076672263443
1772741678442004000,5.93700390625,0.14182488418221473,0.0163688779335469,-0.0003724500415846705
1772741678452020000,5.94702001953125,0.14320961653888226,-0.008644055835157632,0.010623246953636407
1772741678462035000,5.957034912109375,0.11839140162467957,-0.0033106589179486036,0.008696735870465636
1772741678472050000,5.9670498046875,0.10313245769441128,-0.0011421192398294805,0.021008410835079847
1772741678482066200,5.977066162109375,0.05611293236613273,0.016627894195914268,0.04750095216967165
1772741678492081200,5.9870810546875,0.006979775884747505,0.03458937508314848,0.059291050945594906
1772741678502097200,5.99709716796875,0.014877251136302947,0.03697323801238089,0.03636533524710685
1772741678512112000,6.007112060546875,0.00005436053574085235,0.005054397312738001,-0.0052380102513358
1772741678522128100,6.017128173828125,0.05694412249326706,-0.02460866381675005,-0.04585325802788138
1772741678532143000,6.02714306640625,0.0922778862029314,-0.05649893600903451,-0.042712146990559995
1772741678542159000,6.0371591796875,0.10544190368056297,-0.05533946377560496,-0.014960399375110863
1772741678552174000,6.047174072265625,0.11782032373845576,-0.05333999705407768,0.0043120910454541445
1772741678562190000,6.057190185546875,0.05216156439185142,-0.02386559036448598,0.059066521474719046
1772741678572205000,6.067205078125,-0.0312269129127264,0.00759231829252094,0.04981459940690547
1772741678582221300,6.07722119140625,-0.08827624934613704,0.026801936077326536,0.03982471845336258
1772741678592236300,6.087236328125,-0.16470307094454764,0.033995902702026064,0.010380341575853526
1772741678602252300,6.097252197265625,-0.08581482766866684,0.02945453294534236,-0.012210625742934644
1772741678612267300,6.107267333984375,0.06227203951776027,-0.002120901144109666,0.0018531901186332105
1772741678622283300,6.117283203125,0.13838088120818137,-0.011291647734493017,0.01449530261401087
1772741678632298200,6.12729833984375,0.18408289419710636,-0.0003823138484731316,0.03365381126608699
1772741678642314200,6.137314208984375,0.20610826352238654,0.018585092678293585,0.059153286442719395
1772741678652329200,6.1473291015625,0.16806699441969394,0.01980831433031708,0.056123417227528984
1772741678662345200,6.15734521484375,0.10843991645276546,0.02947086302563548,0.037711854485236104
1772741678672360200,6.167360107421875,0.022173837885260582,0.05274367512874305,0.02361705896351486
1772741678682376200,6.177376220703125,-0.039948564028739926,0.0316555866535753,-0.01671999292615801
1772741678692391200,6.18739111328125,-0.02761807476580143,-0.00581157235559076,-0.028066037729009983
1772741678702407200,6.1974072265625,0.040409167277812956,-0.016661613802425562,-0.009537132217362522
1772741678712422100,6.207422119140625,0.09990881947278976,-0.019857706429995594,0.020344211305305362
1772741678722438100,6.217438232421875,0.1256874038517475,0.005631393483094871,0.0692384079316631
1772741678732453000,6.227453125,0.12028700611293315,0.0341723552474752,0.03966192910708487
1772741678742469000,6.23746923828125,0.05713292306363582,0.021763466986082492,0.035666685458458955
1772741678752484000,6.247484130859375,0.02437280923426151,0.032387006200663745,0.027857728740572928
1772741678762499000,6.2574990234375,0.03728080612421036,0.024816497881151735,-0.01944134418144822
1772741678772515000,6.26751513671875,0.11201426780819893,0.014534538645856082,-0.007167334346100687
1772741678782530000,6.277530029296875,0.13087854275405406,0.019201653674058614,0.014518318163417279
1772741678792546300,6.28754638671875,0.07572948698401451,0.05412124709226191,0.042599151602759955
1772741678802561300,6.297561279296875,-0.01387888774871826,0.08819182246569543,0.015823226749524473
1772741678812577300,6.307577392578125,-0.0982207202553749,0.08355689267404377,-0.03353343628942966
1772741678822592300,6.31759228515625,-0.1275572893768549,0.05538439889587462,-0.08275602461993693
1772741678832608300,6.327608154296875,-0.05939326921105385,0.023989107146300374,-0.09697272948827594
1772741678842623200,6.337623291015625,0.09918518137335777,0.034331199070997534,-0.09791008340362459
1772741678852639200,6.34763916015625,0.228552735042572,0.00018680954268202184,-0.08206552160512655
1772741678862654200,6.357654296875,0.29315701690018175,0.0005906045706011355,-0.06735650317519903
1772741678872670200,6.367670166015625,0.23775544767379758,0.036230383755825456,-0.0516449931718409
1772741678882685200,6.377685302734375,0.08363748362958431,0.03916135917380452,-0.04235650195330381
1772741678892701200,6.387701171875,-0.0752723908662796,0.08690360928606242,-0.05291059266086667
1772741678902716200,6.397716064453125,-0.15359130982160568,0.10288188046682625,-0.06779434660319239
1772741678912732200,6.407732177734375,-0.161593414491415,0.0673327204408124,-0.08513857237491756
1772741678922747100,6.4177470703125,-0.04187339461147785,0.03131590637043118,-0.06394004579521716
1772741678932763100,6.42776318359375,0.08131810077130794,-0.010173877484630793,-0.051823308880813414
1772741678942778000,6.437778076171875,0.21568857729434965,-0.015814623317960647,-0.06853950241468847
1772741678952794000,6.447794189453125,0.26676293097138404,-0.014897143146861344,-0.06087828360442072
1772741678962809000,6.45780908203125,0.20342472352683544,0.022662041527312247,-0.01016644309684634
1772741678972825000,6.4678251953125,0.07660276268720627,0.05735524231111631,0.008053834857046603
1772741678982840000,6.477840087890625,-0.04326631027460098,0.060814990843553095,-0.010667378356307744
1772741678992856300,6.487856201171875,-0.08594751413762569,0.03877425955235958,-0.022450682065263388
1772741679002871300,6.497871337890625,-0.030597382837533948,0.01867686261497438,-0.003789893802255392
1772741679012886300,6.50788623046875,0.12125029818713665,0.003961779770441353,0.04269413640983402
1772741679022902300,6.51790234375,0.30227731194496155,0.010648838052619248,0.09868746098428964
1772741679032917200,6.527917236328125,0.37861937786936756,0.021366850617621093,0.14037293180823326
1772741679042933200,6.537933349609375,0.35336803223490715,0.06808576729781925,0.1835856121994555
1772741679052948200,6.5479482421875,0.22820903617143629,0.12287707740506157,0.16594054031763225
1772741679062964200,6.557964111328125,0.05246200864315033,0.10783084464371204,0.15613569707479327
1772741679072979200,6.567979248046875,-0.05394435615539551,0.06470213447520509,0.1190073415659368
1772741679082995200,6.5779951171875,-0.07959083858728408,0.04334942198079079,0.077107278143242
1772741679093010200,6.58801025390625,-0.04771919803023338,-0.0037542744996026155,0.05114486162997782
1772741679103026200,6.598026123046875,0.004637596672773361,-0.016774937983788547,0.03368990549277514
1772741679113041200,6.608041259765625,0.07727554738223552,0.009634747372940181,0.020988427492976188
1772741679123057200,6.61805712890625,0.010630115085840225,0.01959142017662525,0.03956577525623142
1772741679133072100,6.628072021484375,-0.13865502197444438,0.09137648038379848,0.025406170869991182
1772741679143088000,6.638088134765625,-0.19837328535616397,0.08138652636501938,-0.029803236785158515
1772741679153103000,6.64810302734375,-0.17506839761435986,0.018599961453862487,-0.08334807222895324
1772741679163119000,6.658119140625,-0.045886721906065936,-0.02138202992044389,-0.12844853912815452
1772741679173134000,6.668134033203125,0.11833470300137997,-0.051496488079242404,-0.12998678154610097
1772741679183150000,6.678150146484375,0.25932138279378414,-0.031124329321086403,-0.11808642732873559
1772741679193165000,6.6881650390625,0.35784546990990634,-0.019918113114032892,-0.0767596337493509
1772741679203181300,6.698181396484375,0.3341349239766598,-0.009185980692133307,-0.06326718803495168
1772741679213196300,6.7081962890625,0.23133505923748016,0.027938977283239363,-0.0671678852679208
1772741679223212300,6.71821240234375,0.13587386682331562,0.019184666006639598,-0.1062251995453611
1772741679233227300,6.728227294921875,0.08339081539213657,-0.009854965994879603,-0.08649882787745446
1772741679243243300,6.7382431640625,0.0747889912635088,-0.010308189655095338,-0.06061784256994724
1772741679253258200,6.74825830078125,0.07112228544950484,-0.0184245318217203,-0.019391842483915386
1772741679263273200,6.758273193359375,-0.007214753684401512,-0.005348923279903829,0.015457608307525515
1772741679273289200,6.768289306640625,-0.07368015323877335,0.03186831608880311,0.058501361872628325
1772741679283304200,6.77830419921875,-0.08800327762365341,0.04288487320896238,0.07832611588109284
1772741679293320200,6.7883203125,-0.06336100379824638,-0.0031411110373213884,0.10925010032448917
1772741679303335200,6.798335205078125,0.007235211950540542,-0.004588789094984531,0.12828483646642416
1772741679313351200,6.80835107421875,0.009440613040328026,0.00467478687800467,0.13806191491950304
1772741679323366100,6.8183662109375,0.015528993043303489,0.003311572233401239,0.11851853513568639
1772741679333382100,6.828382080078125,-0.0021907880425453183,0.01021915966477245,0.0986940003229305
1772741679343397000,6.838397216796875,-0.020956863310933112,0.04370145028885453,0.11074315189383924
1772741679353413000,6.8484130859375,-0.043161680856347084,0.0631998218871653,0.09335457552373409
1772741679363428000,6.858427978515625,-0.06529927838444709,0.06352229530718177,0.04848134150914848
1772741679373444000,6.868444091796875,0.0036374797195196148,0.01771218230128288,0.0047796720245853064
1772741679383459000,6.878458984375,0.1191653086066246,0.005783076913468539,-0.043421610434167084
1772741679393475000,6.88847509765625,0.24486849454939363,-0.014782704720646142,-0.05959354102350771
1772741679403490000,6.898489990234375,0.3465285416036844,-0.01766476296298206,-0.02375537145566195
1772741679413506300,6.90850634765625,0.3075204732954502,-0.013255677816458046,-0.004972893041744828
1772741679423521300,6.918521240234375,0.20988544397354125,0.03520487663298845,-0.0023508374424651263
1772741679433537300,6.928537353515625,0.0643190351754427,0.05605301887243986,-0.017815971469320357
1772741679443552300,6.93855224609375,-0.05127718277275562,0.031462000310234724,-0.050227710252441465
1772741679453568300,6.948568359375,-0.07160568505227566,0.012430296375602484,-0.07734232900813222
1772741679463583200,6.958583251953125,-0.014326046994328498,-0.019584296316094697,-0.07375044199600815
1772741679473599200,6.96859912109375,0.06989245139360427,-0.03266085470598191,-0.08797346700727939
1772741679483613700,6.97861376953125,0.12247019537091254,-0.033622502812370655,-0.058124564449489116
1772741679493628700,6.988628662109375,0.1420353120625019,0.0035484131965786217,-0.013875819008797407
1772741679503645000,6.99864501953125,0.07982406282126903,0.05684015066213906,0.00007058101817965507
1772741679513660000,7.008659912109375,0.028082185146212576,0.057240803884901104,-0.01790127513259649
1772741679523676000,7.018676025390625,0.06809329301714896,-0.0036400735354050993,-0.06783025816679
1772741679533691000,7.02869091796875,0.1083814642637968,-0.022360263835452497,-0.0473973091321066
1772741679543707000,7.038706787109375,0.14480886842906474,-0.035294819938763974,-0.07553940777201205
1772741679553721900,7.048721923828125,0.23213760779201983,-0.06358352397512644,-0.07721574348639697
1772741679563737900,7.05873779296875,0.2529290514081716,-0.04452529735974967,0.016340017165243626
1772741679573752800,7.0687529296875,0.06980009693503379,0.05364314471911639,0.10791150866448879
1772741679583768800,7.078768798828125,-0.11177812096476554,0.13749522094745187,0.07460234611760824
1772741679593783800,7.08878369140625,-0.17092881359159945,0.10964377581719309,0.046466932946816086
1772741679603799800,7.0987998046875,-0.1391109490483999,0.04626099857855588,0.02028743961676955
1772741679613814800,7.108814697265625,-0.052901569104194635,-0.018148491359315812,0.01795844867993146
1772741679623830800,7.118830810546875,0.0093850834608078,-0.015352723160944878,0.020606223242357374
1772741679633845800,7.128845703125,0.013724573969841003,-0.0032179756658151744,0.07964377435091882
1772741679643861800,7.13886181640625,-0.03120996177792549,0.0792953262394294,0.12045666359141469
1772741679653876700,7.148876708984375,-0.07507482246756553,0.09937350701969117,0.09956731255874038
1772741679663892700,7.158892822265625,-0.045723640298843383,0.10993307761996984,0.09026092035733163
1772741679673907700,7.16890771484375,-0.01024082350730896,0.08271456009838729,0.08303747190982103
1772741679683923700,7.178923828125,-0.027575404667854308,0.026682693611830472,0.021113917036168276
1772741679693938700,7.188938720703125,-0.05028291103839874,0.007564736165851354,-0.019948015061952172
1772741679703955000,7.198954833984375,-0.0393961908429861,0.02638564689401537,-0.004792969897575676
1772741679713970000,7.208969970703125,0.012240472891926766,0.04026804177407175,0.016214856415614484
1772741679723984600,7.218984619140625,0.09560849193036555,0.032532588683813805,0.0015946122476831078
1772741679734001000,7.2290009765625,0.1568529419660568,0.004928542443364858,-0.07692414012867957
1772741679744016000,7.239015869140625,0.24892040028870105,-0.020449279114976526,-0.10015632796045393
1772741679754031900,7.249031982421875,0.31875907566845413,-0.06891903978418558,-0.11389445553161204
1772741679764046800,7.259046875,0.3106961807221174,-0.09554755552336573,-0.11716445364560932
1772741679774062800,7.269062744140625,0.29789398229420183,-0.11510682699605822,-0.10048534071911126
1772741679784077800,7.279077880859375,0.2142144130885601,-0.06578903466276824,-0.029987799571827053
1772741679794093800,7.28909375,0.1952571991622448,0.0221530508255586,0.024503267213515936
1772741679804108800,7.29910888671875,0.1961620390474796,0.03858085587210953,0.04348156046047807
1772741679814124800,7.309124755859375,0.2804904275506735,-0.00194722507763654,0.034145905631966886
1772741679824139800,7.319139892578125,0.37587913925051686,-0.038329036535508926,0.03701912298072129
1772741679834155800,7.32915576171875,0.4373585670858621,-0.027791495103947815,0.035689701007865365
1772741679844170800,7.339170654296875,0.3551730358302593,0.023375797553546726,0.07461633811034261
1772741679854186800,7.349186767578125,0.07124912669956683,0.09993234647884965,0.08263535738233477
1772741679864201700,7.35920166015625,-0.24431027614474296,0.15530527413263917,0.019811784929037093
1772741679874217700,7.3692177734375,-0.422494759953022,0.13004797368142754,-0.016308672178909182
1772741679884232700,7.379232666015625,-0.4349941760420799,0.08945362256243825,-0.009836918881535529
1772741679894248700,7.389248779296875,-0.37357495396137236,0.044343511052057145,0.0009733385441824794
1772741679904263700,7.399263671875,-0.2375596328407526,-0.02823883701264858,-0.02671615749001503
1772741679914280000,7.409280029296875,-0.08932078996300696,-0.05087086699418723,0.0066347618393599985
1772741679924295000,7.419294921875,-0.016291209587454794,-0.016602686689421532,0.06257518718279897
1772741679934311000,7.429310791015625,-0.058096215137839316,0.04825761575587093,0.1376215872734785
1772741679944326000,7.439325927734375,-0.1223281565517187,0.092607337353006,0.14697784649860113
1772741679954342000,7.449341796875,-0.11364099222719669,0.07987367411665618,0.07861581954266876
1772741679964356900,7.45935693359375,-0.0394528894662857,0.041674839832074935,0.06709723118450492
1772741679974371800,7.469371826171875,0.08493921387791634,0.029049386210553346,0.03339026495907455
1772741679984387800,7.479387939453125,0.23267244532108305,0.025156799218803642,0.028508557332120835
1772741679994402800,7.48940283203125,0.32389117785990235,0.012710063165053725,0.036612149615027005
1772741680004418800,7.499418701171875,0.3345505190402269,0.0013347192024812102,0.042937845505215226
1772741680014433800,7.509433837890625,0.280985517591238,0.02348046350441873,0.060944626838900146
1772741680024449800,7.51944970703125,0.19453589915037153,0.02678575212750584,0.01613784565664828
1772741680034464800,7.52946484375,0.1356260295420885,0.05610737940818071,-0.03404036289826035
1772741680044480800,7.539480712890625,0.09712707979977131,0.02587433637101203,-0.06944240607116371
1772741680054495700,7.549495849609375,0.10548691186606883,-0.039678697578795254,-0.08940211157090962
1772741680064511700,7.55951171875,0.1185895545452833,-0.03954641296863556,-0.09102459820620715
1772741680074526700,7.569526611328125,0.12924071241915225,0.0004014569403603673,-0.06981894776597619
1772741680084542700,7.579542724609375,0.08116203342676162,-0.0011431421531364321,-0.06658504387866705
1772741680094557700,7.5895576171875,-0.007509937238693237,-0.03790807117708027,-0.08769888784959912
1772741680104573700,7.59957373046875,-0.04790215338170528,0.10533161170650272,-0.10517499637268483
1772741680114588700,7.609588623046875,-0.013262217155098914,0.19192538785841315,-0.06997282315343618
1772741680124605000,7.61960498046875,-0.00613338818848133,-0.14547971689533443,-0.1725109316838905
1772741680134620000,7.629619873046875,0.05354220509529113,-0.14211685286611317,-0.1869705419300124
1772741680144636000,7.639635986328125,0.13880816670954227,-0.04005724856760352,-0.11067563961558043
1772741680154651000,7.64965087890625,0.18913024071455,0.02317958086170256,-0.019689400658383965
1772741680164667000,7.6596669921875,0.2846025390446186,0.07072309353146701,0.07809588732179254
1772741680174681900,7.669681884765625,0.3392646880805492,0.05846987075582146,0.11422467386666685
1772741680184696800,7.67969677734375,0.3339052068740129,0.03884659413620829,0.10022774922885
1772741680194712800,7.689712890625,0.3270703924179077,-0.010123517270572483,0.07519099619314074
1772741680204727800,7.699727783203125,0.31103754150569435,-0.04802979834936559,0.06169190154224634
1772741680214743800,7.709743896484375,0.1834796676069498,-0.026274660800211132,0.03474489443842321
1772741680224758800,7.7197587890625,0.05018938753604889,0.039205015652440486,0.05152607949990779
1772741680234774800,7.72977490234375,-0.06554185496866703,0.07686718577705323,0.07432685364447533
1772741680244789800,7.739789794921875,-0.1874444795846939,0.15731160898637025,0.09971406408566981
1772741680254805800,7.7498056640625,-0.18796879571974276,0.15816566853243857,0.11187990083880722
1772741680264820700,7.75982080078125,-0.09673369656801223,0.07984963565394282,0.10375837104041129
1772741680274836700,7.769836669921875,0.015414426752924919,-0.015048077658563851,0.020984774231165647
1772741680284851700,7.779851806640625,0.08297522032856941,-0.10162099368553608,-0.03465608364380896
1772741680294867700,7.78986767578125,0.1124684413164854,-0.06153934132903814,-0.03878492707684636
1772741680304882700,7.799882568359375,0.048532267978787416,-0.00836158563196659,-0.0036003625795245167
1772741680314898700,7.809898681640625,-0.0658259326070547,0.011235460567846894,0.020526253341324626
1772741680324913700,7.81991357421875,-0.2479939330935478,0.010896437871828675,0.028152875762246548
1772741680334930000,7.829929931640625,-0.3047434097975492,0.02699767784513533,0.03738693337980658
1772741680344945000,7.83994482421875,-0.2209241398602724,0.032966888447850944,0.058977601082250475
1772741680354961000,7.8499609375,-0.06972878526449203,0.058434361051023,0.0983334964474663
1772741680364975900,7.859975830078125,0.04975917942523956,0.05674735781215131,0.09425631013642996
1772741680374992000,7.869991943359375,0.035060207465291024,0.10076726293303072,0.06845244518574327
1772741680385006800,7.8800068359375,-0.04997428348064422,0.08880487633012235,0.05855002331994474
1772741680395022800,7.89002294921875,0.03014554741680622,0.007997611157782376,0.15272650968581436
1772741680405037800,7.900037841796875,-0.06752864487171173,0.041803361582569774,0.13440653421711177
1772741680415052800,7.910052734375,-0.19973054518401623,0.03513250551652163,0.11789105088710784
1772741680425068800,7.92006884765625,-0.3929711438268423,0.0378643781658262,0.06547463495135307
1772741680435083800,7.930083740234375,-0.4612485612392425,0.03954367302227765,0.06344320218898356
1772741680445099800,7.940099853515625,-0.25509412048757074,-0.005475874127820134,0.080697411589697
1772741680455114800,7.95011474609375,0.051794484645128244,-0.10661438152603804,0.06853756618592888
1772741680465130800,7.960130859375,0.4384668205887079,-0.20682875981666146,0.0014655425079166888
1772741680475145700,7.970145751953125,0.7788596359163522,-0.1565557491177693,-0.019210859893821177
1772741680485162500,7.98016259765625,0.9580775544255972,0.004959083712100983,0.008026435393467545
1772741680495177500,7.990177490234375,0.8797042749345302,0.06856839971560985,-0.012056019703112542
1772741680505193500,8.000193359375,0.6534948881477117,0.058899165551178155,-0.10818952188827097
1772741680515208400,8.01020849609375,0.5751181015253066,-0.00877535406462848,-0.1875538947759196
