time,seconds_elapsed,z,y,x
1772741672562916400,0.057916259765625,-0.02293219603598118,0.006510302424430847,0.10190783441066742
1772741672572931300,0.067931396484375,-0.020243467763066292,0.016176776960492134,0.10551907867193222
1772741672582947300,0.077947265625,-0.019399451091885567,0.03424660861492157,0.10835592448711395
1772741672592962300,0.08796240234375,-0.01924152486026287,0.05109855905175209,0.11496961861848831
1772741672602978300,0.097978271484375,-0.021353794261813164,0.06709875166416168,0.1332084983587265
1772741672612993300,0.1079931640625,-0.028512369841337204,0.08096237480640411,0.14881277084350586
1772741672623008300,0.11800830078125,-0.02966115064918995,0.09998463839292526,0.15282830595970154
1772741672633024300,0.128024169921875,-0.023140134289860725,0.11747494339942932,0.14817149937152863
1772741672643039200,0.138039306640625,-0.015009820461273193,0.1300836205482483,0.13077412545681
1772741672653055200,0.14805517578125,-0.009415850974619389,0.1272398978471756,0.09205015748739243
1772741672663070200,0.1580703125,0.005979667883366346,0.10044190287590027,0.03603190556168556
1772741672673086500,0.16808642578125,0.010939005762338638,0.08879989385604858,-0.022256968542933464
1772741672683101200,0.17810107421875,0.01478647906333208,0.06144149228930473,-0.0466935932636261
1772741672693117400,0.188117431640625,0.015029891394078732,0.05265545845031738,-0.0550556518137455
1772741672703132400,0.19813232421875,0.014339659363031387,0.03833487257361412,-0.04915112629532814
1772741672713148400,0.2081484375,0.014447517693042755,0.03332626447081566,-0.017831288278102875
1772741672723163400,0.218163330078125,0.016729552298784256,0.03385288268327713,0.030916135758161545
1772741672733179400,0.228179443359375,0.018114661797881126,0.030993981286883354,0.08439986407756805
1772741672743194400,0.2381943359375,0.02164861001074314,0.03455968573689461,0.13627339899539948
1772741672753210400,0.24821044921875,0.0245975274592638,0.04601713642477989,0.18982982635498047
1772741672763225300,0.258225341796875,0.020234718918800354,0.07955414056777954,0.22743356227874756
1772741672773241300,0.268241455078125,0.013502780348062515,0.09027096629142761,0.23885957896709442
1772741672783256300,0.27825634765625,0.0047269524075090885,0.07020902633666992,0.2095082551240921
1772741672793272300,0.288272216796875,0.0009173005819320679,0.04323013871908188,0.15362846851348877
1772741672803287300,0.298287353515625,-0.0011748629622161388,0.014392286539077759,0.10258032381534576
1772741672813303300,0.30830322265625,-0.0012531597167253494,-0.013286479748785496,0.0546138621866703
1772741672823318300,0.318318359375,-0.005262205842882395,-0.036235228180885315,0.007841904647648335
1772741672833334300,0.328334228515625,-0.003617437556385994,-0.04426519572734833,-0.02561352401971817
1772741672843349200,0.338349365234375,0.0008710515685379505,-0.0401519276201725,-0.05754058063030243
1772741672853365200,0.348365234375,0.006362223066389561,-0.02799672819674015,-0.07838300615549088
1772741672863380200,0.358380126953125,0.006979657337069511,-0.02334890328347683,-0.09273926913738251
1772741672873396500,0.368396484375,0.007278996519744396,-0.030946634709835052,-0.10341375321149826
1772741672883411500,0.378411376953125,0.005600405856966972,-0.044497329741716385,-0.10086271166801453
1772741672893427500,0.388427490234375,0.0019843662157654762,-0.0477309413254261,-0.06650367379188538
1772741672903442400,0.3984423828125,-0.0009132665582001209,-0.025912540033459663,-0.008733890019357204
1772741672913458400,0.40845849609375,-0.00624571368098259,0.012127254158258438,0.054833099246025085
1772741672923473400,0.418473388671875,-0.005212169140577316,0.033020660281181335,0.09346318244934082
1772741672933489400,0.428489501953125,-0.005345060955733061,0.02926800213754177,0.09730611741542816
1772741672943504400,0.43850439453125,0.0005066408775746822,0.012647196650505066,0.07232802361249924
1772741672953520400,0.448520263671875,0.004116023425012827,-0.008917217142879963,0.0389905720949173
1772741672963535400,0.458535400390625,0.006568226497620344,-0.016437577083706856,0.007870307192206383
1772741672973551400,0.46855126953125,0.005528527777642012,-0.02940903604030609,-0.017048092558979988
1772741672983566300,0.47856640625,-0.00043514720164239407,-0.034145768731832504,-0.03943625092506409
1772741672993582300,0.488582275390625,-0.0019805794581770897,-0.03037659265100956,-0.05518592149019241
1772741673003597300,0.498597412109375,0.001953563652932644,-0.03352520242333412,-0.06500785797834396
1772741673013613300,0.50861328125,0.004964001476764679,-0.024811338633298874,-0.056760843843221664
1772741673023628300,0.518628173828125,0.006394470576196909,0.0022308523766696453,-0.025421394035220146
1772741673033644300,0.528644287109375,0.0005541583523154259,0.027476022019982338,0.008514735847711563
1772741673043659300,0.5386591796875,-0.005396611988544464,0.04433012008666992,0.03899305686354637
1772741673053675500,0.548675537109375,-0.008237139321863651,0.060946911573410034,0.05905731022357941
1772741673063690200,0.558690185546875,-0.011371210217475891,0.0710780918598175,0.06464564800262451
1772741673073705200,0.568705322265625,-0.006169524043798447,0.06635923683643341,0.04857134073972702
1772741673083721500,0.578721435546875,-0.0023084101267158985,0.053142253309488297,0.02418428286910057
1772741673093736400,0.588736328125,0.0011686128564178944,0.033277999609708786,0.0009258310310542583
1772741673103752400,0.59875244140625,0.003917049150913954,0.01675686053931713,-0.00905701145529747
1772741673113767400,0.608767333984375,0.005689915735274553,0.015942998230457306,-0.004037485457956791
1772741673123783400,0.618783447265625,0.0005418811924755573,0.026091286912560463,0.010823553428053856
1772741673133798400,0.62879833984375,-0.0018451102077960968,0.03744620829820633,0.02847871370613575
1772741673143814400,0.638814453125,-0.00806690938770771,0.04135887697339058,0.04418091103434563
1772741673153829400,0.648829345703125,-0.013530118390917778,0.042892590165138245,0.04776472598314285
1772741673163845400,0.658845458984375,-0.013889358378946781,0.038437291979789734,0.03850371763110161
1772741673173860400,0.6688603515625,-0.012820365838706493,0.035927265882492065,0.020420053973793983
1772741673183876400,0.67887646484375,-0.013651110231876373,0.02368568629026413,-0.004634203389286995
1772741673193891300,0.688891357421875,-0.015463924035429955,0.01385089848190546,-0.022991107776761055
1772741673203907300,0.6989072265625,-0.02100454643368721,0.011247046291828156,-0.03562923148274422
1772741673213922300,0.70892236328125,-0.02641289308667183,0.0025749951601028442,-0.0372026301920414
1772741673223938300,0.718938232421875,-0.02160416543483734,-0.00511698005720973,-0.03267437592148781
1772741673233953300,0.728953369140625,-0.014243985526263714,-0.008304251357913017,-0.011847658082842827
1772741673243969300,0.73896923828125,-0.00637943297624588,0.0014720577746629715,0.020476052537560463
1772741673253984300,0.748984375,-0.007667337544262409,0.010705503635108471,0.0527983084321022
1772741673264000300,0.759000244140625,-0.009792137891054153,0.028004847466945648,0.07043313980102539
1772741673274015200,0.76901513671875,-0.016060153022408485,0.03199772164225578,0.07063766568899155
1772741673284031500,0.779031494140625,-0.019892698153853416,0.03399932384490967,0.036867473274469376
1772741673294046500,0.78904638671875,-0.019886840134859085,0.0018786740256473422,-0.0255583543330431
1772741673304062500,0.7990625,-0.009629557840526104,-0.04441419243812561,-0.07758580893278122
1772741673314077400,0.809077392578125,0.00346733583137393,-0.07660754770040512,-0.1006341353058815
1772741673324093400,0.819093505859375,0.008767385967075825,-0.08919322490692139,-0.10023792833089828
1772741673334108400,0.8291083984375,0.01391634065657854,-0.0811464786529541,-0.07788175344467163
1772741673344124400,0.83912451171875,0.012337899766862392,-0.0628112182021141,-0.04610428214073181
1772741673354139400,0.849139404296875,0.012595427222549915,-0.05476154759526253,-0.02407381683588028
1772741673364155400,0.8591552734375,0.02007943019270897,-0.060383956879377365,-0.013630853965878487
1772741673374170400,0.86917041015625,0.029870541766285896,-0.05427120625972748,0.015642346814274788
1772741673384186400,0.879186279296875,0.034078117460012436,-0.029594283550977707,0.05637937784194946
1772741673394201300,0.889201416015625,0.03270738944411278,0.0014427292626351118,0.09930446743965149
1772741673404217300,0.89921728515625,0.031417571008205414,0.020266970619559288,0.1228334829211235
1772741673414232300,0.909232421875,0.02790245972573757,0.027274280786514282,0.12407425045967102
1772741673424248300,0.919248291015625,0.028624121099710464,0.02357746660709381,0.09638756513595581
1772741673434263300,0.92926318359375,0.03087928518652916,-0.005209706258028746,0.0400710366666317
1772741673444278300,0.9392783203125,0.03559635579586029,-0.036436352878808975,-0.01743481308221817
1772741673454294300,0.949294189453125,0.03753513842821121,-0.049802493304014206,-0.04541584849357605
1772741673464309200,0.959309326171875,0.029435643926262856,-0.03874015808105469,-0.04271845892071724
1772741673474325200,0.9693251953125,0.022024331614375114,-0.010076552629470825,-0.023154612630605698
1772741673484340200,0.97934033203125,0.009729227051138878,0.019572244957089424,0.0034374017268419266
1772741673494356500,0.9893564453125,0.0017810221761465073,0.03676694631576538,0.022016145288944244
1772741673504371500,0.999371337890625,-0.0028181704692542553,0.046575818210840225,0.02776368334889412
1772741673514387500,1.009387451171875,-0.00674100685864687,0.04913032427430153,0.017259642481803894
1772741673524402400,1.01940234375,-0.013270603492856026,0.04165320098400116,-0.005248356610536575
1772741673534418400,1.02941845703125,-0.01619022712111473,0.02186911180615425,-0.04108544811606407
1772741673544433400,1.039433349609375,-0.0143668781965971,0.00645440723747015,-0.07014378905296326
1772741673554449400,1.049449462890625,-0.01196497306227684,-0.001855454407632351,-0.08993613719940186
1772741673564464400,1.05946435546875,-0.00824630819261074,-0.015079222619533539,-0.10473406314849854
1772741673574480400,1.06948046875,-0.004180993419140577,-0.03252692148089409,-0.10887288302183151
1772741673584495400,1.079495361328125,0.0012529073283076286,-0.04448207467794418,-0.09611131995916367
1772741673594511400,1.089511474609375,-0.00011142995208501816,-0.034200675785541534,-0.06153629347681999
1772741673604526300,1.0995263671875,-0.007644148543477058,-0.00018850434571504593,-0.005100828595459461
1772741673614542300,1.109542236328125,-0.017979877069592476,0.03647496923804283,0.044856078922748566
1772741673624557300,1.119557373046875,-0.019555281847715378,0.05322976037859917,0.0656258687376976
1772741673634573300,1.1295732421875,-0.013115490786731243,0.04679929092526436,0.05559214949607849
1772741673644588300,1.13958837890625,-0.00513473292812705,0.03264860063791275,0.026597287505865097
1772741673654604300,1.149604248046875,-0.0007258700206875801,0.016082407906651497,-0.015285980887711048
1772741673664619300,1.159619384765625,0.002002502791583538,-0.0018296067137271166,-0.05329957231879234
1772741673674635500,1.169635498046875,0.002251774538308382,-0.012092631310224533,-0.08101242780685425
1772741673684650200,1.179650146484375,0.0014253687113523483,-0.033128563314676285,-0.09979744255542755
1772741673694666500,1.18966650390625,0.0013886168599128723,-0.04265202581882477,-0.10553362965583801
1772741673704681500,1.199681396484375,-0.0003183162771165371,-0.039699990302324295,-0.0864768847823143
1772741673714697500,1.209697509765625,0.004205329343676567,-0.020587284117937088,-0.036387890577316284
1772741673724712400,1.21971240234375,0.004580403678119183,0.021468132734298706,0.025116777047514915
1772741673734728400,1.229728515625,-0.00020023668184876442,0.054864440113306046,0.06192006170749664
1772741673744743400,1.239743408203125,0.0016404353082180023,0.050585709512233734,0.05609995499253273
1772741673754758400,1.24975830078125,0.006074598524719477,0.025501130148768425,0.019416509196162224
1772741673764774400,1.2597744140625,0.012523292563855648,-0.00600773049518466,-0.028014864772558212
1772741673774789400,1.269789306640625,0.014231977052986622,-0.013078954070806503,-0.05177532136440277
1772741673784805400,1.279805419921875,0.00813298299908638,-0.005294974893331528,-0.056940171867609024
1772741673794820400,1.2898203125,-0.0029742633923888206,0.0018976910505443811,-0.06540822237730026
1772741673804836400,1.29983642578125,-0.001624448224902153,-0.016070090234279633,-0.06858609616756439
1772741673814851300,1.309851318359375,0.0030957385897636414,-0.022511212155222893,-0.055843401700258255
1772741673824867300,1.319867431640625,0.00240920577198267,-0.021071631461381912,-0.017146451398730278
1772741673834882300,1.32988232421875,-0.0025389473885297775,0.004063282161951065,0.04253285750746727
1772741673844898300,1.339898193359375,-0.011230888776481152,0.03478357940912247,0.09175249189138412
1772741673854913300,1.349913330078125,-0.017881333827972412,0.04465857893228531,0.11986881494522095
1772741673864929300,1.35992919921875,-0.024469783529639244,0.04068056866526604,0.11919928342103958
1772741673874944300,1.3699443359375,-0.023751262575387955,0.03397499769926071,0.09421563148498535
1772741673884960500,1.37996044921875,-0.02388344518840313,0.013436793349683285,0.04873717948794365
1772741673894975200,1.389975341796875,-0.02761773020029068,-0.0031989088747650385,0.0028109699487686157
1772741673904991500,1.399991455078125,-0.02663292922079563,-0.021343683823943138,-0.029740214347839355
1772741673915006500,1.41000634765625,-0.027905652299523354,-0.019592922180891037,-0.04016595706343651
1772741673925022500,1.4200224609375,-0.02969225123524666,-0.004954795353114605,-0.028754521161317825
1772741673935037400,1.430037353515625,-0.03770250827074051,0.015541957691311836,-0.010115056298673153
1772741673945053400,1.440053466796875,-0.03875871002674103,0.024523720145225525,0.0002577003324404359
1772741673955068400,1.450068359375,-0.03714536875486374,0.028321389108896255,-0.0010208833264186978
1772741673965084400,1.46008447265625,-0.03165988624095917,0.03234313428401947,-0.007852882146835327
1772741673975099400,1.470099365234375,-0.028163688257336617,0.031710367649793625,-0.01514621451497078
1772741673985115400,1.480115478515625,-0.023928994312882423,0.027966231107711792,-0.024669146165251732
1772741673995130400,1.49013037109375,-0.024481866508722305,0.02079993113875389,-0.02833179198205471
1772741674005146400,1.500146484375,-0.02694191038608551,0.019406894221901894,-0.02879321202635765
1772741674015161300,1.510161376953125,-0.028169360011816025,0.01469842717051506,-0.030014004558324814
1772741674025177300,1.52017724609375,-0.023225711658596992,0.006104310043156147,-0.03201976791024208
1772741674035192300,1.5301923828125,-0.020277593284845352,0.0033894837833940983,-0.030248764902353287
1772741674045207300,1.540207275390625,-0.016679920256137848,0.007853977382183075,-0.020543117076158524
1772741674055223300,1.550223388671875,-0.015022635459899902,0.016296997666358948,-0.009971166029572487
1772741674065238300,1.56023828125,-0.018202224746346474,0.0292116180062294,0.0009896967094391584
1772741674075254300,1.570254150390625,-0.02003474533557892,0.035074569284915924,0.008500343188643456
1772741674085269200,1.580269287109375,-0.020235655829310417,0.037015389651060104,0.007106410339474678
1772741674095285200,1.59028515625,-0.023655153810977936,0.025623716413974762,-0.00347326323390007
1772741674105300200,1.60030029296875,-0.02100466378033161,0.01990518718957901,-0.02020719088613987
1772741674115316500,1.61031640625,-0.020017696544528008,0.007815768010914326,-0.037889514118433
1772741674125331500,1.62033154296875,-0.021514715626835823,-0.011607496067881584,-0.04800209775567055
1772741674135347500,1.630347412109375,-0.02030004933476448,-0.026668205857276917,-0.04718024656176567
1772741674145362400,1.640362548828125,-0.02451738715171814,-0.02207685261964798,-0.026905326172709465
1772741674155378400,1.65037841796875,-0.02860720083117485,-0.014910287223756313,0.0007369536906480789
1772741674165393400,1.660393310546875,-0.025183578953146935,0.002708686050027609,0.03678398206830025
1772741674175409400,1.670409423828125,-0.02100214920938015,0.023479212075471878,0.06208294257521629
1772741674185424400,1.68042431640625,-0.02032449282705784,0.026595313102006912,0.06356680393218994
1772741674195440400,1.6904404296875,-0.014241565018892288,0.0182857196778059,0.04200718179345131
1772741674205455400,1.700455322265625,-0.009904161095619202,0.00309379561804235,0.007848775014281273
1772741674215471400,1.710471435546875,-0.009193096309900284,-0.014519819058477879,-0.028432799503207207
1772741674225486300,1.720486328125,-0.00302247260697186,-0.022612430155277252,-0.049027930945158005
1772741674235502300,1.73050244140625,0.000622329767793417,-0.019750332459807396,-0.05729305371642113
1772741674245517300,1.740517333984375,0.0013978797942399979,-0.02066926285624504,-0.06158803403377533
1772741674255533300,1.750533203125,0.008792413398623466,-0.03537097945809364,-0.05973687022924423
1772741674265548300,1.76054833984375,0.013584200292825699,-0.02729959413409233,-0.03179754316806793
1772741674275564300,1.770564208984375,0.012036904692649841,0.0032111769542098045,0.013924403116106987
1772741674285579300,1.780579345703125,0.006243324838578701,0.018732644617557526,0.04994426667690277
1772741674295595500,1.790595458984375,0.008233238942921162,0.02110285870730877,0.07188578695058823
1772741674305610200,1.8006103515625,0.012410402297973633,0.030095569789409637,0.08180711418390274
1772741674315625200,1.810625244140625,0.014896996319293976,0.02643212489783764,0.07870745658874512
1772741674325641500,1.820641357421875,0.01943901740014553,0.01644553802907467,0.057717226445674896
1772741674335656400,1.830656494140625,0.02278043143451214,0.01432002242654562,0.022538449615240097
1772741674345672400,1.84067236328125,0.024760965257883072,0.0033570886589586735,-0.01573280245065689
1772741674355687400,1.8506875,0.028458233922719955,-0.01358514279127121,-0.0511523112654686
1772741674365703400,1.860703369140625,0.030214734375476837,-0.025614170357584953,-0.06634943187236786
1772741674375718400,1.870718505859375,0.03325952589511871,-0.02161836437880993,-0.0567450076341629
1772741674385734400,1.880734375,0.035672497004270554,-0.008729778230190277,-0.03310925513505936
1772741674395749400,1.890749267578125,0.03996790945529938,0.014977148734033108,-0.0019252360798418522
1772741674405765400,1.900765380859375,0.04179149493575096,0.026658635586500168,0.01497603952884674
1772741674415780400,1.9107802734375,0.04288152605295181,0.0205320343375206,0.012464412488043308
1772741674425796400,1.92079638671875,0.04136082902550697,0.010017464868724346,0.0006091981194913387
1772741674435811300,1.930811279296875,0.04357684403657913,0.0043752919882535934,-0.015095995739102364
1772741674445827300,1.940827392578125,0.04101940244436264,0.00484402384608984,-0.030514376237988472
1772741674455842300,1.95084228515625,0.03781402111053467,-0.0006279733497649431,-0.04553487151861191
1772741674465858300,1.9608583984375,0.034011419862508774,-0.02161416783928871,-0.05716216564178467
1772741674475873300,1.970873291015625,0.02876286208629608,-0.020548105239868164,-0.04920916631817818
1772741674485889300,1.98088916015625,0.01631302386522293,-0.005311267450451851,-0.026192447170615196
1772741674495904300,1.990904296875,0.0013319449499249458,0.007912659086287022,0.000480709713883698
1772741674505920500,2.00092041015625,-0.0071983616799116135,0.020405562594532967,0.02226993441581726
1772741674515935200,2.010935302734375,-0.011666613630950451,0.026528436690568924,0.02665695920586586
1772741674525951500,2.020951416015625,-0.011164496652781963,0.025400133803486824,0.018877379596233368
1772741674535966500,2.030966552734375,-0.008482960052788258,0.020610705018043518,0.004082720726728439
1772741674545982500,2.040982421875,-0.005724361166357994,0.018471278250217438,-0.01654779724776745
1772741674555997400,2.05099755859375,-0.010910067707300186,0.01373031921684742,-0.03677051141858101
1772741674566013400,2.061013427734375,-0.01739557459950447,0.006914397701621056,-0.04727277159690857
1772741674576028400,2.0710283203125,-0.02375626750290394,-0.001981626031920314,-0.04817824438214302
1772741674586043400,2.08104345703125,-0.029552072286605835,-0.00023844512179493904,-0.03756007179617882
1772741674596059400,2.091059326171875,-0.031127069145441055,0.011763356626033783,-0.015232394449412823
1772741674606074400,2.101074462890625,-0.034811295568943024,0.03355443477630615,0.012337692081928253
1772741674616090400,2.11109033203125,-0.03941536694765091,0.05173477157950401,0.027378160506486893
1772741674626105300,2.121105224609375,-0.03890608251094818,0.061191558837890625,0.021596619859337807
1772741674636121300,2.131121337890625,-0.03701204061508179,0.058788590133190155,0.0020825727842748165
1772741674646136300,2.14113623046875,-0.034573234617710114,0.043782152235507965,-0.024350689724087715
1772741674656152300,2.15115234375,-0.034394271671772,0.027393056079745293,-0.04596490412950516
1772741674666167300,2.161167236328125,-0.032182417809963226,0.014836409129202366,-0.04935012012720108
1772741674676183300,2.171183349609375,-0.030058814212679863,0.016077708452939987,-0.030127957463264465
1772741674686198300,2.1811982421875,-0.03301484137773514,0.028318066149950027,-0.005100742913782597
1772741674696214300,2.19121435546875,-0.03151495009660721,0.03494294732809067,0.018185138702392578
1772741674706229200,2.201229248046875,-0.028216471895575523,0.033950306475162506,0.026333298534154892
1772741674716245500,2.21124560546875,-0.028180519118905067,0.029957164078950882,0.022975586354732513
1772741674726260200,2.22126025390625,-0.02855614200234413,0.02762630209326744,0.016334671527147293
1772741674736276500,2.2312763671875,-0.030184932053089142,0.030193325132131577,0.006996563635766506
1772741674746291500,2.24129150390625,-0.028328953310847282,0.03293681889772415,-0.0014114378718659282
1772741674756307500,2.251307373046875,-0.02518455870449543,0.031685132533311844,-0.00799716915935278
1772741674766322400,2.261322509765625,-0.02496035397052765,0.026043349876999855,-0.016213173046708107
1772741674776338400,2.27133837890625,-0.018548525869846344,0.01830420456826687,-0.020898470655083656
1772741674786353400,2.281353515625,-0.00856782402843237,0.01430930569767952,-0.01689348742365837
1772741674796369400,2.291369384765625,-0.0025797062553465366,0.028315402567386627,-0.004620308987796307
1772741674806384400,2.30138427734375,0.0026579112745821476,0.031958967447280884,0.0005450273165479302
1772741674816400400,2.311400390625,0.004997498355805874,0.027285920456051826,-0.002460616175085306
1772741674826415400,2.321415283203125,0.010744776576757431,0.023296864703297615,-0.004058960825204849
1772741674836431400,2.331431396484375,0.014635654166340828,0.0241599939763546,-0.003634985536336899
1772741674846446300,2.3414462890625,0.009066356346011162,0.02192091755568981,-0.0054858080111444
1772741674856462300,2.35146240234375,0.008361684158444405,0.024211768060922623,-0.0017387403640896082
1772741674866477300,2.361477294921875,0.004994532093405724,0.029477842152118683,-0.0014724810607731342
1772741674876492300,2.3714921875,0.0033955699764192104,0.029797153547406197,-0.012913154438138008
1772741674886508300,2.38150830078125,0.0025062556378543377,0.017161598429083824,-0.03242577239871025
1772741674896523300,2.391523193359375,0.010250195860862732,0.0023565536830574274,-0.05268177390098572
1772741674906539300,2.401539306640625,0.0117752430960536,-0.006770584266632795,-0.06677249819040298
1772741674916554200,2.41155419921875,0.010089196264743805,-0.012677209451794624,-0.07090891897678375
1772741674926570200,2.4215703125,-0.0007724205497652292,0.0006220054347068071,-0.059126123785972595
1772741674936585200,2.431585205078125,-0.011084446683526039,0.025029875338077545,-0.03670523688197136
1772741674946601500,2.4416015625,-0.023688577115535736,0.03237028419971466,-0.02217913046479225
1772741674956616400,2.451616455078125,-0.029404519125819206,0.02375708892941475,-0.018154295161366463
1772741674966632400,2.461632568359375,-0.02794063277542591,0.014268731698393822,-0.02142227813601494
1772741674976647400,2.4716474609375,-0.026156580075621605,0.004278682172298431,-0.02251816913485527
1772741674986663400,2.481663330078125,-0.025245625525712967,0.005444004200398922,-0.01986144483089447
1772741674996678400,2.491678466796875,-0.022752106189727783,0.009516242891550064,-0.008145665749907494
1772741675006694400,2.5016943359375,-0.01937747746706009,0.018273217603564262,0.00007756392005831003
1772741675016709400,2.51170947265625,-0.017108198255300522,0.018724091351032257,0.008391153998672962
1772741675026725400,2.521725341796875,-0.016928674653172493,0.01010625809431076,0.02080482244491577
1772741675036740400,2.531740234375,-0.01240316592156887,0.015985185280442238,0.040145765990018845
1772741675046756400,2.54175634765625,-0.013995575718581676,0.013533653691411018,0.059431008994579315
1772741675056771300,2.551771240234375,-0.009785117581486702,0.009652095846831799,0.07744836062192917
1772741675066787300,2.561787353515625,-0.008711284026503563,0.013551824726164341,0.08649139106273651
1772741675076802300,2.57180224609375,-0.007317118812352419,0.008306995034217834,0.08768875896930695
1772741675086818300,2.581818359375,-0.008405396714806557,0.0026271932292729616,0.07296089082956314
1772741675096833300,2.591833251953125,-0.010022202506661415,-0.0063905371353030205,0.04596602916717529
1772741675106849300,2.601849365234375,-0.00928414985537529,-0.014723129570484161,0.010848434641957283
1772741675116864300,2.6118642578125,-0.0011820148210972548,-0.027969958260655403,-0.019886840134859085
1772741675126880500,2.621880615234375,0.006618559826165438,-0.03270682692527771,-0.0398775078356266
1772741675136895200,2.631895263671875,0.012684708461165428,-0.04253682121634483,-0.03889559954404831
1772741675146910200,2.64191015625,0.013113457709550858,-0.030680347234010696,-0.020271699875593185
1772741675156926500,2.651926513671875,0.011567758396267891,-0.012775915674865246,0.008893109858036041
1772741675166941400,2.66194140625,0.010338405147194862,0.0034317029640078545,0.03294127434492111
1772741675176957400,2.67195751953125,0.008046220988035202,0.010193469002842903,0.044278353452682495
1772741675186972400,2.681972412109375,0.011541439220309258,0.01515539176762104,0.036626994609832764
1772741675196988400,2.691988525390625,0.013577159494161606,0.010754251852631569,0.01663624309003353
1772741675207003400,2.70200341796875,0.016790801659226418,0.001275514019653201,-0.009339685551822186
1772741675217019400,2.712019287109375,0.018710674718022346,-0.010165159590542316,-0.030116869136691093
1772741675227034400,2.722034423828125,0.019113902002573013,-0.008964450098574162,-0.03528645634651184
1772741675237050400,2.73205029296875,0.014938066713511944,-0.006649630144238472,-0.03355487063527107
1772741675247065300,2.7420654296875,0.015607033856213093,-0.009639746509492397,-0.02588641457259655
1772741675257081300,2.752081298828125,0.018115464597940445,-0.01287468895316124,-0.011191356927156448
1772741675267096300,2.762096435546875,0.02041911706328392,-0.0030261341016739607,0.012005425058305264
1772741675277112300,2.7721123046875,0.015496798790991306,0.00554285291582346,0.028604108840227127
1772741675287127300,2.782127197265625,0.012386880815029144,0.007589539512991905,0.03208998963236809
1772741675297143300,2.792143310546875,0.006198760587722063,0.007006573956459761,0.02294336073100567
1772741675307158300,2.802158203125,0.003047797828912735,0.0018958745058625937,0.0026193636003881693
1772741675317174300,2.81217431640625,-0.001595156965777278,-0.0043614888563752174,-0.01635965332388878
1772741675327189200,2.822189208984375,-0.0022321315482258797,-0.010278720408678055,-0.025816256180405617
1772741675337205500,2.83220556640625,-0.0025288076139986515,-0.006523396819829941,-0.022597825154662132
1772741675347220200,2.84222021484375,-0.0009986457880586386,-0.0009775366634130478,-0.014241805300116539
1772741675357236500,2.852236572265625,0.002677315380424261,0.0032837875187397003,-0.004919942934066057
1772741675367251500,2.86225146484375,0.005204570014029741,0.0015970200765877962,0.0026864069513976574
1772741675377267500,2.872267333984375,0.0031115920282900333,0.006235447712242603,0.009947249665856361
1772741675387282400,2.882282470703125,-0.00033779279328882694,0.0082761961966753,0.016338009387254715
1772741675397298400,2.89229833984375,-0.0012938675936311483,0.012052824720740318,0.016876233741641045
1772741675407313400,2.9023134765625,0.0024095242843031883,0.008348900824785233,0.008955460041761398
1772741675417329400,2.912329345703125,0.006327833514660597,-0.0013221022672951221,-0.008079184219241142
1772741675427344400,2.922344482421875,0.010131685063242912,-0.015789426863193512,-0.028779640793800354
1772741675437359400,2.932359375,0.009592395275831223,-0.029367554932832718,-0.04136387258768082
1772741675447375400,2.942375244140625,0.012005488388240337,-0.030904477462172508,-0.04375085607171059
1772741675457390300,2.952390380859375,0.0113618029281497,-0.022109389305114746,-0.040609922260046005
1772741675467406300,2.96240625,0.006806583143770695,-0.020095443353056908,-0.024286819621920586
1772741675477420800,2.9724208984375,0.004007334820926189,-0.008222538977861404,-0.00439194031059742
1772741675487436800,2.982436767578125,0.005716637242585421,-0.0024883002042770386,0.012986687012016773
1772741675497451800,2.99245166015625,0.005236469674855471,0.0008896531071513891,0.021825451403856277
1772741675507467800,3.0024677734375,0.0069871991872787476,0.0018032423686236143,0.020153632387518883
1772741675517482800,3.012482666015625,0.005990911275148392,-0.005942295305430889,0.0016779530560597777
1772741675527498800,3.022498779296875,0.004786038305610418,-0.02308962121605873,-0.021360015496611595
1772741675537513700,3.032513671875,0.003053652588278055,-0.03242746368050575,-0.02446393109858036
1772741675547530000,3.042530029296875,-0.006478333845734596,-0.02150823548436165,-0.0035946015268564224
1772741675557545000,3.052544921875,-0.010399306192994118,-0.004645367152988911,0.03287339583039284
1772741675567561000,3.06256103515625,-0.018500175327062607,0.007253620773553848,0.06239689141511917
1772741675577576000,3.072575927734375,-0.015228481031954288,0.00979187898337841,0.07480163127183914
1772741675587592000,3.082592041015625,-0.012927530333399773,0.0025963792577385902,0.06858514994382858
1772741675597607000,3.09260693359375,-0.008941843174397945,-0.005294566974043846,0.047111812978982925
1772741675607623000,3.102622802734375,-0.01007886417210102,-0.0074019888415932655,0.018336836248636246
1772741675617638000,3.112637939453125,-0.0077730994671583176,-0.012373576872050762,-0.010293743573129177
1772741675627654000,3.12265380859375,-0.00847475603222847,-0.020917609333992004,-0.03270673751831055
1772741675637668900,3.1326689453125,-0.009328033775091171,-0.023097673431038857,-0.03754277154803276
1772741675647684900,3.142684814453125,-0.013009976595640182,-0.012927108444273472,-0.025086436420679092
1772741675657699800,3.152699951171875,-0.013790016993880272,0.003547205589711666,-0.0026889846194535494
1772741675667715800,3.1627158203125,-0.009096072055399418,0.02719186246395111,0.02016020566225052
1772741675677730800,3.172730712890625,-0.0059157246723771095,0.03878593444824219,0.02581542730331421
1772741675687746800,3.182746826171875,0.00048604467883706093,0.03858408331871033,0.015161490999162197
1772741675697761800,3.19276171875,0.008929597213864326,0.03268544748425484,-0.0007378457230515778
1772741675707776800,3.20277685546875,0.015825219452381134,0.02210909314453602,-0.016710355877876282
1772741675717792800,3.212792724609375,0.018715813755989075,0.009616470895707607,-0.027745164930820465
1772741675727807700,3.222807861328125,0.023481640964746475,0.0023879953660070896,-0.028258418664336205
1772741675737823700,3.23282373046875,0.02639620564877987,0.004867398180067539,-0.016820408403873444
1772741675747838700,3.242838623046875,0.02747602015733719,0.017372911795973778,0.0021722642704844475
1772741675757855000,3.25285498046875,0.029557548463344574,0.02233305014669895,0.019290531054139137
1772741675767870000,3.262869873046875,0.0284276083111763,0.019057754427194595,0.03209757059812546
1772741675777886000,3.272885986328125,0.023757752031087875,0.025502869859337807,0.04011501744389534
1772741675787901000,3.28290087890625,0.021110620349645615,0.02699563279747963,0.042920131236314774
1772741675797917000,3.2929169921875,0.017742518335580826,0.02718445099890232,0.03394021838903427
1772741675807932000,3.302931884765625,0.015990516170859337,0.018670232966542244,0.016424255445599556
1772741675817948000,3.312947998046875,0.013807788491249084,0.005917685106396675,-0.007719695568084717
1772741675827963000,3.322962890625,0.013422546908259392,-0.007841474376618862,-0.03168569132685661
1772741675837979000,3.332978759765625,0.012851297855377197,-0.018358297646045685,-0.044935986399650574
1772741675847993900,3.342993896484375,0.0118170864880085,-0.03047923371195793,-0.04673098772764206
1772741675858009900,3.353009765625,0.007597839925438166,-0.034894488751888275,-0.03319387510418892
1772741675868024800,3.36302490234375,0.0016259318217635155,-0.027254804968833923,-0.006149638444185257
1772741675878040800,3.373040771484375,-0.00884322077035904,-0.016023987904191017,0.026603247970342636
1772741675888055800,3.383055908203125,-0.0175323449075222,-0.00528734503313899,0.0528661347925663
1772741675898071800,3.39307177734375,-0.022007785737514496,0.0013654977083206177,0.06831593066453934
1772741675908086800,3.403086669921875,-0.02536541223526001,0.0066648428328335285,0.07099524140357971
1772741675918102800,3.413102783203125,-0.023760326206684113,-0.0018434242811053991,0.06015404313802719
1772741675928117800,3.42311767578125,-0.02082306146621704,-0.008593189530074596,0.03575926646590233
1772741675938133800,3.4331337890625,-0.019958067685365677,-0.02470904216170311,0.00555235892534256
1772741675948148700,3.443148681640625,-0.0180265624076128,-0.034229498356580734,-0.01412271149456501
1772741675958165000,3.4531650390625,-0.013973765075206757,-0.037370696663856506,-0.02025863528251648
1772741675968180000,3.463179931640625,-0.010427115485072136,-0.02935638464987278,-0.00932310614734888
1772741675978196000,3.473196044921875,-0.008841203525662422,-0.017216363921761513,0.011069783009588718
1772741675988211000,3.4832109375,-0.012292895466089249,-0.002852196339517832,0.03558193892240524
1772741675998226000,3.493225830078125,-0.01281673926860094,0.0027337840292602777,0.060372769832611084
1772741676008242000,3.503241943359375,-0.008624231442809105,0.008066902868449688,0.08491624891757965
1772741676018257000,3.5132568359375,-0.0039402637630701065,0.00976386945694685,0.09109584987163544
1772741676028273000,3.52327294921875,-0.00007783295586705208,0.0040778499096632,0.08101730048656464
1772741676038288000,3.533287841796875,0.005377652123570442,-0.006695169489830732,0.06129579618573189
1772741676048303900,3.543303955078125,0.010664442554116249,-0.009728571400046349,0.03536880016326904
1772741676058318800,3.55331884765625,0.008829524740576744,-0.020843274891376495,0.004901971202343702
1772741676068334800,3.5633349609375,0.00946891400963068,-0.031384725123643875,-0.019614722579717636
1772741676078349800,3.573349853515625,0.010802092030644417,-0.03576775640249252,-0.028866276144981384
1772741676088365800,3.58336572265625,0.010782651603221893,-0.03040468320250511,-0.02758929133415222
1772741676098380800,3.593380859375,0.012246591039001942,-0.02612471580505371,-0.01874386891722679
1772741676108396800,3.603396728515625,0.011005142703652382,-0.016319960355758667,-0.004168597981333733
1772741676118411800,3.613411865234375,0.009929493069648743,0.0016009834362193942,0.014374726451933384
1772741676128427800,3.623427734375,0.0035438863560557365,0.011221433989703655,0.017878184095025063
1772741676138442800,3.63344287109375,-0.00039785844273865223,0.0055960388854146,0.00865538977086544
1772741676148458800,3.643458740234375,0.003570490051060915,0.0045204986818134785,0.0018077288987115026
1772741676158473700,3.6534736328125,0.00461152009665966,0.003495980752632022,-0.006144736427813768
1772741676168490000,3.663489990234375,0.002490920014679432,-0.001147289527580142,-0.010801125317811966
1772741676178505000,3.6735048828125,0.0031572431325912476,-0.004030161537230015,-0.010322289541363716
1772741676188521000,3.68352099609375,0.004094734322279692,-0.00017307396046817303,-0.009624779224395752
1772741676198536000,3.693535888671875,0.00447716424241662,0.0012794139329344034,-0.011346512474119663
1772741676208552000,3.703552001953125,0.005887599661946297,-0.006733880843967199,-0.021606463938951492
1772741676218567000,3.71356689453125,0.00391792505979538,-0.01903289183974266,-0.02898608334362507
1772741676228583000,3.7235830078125,0.0025475346483290195,-0.02637389488518238,-0.02676282823085785
1772741676238598000,3.733597900390625,-0.0014160480350255966,-0.02962188422679901,-0.01636025495827198
1772741676248614000,3.74361376953125,-0.0038491443265229464,-0.021395789459347725,0.004373366944491863
1772741676258628900,3.75362890625,0.0030369912274181843,-0.008527128025889397,0.024333758279681206
1772741676268643800,3.763643798828125,0.009062366560101509,-0.0006014509126543999,0.03080776333808899
1772741676278659800,3.773659912109375,0.014566855505108833,-0.0032981676049530506,0.021586300805211067
1772741676288674800,3.7836748046875,0.015562081709504128,-0.02214670553803444,0.0018192649586126208
1772741676298690800,3.79369091796875,0.016150640323758125,-0.03486409783363342,-0.008494358509778976
1772741676308705800,3.803705810546875,0.014517372474074364,-0.03543341904878616,-0.004166982136666775
1772741676318721800,3.8137216796875,0.010808121412992477,-0.02518211491405964,0.00960448943078518
1772741676328736800,3.82373681640625,0.00717589445412159,-0.010525110177695751,0.023785052821040154
1772741676338752800,3.833752685546875,0.00711464136838913,-0.0013790158554911613,0.029264772310853004
1772741676348767700,3.843767822265625,0.004609048832207918,0.0012818421237170696,0.020509449765086174
1772741676358783700,3.85378369140625,0.002257211599498987,0.00415592547506094,0.004719834309071302
1772741676368798700,3.863798828125,-0.0034564188681542873,-0.003822293831035495,-0.0166372898966074
1772741676378815000,3.87381494140625,-0.0068905651569366455,-0.01550504844635725,-0.03699955344200134
1772741676388830000,3.883829833984375,-0.008760247379541397,-0.021351706236600876,-0.04441425949335098
1772741676398846000,3.893845947265625,-0.006796432659029961,-0.013299105688929558,-0.04007144272327423
1772741676408861000,3.90386083984375,-0.004979322198778391,-0.005937468726187944,-0.029262838885188103
1772741676418877000,3.913876953125,-0.0024138991720974445,-0.00654014153406024,-0.017114296555519104
1772741676428892000,3.923891845703125,-0.0008004696574062109,-0.005949532147496939,-0.004997543524950743
1772741676438908000,3.933907958984375,-0.0017536149825900793,-0.005251783411949873,0.006586141884326935
1772741676448923000,3.9439228515625,-0.006299077067524195,-0.014700508676469326,0.015198668465018272
1772741676458939000,3.95393896484375,-0.008998990058898926,-0.009152344428002834,0.024615339934825897
1772741676468953900,3.963953857421875,-0.011972701177001,-0.0013944462407380342,0.03678025305271149
1772741676478969900,3.973969970703125,-0.012123435735702515,0.00579981692135334,0.03872595727443695
1772741676488984800,3.98398486328125,-0.009558189660310745,0.008703101426362991,0.029142221435904503
1772741676499000800,3.994000732421875,-0.005247596651315689,0.004544042982161045,0.009922719560563564
1772741676509015800,4.004015869140625,-0.00020629726350307465,-0.003726419759914279,-0.015223418362438679
1772741676519031800,4.01403173828125,0.005106709431856871,-0.01685314066708088,-0.03852927312254906
1772741676529046800,4.024046875,0.007155934814363718,-0.0291286651045084,-0.05672067403793335
1772741676539062800,4.034062744140625,0.012046564370393753,-0.03546832129359245,-0.05919448286294937
1772741676549077800,4.044077880859375,0.008040441200137138,-0.025506800040602684,-0.046483878046274185
1772741676559092700,4.0540927734375,0.006562386639416218,-0.00875471904873848,-0.01492728479206562
1772741676569108700,4.064108642578125,0.004329631105065346,0.01948210410773754,0.021000783890485764
1772741676579123700,4.074123779296875,-0.0004360955208539963,0.03896552324295044,0.041526831686496735
1772741676589139700,4.0841396484375,-0.00735173374414444,0.03975571691989899,0.03899206221103668
1772741676599154700,4.09415478515625,-0.0033934772945940495,0.02533230185508728,0.015116024762392044
1772741676609170700,4.104170654296875,0.0002191527746617794,0.007345891557633877,-0.018113547936081886
1772741676619185700,4.114185546875,0.0026743211783468723,-0.006671656854450703,-0.04485407844185829
1772741676629201700,4.12420166015625,0.0018217908218502998,-0.0032817660830914974,-0.06012839451432228
1772741676639216600,4.134216552734375,0.001498483121395111,0.0094422847032547,-0.059073783457279205
1772741676649232600,4.144232666015625,0.002358900848776102,0.012879034504294395,-0.048446174710989
1772741676659247600,4.15424755859375,0.00311443954706192,0.024324500933289528,-0.03768966719508171
1772741676669263600,4.164263671875,0.003858405165374279,0.022914042696356773,-0.027656011283397675
1772741676679278600,4.174278564453125,0.006315171718597412,0.026543399319052696,-0.011972124688327312
1772741676689294800,4.184294921875,0.004413168877363205,0.02701067365705967,0.0019318483537063003
1772741676699309800,4.194309814453125,0.0003659632056951523,0.024872954934835434,0.008751138113439083
1772741676709325800,4.204325927734375,-0.0007886588573455811,0.01831948012113571,0.0062489137053489685
1772741676719340800,4.2143408203125,-0.0015375397633761168,0.011793671175837517,-0.004196536727249622
1772741676729356800,4.224356689453125,0.0003786240704357624,0.004931689240038395,-0.012778455391526222
1772741676739371800,4.234371826171875,0.0018617385067045689,-0.0021821465343236923,-0.01830185204744339
1772741676749387800,4.2443876953125,0.0015353569760918617,-0.005674302112311125,-0.01896970346570015
1772741676759402800,4.25440283203125,0.0012725028209388256,-0.012677883729338646,-0.015533428639173508
1772741676769418800,4.264418701171875,0.004798731300979853,-0.009484237059950829,-0.0019199206726625562
1772741676779433700,4.274433837890625,0.0011302269995212555,-0.010603563860058784,0.01416983362287283
1772741676789449700,4.28444970703125,-0.0025642539840191603,-0.010707379318773746,0.03314492106437683
1772741676799464700,4.294464599609375,-0.009990212507545948,0.005748559255152941,0.05649338662624359
1772741676809480700,4.304480712890625,-0.01843583583831787,0.016490183770656586,0.06954023987054825
1772741676819495700,4.31449560546875,-0.019668081775307655,0.015900293365120888,0.06380113214254379
1772741676829510700,4.3245107421875,-0.0166009571403265,0.009358379058539867,0.040910299867391586
1772741676839526700,4.334526611328125,-0.012454681098461151,0.0014527858002111316,0.0044106123968958855
1772741676849541600,4.344541748046875,-0.006020269822329283,-0.01802375540137291,-0.04113851487636566
1772741676859557600,4.3545576171875,-0.000791685888543725,-0.03733726590871811,-0.0742780938744545
1772741676869572600,4.364572509765625,-0.002814500592648983,-0.03801286220550537,-0.08413704484701157
1772741676879588600,4.374588623046875,-0.005480857565999031,-0.02656952664256096,-0.07045585662126541
1772741676889603600,4.384603515625,-0.009543776512145996,-0.0031454272102564573,-0.04263034835457802
1772741676899619800,4.394619873046875,-0.015216043218970299,0.014932376332581043,-0.017630990594625473
1772741676909634800,4.404634765625,-0.016672147437930107,0.030029648914933205,-0.010202056728303432
1772741676919650800,4.41465087890625,-0.016466818749904633,0.03513199836015701,-0.011570122092962265
1772741676929665800,4.424665771484375,-0.01795687898993492,0.03572997450828552,-0.020809290930628777
1772741676939681800,4.434681884765625,-0.015337925404310226,0.014701386913657188,-0.03870440274477005
1772741676949696800,4.44469677734375,-0.010333074256777763,-0.0020537804812192917,-0.05585237219929695
1772741676959712800,4.454712646484375,-0.0064491210505366325,-0.011946624144911766,-0.06643924117088318
1772741676969727700,4.464727783203125,0.0002708504907786846,-0.02830064669251442,-0.06418981403112411
1772741676979743700,4.47474365234375,0.005813155323266983,-0.04105452448129654,-0.052440475672483444
1772741676989758700,4.4847587890625,0.012521225959062576,-0.051749102771282196,-0.02983163297176361
1772741676999774700,4.494774658203125,0.01699906401336193,-0.054926518350839615,0.007756487466394901
1772741677009789700,4.504789794921875,0.02280372381210327,-0.0551154762506485,0.04525795951485634
1772741677019805700,4.5148056640625,0.024622930213809013,-0.05859756097197533,0.07832855731248856
1772741677029820700,4.524820556640625,0.03020497038960457,-0.06790418177843094,0.09529849141836166
1772741677039836700,4.534836669921875,0.03333365172147751,-0.06738273799419403,0.11361278593540192
1772741677049851600,4.5448515625,0.034053873270750046,-0.05969996005296707,0.1288900524377823
1772741677059867600,4.55486767578125,0.03893518075346947,-0.060612887144088745,0.13333672285079956
1772741677069882600,4.564882568359375,0.046613626182079315,-0.06138473004102707,0.12899981439113617
1772741677079898600,4.574898681640625,0.049253884702920914,-0.059930115938186646,0.11898525804281235
1772741677089913600,4.58491357421875,0.04547647759318352,-0.05310211330652237,0.10955991595983505
1772741677099928600,4.594928466796875,0.038869708776474,-0.04349316284060478,0.097459577023983
1772741677109944800,4.60494482421875,0.032578788697719574,-0.04223082587122917,0.07725656777620316
1772741677119959600,4.61495947265625,0.02984371967613697,-0.03988431394100189,0.04583819583058357
1772741677129975800,4.624975830078125,0.024146512150764465,-0.033024370670318604,0.010901697911322117
1772741677139990800,4.63499072265625,0.019761882722377777,-0.02813800238072872,-0.020918283611536026
1772741677150006800,4.6450068359375,0.016959315165877342,-0.019662007689476013,-0.0457102507352829
1772741677160021800,4.655021728515625,0.014491630718111992,-0.006018101703375578,-0.056107230484485626
1772741677170037800,4.665037841796875,0.007196998689323664,0.00910666398704052,-0.061494652181863785
1772741677180052700,4.675052734375,0.0023841336369514465,0.013341622427105904,-0.06000887602567673
1772741677190068700,4.68506884765625,-0.000780938658863306,0.013854173012077808,-0.05769173055887222
1772741677200083700,4.695083740234375,-0.0005969142075628042,0.01587790809571743,-0.048822071403265
1772741677210099700,4.705099609375,-0.0008251471444964409,0.02135017141699791,-0.033341918140649796
1772741677220114700,4.71511474609375,-0.0006685534026473761,0.028918875381350517,-0.016733113676309586
1772741677230130700,4.725130615234375,-0.00371251511387527,0.027556810528039932,-0.011339526623487473
1772741677240145700,4.735145751953125,-0.0036523276939988136,0.007804943714290857,-0.016454659402370453
1772741677250161700,4.74516162109375,-0.004107230808585882,-0.011792851611971855,-0.027213463559746742
1772741677260176600,4.7551767578125,-0.0024403585121035576,-0.019139714539051056,-0.02834264375269413
1772741677270192600,4.765192626953125,-0.0032688090577721596,-0.020091498270630836,-0.01544971950352192
1772741677280207600,4.77520751953125,-0.006264332681894302,-0.01541338860988617,0.0018046344630420208
1772741677290223600,4.7852236328125,-0.009403604082763195,-0.006746646948158741,0.018318936228752136
1772741677300238600,4.795238525390625,-0.011080596596002579,0.002552045974880457,0.032022230327129364
1772741677310254800,4.8052548828125,-0.01735755428671837,0.00993360672146082,0.03511154279112816
1772741677320269800,4.815269775390625,-0.025756366550922394,0.014560583047568798,0.02754630148410797
1772741677330285800,4.825285888671875,-0.028213659301400185,0.011656923219561577,0.0025094030424952507
1772741677340300800,4.83530078125,-0.03145739063620567,0.007482951506972313,-0.018839294090867043
1772741677350316800,4.84531689453125,-0.03383967652916908,0.004274734761565924,-0.030675629153847694
1772741677360331800,4.855331787109375,-0.038672782480716705,0.005425220355391502,-0.030083874240517616
1772741677370347800,4.86534765625,-0.04561460390686989,0.006502046249806881,-0.0205211378633976
1772741677380362800,4.87536279296875,-0.05394230782985687,0.01374824158847332,-0.005652709864079952
1772741677390377700,4.885377685546875,-0.058038756251335144,0.023862818256020546,0.007221951149404049
1772741677400393700,4.895393798828125,-0.05571168661117554,0.02653210423886776,0.008320239372551441
1772741677410408700,4.90540869140625,-0.04606000706553459,0.019446559250354767,0.0010075217578560114
1772741677420424700,4.9154248046875,-0.035902708768844604,0.023535575717687607,-0.004299359396100044
1772741677430439700,4.925439697265625,-0.028814351186156273,0.018545251339673996,-0.012691331095993519
1772741677440455700,4.93545556640625,-0.018882358446717262,0.0026357939932495356,-0.024959715083241463
1772741677450470700,4.945470703125,-0.011072047054767609,-0.009320968762040138,-0.027245210483670235
1772741677460486700,4.955486572265625,-0.008754830807447433,-0.01047092117369175,-0.01446203887462616
1772741677470501600,4.965501708984375,-0.007313731126487255,0.0019311695359647274,0.006392949260771275
1772741677480518000,4.975517822265625,-0.005136863328516483,0.014220059849321842,0.02120358683168888
1772741677490532900,4.985532958984375,-0.0023942594416439533,0.01709621027112007,0.020044205710291862
1772741677500548900,4.995548828125,0.003748588263988495,0.011748582124710083,0.004966985434293747
1772741677510563800,5.005563720703125,0.008399451151490211,0.005363184958696365,-0.01659971848130226
1772741677520579800,5.015579833984375,0.01128125749528408,-0.007887639105319977,-0.039654701948165894
1772741677530594800,5.0255947265625,0.008440842851996422,-0.02156342752277851,-0.05773938447237015
1772741677540611000,5.035611083984375,0.009431272745132446,-0.02300979010760784,-0.05638383701443672
1772741677550625800,5.045625732421875,0.008506352081894875,-0.024605007842183113,-0.04040594771504402
1772741677560642000,5.05564208984375,0.006885285023599863,-0.018660832196474075,-0.015165571123361588
1772741677570657000,5.065656982421875,0.006562069058418274,-0.008302561938762665,0.014279850758612156
1772741677580673000,5.075673095703125,0.0030541527085006237,-0.003345619421452284,0.039278410375118256
1772741677590688000,5.08568798828125,0.004818000830709934,0.0059936800971627235,0.052972547709941864
1772741677600704000,5.0957041015625,0.001487452071160078,0.0062583982944488525,0.04793544486165047
1772741677610719000,5.105718994140625,-0.003091908525675535,0.0021435031667351723,0.025487378239631653
1772741677620735000,5.11573486328125,-0.005374237895011902,-0.006641199812293053,-0.0040998077020049095
1772741677630750000,5.12575,-0.0064515587873756886,-0.01748131774365902,-0.028915736824274063
1772741677640766000,5.135765869140625,-0.0008970038034021854,-0.0206195879727602,-0.040437374264001846
1772741677650781000,5.145781005859375,-0.000435451976954937,-0.016837742179632187,-0.037475526332855225
1772741677660797000,5.155796875,0.0014953399077057838,-0.005834092386066914,-0.02065873146057129
1772741677670812000,5.16581201171875,0.0015630163252353668,0.0007467190735042095,-0.004909442737698555
1772741677680827000,5.175826904296875,-0.0011137269902974367,0.00438939081504941,0.012001363560557365
1772741677690843000,5.1858427734375,-0.002981328871101141,0.013259301893413067,0.023390434682369232
1772741677700857900,5.19585791015625,-0.005128901917487383,0.018468178808689117,0.025696199387311935
1772741677710873900,5.205873779296875,-0.005380488000810146,0.011957749724388123,0.011358429677784443
1772741677720888800,5.215888916015625,-0.006519788410514593,0.004861758090555668,-0.007620321121066809
1772741677730904800,5.22590478515625,-0.011052664369344711,0.0016083464724943042,-0.024076877161860466
1772741677740919800,5.235919921875,-0.009354633279144764,-0.002321413950994611,-0.03927713632583618
1772741677750936000,5.24593603515625,-0.010490833781659603,-0.006373303942382336,-0.04257378727197647
1772741677760950800,5.25595068359375,-0.008304378017783165,-0.0020557877141982317,-0.03196561709046364
1772741677770967000,5.265967041015625,-0.010273194871842861,0.0074280258268117905,-0.012602811679244041
1772741677780982000,5.27598193359375,-0.005977782420814037,0.013526931405067444,0.006082725711166859
1772741677790998000,5.285998046875,-0.0034724511206150055,0.01930215395987034,0.01706179976463318
1772741677801013000,5.296012939453125,0.001459190621972084,0.017590273171663284,0.014403165318071842
1772741677811029000,5.306029052734375,0.005661510396748781,0.01025971956551075,-0.0011243385961279273
1772741677821044000,5.3160439453125,0.00604420667514205,-0.0025186603888869286,-0.021020282059907913
1772741677831060000,5.32606005859375,0.005693910177797079,-0.01850632019340992,-0.03725695610046387
1772741677841075000,5.336074951171875,0.0045839049853384495,-0.02560763992369175,-0.04058697447180748
1772741677851091000,5.346091064453125,0.0009436560794711113,-0.02347748726606369,-0.032198406755924225
1772741677861106000,5.35610595703125,-0.002755741123110056,-0.014991591684520245,-0.018466616049408913
1772741677871122000,5.366121826171875,-0.0032459967769682407,-0.005821920000016689,0.000001226784661412239
1772741677881137000,5.376136962890625,-0.0015034906100481749,0.0026149738114327192,0.015136238187551498
1772741677891153000,5.38615283203125,-0.0021323533728718758,0.007592249661684036,0.02059447206556797
1772741677901167900,5.39616796875,-0.004385653883218765,0.004724291153252125,0.019726814702153206
1772741677911184000,5.406183837890625,-0.00841430202126503,-0.002857116749510169,0.007031088229268789
1772741677921198800,5.41619873046875,-0.007420144975185394,-0.013683132827281952,-0.005153672769665718
1772741677931214800,5.42621484375,-0.0054470631293952465,-0.018739458173513412,-0.013238780200481415
1772741677941229800,5.436229736328125,-0.006121908314526081,-0.0162038616836071,-0.014623356983065605
1772741677951244800,5.446244873046875,-0.008827891200780869,-0.009206359274685383,-0.011864572763442993
1772741677961261000,5.456260986328125,-0.008034802041947842,-0.004579649306833744,-0.007522288244217634
1772741677971275800,5.46627587890625,-0.01191689819097519,-0.0015335108619183302,-0.007979030720889568
1772741677981292000,5.4762919921875,-0.00969209335744381,-0.0022616188507527113,-0.009640843607485294
1772741677991307000,5.48630712890625,-0.008367250673472881,-0.005311140790581703,-0.007806351408362389
1772741678001323000,5.496322998046875,-0.004085153806954622,-0.004303134512156248,0.002431638538837433
1772741678011338000,5.506337890625,-0.002482048235833645,0.0013064856175333261,0.018857426941394806
1772741678021354000,5.51635400390625,0.0045412397012114525,0.008578512817621231,0.027655180543661118
1772741678031369000,5.526368896484375,0.007987397722899914,0.01190788671374321,0.0314902737736702
1772741678041385000,5.536385009765625,0.011725942604243755,0.011452753096818924,0.02260437048971653
1772741678051400000,5.54639990234375,0.012986795976758003,0.010514864698052406,0.0032642739824950695
1772741678061416000,5.556416015625,0.011186499148607254,0.004597853869199753,-0.019141700118780136
1772741678071431000,5.566430908203125,0.00873996876180172,0.012147178873419762,-0.03291098400950432
1772741678081447000,5.576447021484375,0.0035009984858334064,0.017826903611421585,-0.03976249694824219
1772741678091462000,5.5864619140625,0.000600750558078289,0.010066968388855457,-0.0479901060461998
1772741678101478000,5.596477783203125,0.0010532219894230366,0.0041624740697443485,-0.05216727405786514
1772741678111492900,5.606492919921875,0.005843819119036198,-0.002671588212251663,-0.044506222009658813
1772741678121508900,5.6165087890625,0.007282191887497902,-0.0034412420354783535,-0.03420857712626457
1772741678131523800,5.62652392578125,0.005466028582304716,0.0017059271922335029,-0.020078599452972412
1772741678141539800,5.636539794921875,0.0021210978738963604,0.003577330382540822,-0.004457029048353434
1772741678151554800,5.646554931640625,0.000588779803365469,-0.004773527383804321,0.005412684753537178
1772741678161571000,5.656571044921875,0.0006178081966936588,-0.013002695515751839,0.011249534785747528
1772741678171586000,5.6665859375,0.0013938848860561848,-0.016703283414244652,0.012960769236087799
1772741678181602000,5.67660205078125,0.0030218753963708878,-0.014985011890530586,0.020226137712597847
1772741678191617000,5.686616943359375,0.0030192434787750244,-0.007439068518579006,0.022937657311558723
1772741678201633000,5.696633056640625,0.006355918012559414,-0.0066292015835642815,0.014958825893700123
1772741678211648000,5.70664794921875,0.006603944581001997,-0.008297484368085861,0.0035558724775910378
1772741678221663000,5.7166630859375,0.008933145552873611,-0.015307190828025341,-0.013560529798269272
1772741678231679000,5.726678955078125,0.007224519271403551,-0.018049150705337524,-0.023061063140630722
1772741678241694000,5.73669384765625,0.006729970220476389,-0.023340320214629173,-0.025491729378700256
1772741678251710000,5.7467099609375,0.0021606674417853355,-0.021988026797771454,-0.016246356070041656
1772741678261725000,5.756724853515625,0.0036395201459527016,-0.01564251445233822,0.0044426764361560345
1772741678271741000,5.766740966796875,-0.00320619298145175,0.002137250266969204,0.01951667107641697
1772741678281756000,5.776755859375,-0.006321558728814125,0.004226766526699066,0.020078066736459732
1772741678291772000,5.78677197265625,-0.003797686193138361,-0.0010161837562918663,0.00740407221019268
1772741678301787000,5.796786865234375,-0.0005680706817656755,-0.009635504335165024,-0.009775446727871895
1772741678311803000,5.806802978515625,-0.005576645955443382,-0.012563241645693779,-0.02218722365796566
1772741678321817900,5.81681787109375,-0.006478925235569477,-0.019026201218366623,-0.030875787138938904
1772741678331833900,5.826833740234375,-0.010473247617483139,-0.021877726539969444,-0.026980692520737648
1772741678341848800,5.836848876953125,-0.013336410745978355,-0.016717584803700447,-0.018721429631114006
1772741678351864800,5.84686474609375,-0.015560119412839413,-0.006264536175876856,0.0004156663781031966
1772741678361879800,5.8568798828125,-0.012754213064908981,-0.00017468584701418877,0.01172584481537342
1772741678371896000,5.86689599609375,-0.010898381471633911,0.0007493982557207346,0.015963386744260788
1772741678381910800,5.876910888671875,-0.0095745250582695,-0.001739592058584094,0.014641927555203438
1772741678391927000,5.886927001953125,-0.010249188169836998,-0.009152421727776527,0.007948966696858406
1772741678401942000,5.89694189453125,-0.014239402487874031,-0.008322048000991344,0.009124485775828362
1772741678411958000,5.9069580078125,-0.013920888304710388,-0.00007983134128153324,0.009326353669166565
1772741678421973000,5.916972900390625,-0.013278800994157791,0.0024901190772652626,0.005934551358222961
1772741678431989000,5.926989013671875,-0.0140724191442132,0.007337590679526329,0.001264976686798036
1772741678442004000,5.93700390625,-0.011090211570262909,0.012957924976944923,-0.009314963594079018
1772741678452020000,5.94702001953125,-0.005710810422897339,0.014644707553088665,-0.017144231125712395
1772741678462035000,5.957034912109375,0.0021934513933956623,0.014704096131026745,-0.02325831726193428
1772741678472050000,5.9670498046875,0.006434598937630653,0.011197262443602085,-0.025305449962615967
1772741678482066200,5.977066162109375,0.00418555922806263,0.0025632937904447317,-0.023860152810811996
1772741678492081200,5.9870810546875,0.006138385273516178,0.0030336070340126753,-0.01962178200483322
1772741678502097200,5.99709716796875,0.009299024939537048,0.00136913126334548,-0.012721797451376915
1772741678512112000,6.007112060546875,0.00659492053091526,0.006062154658138752,-0.008848979137837887
1772741678522128100,6.017128173828125,0.004039884544909,0.008461130782961845,-0.005788474343717098
1772741678532143000,6.02714306640625,0.0001559513621032238,0.0062018753960728645,-0.010035019367933273
1772741678542159000,6.0371591796875,0.003256403375416994,0.003752832766622305,-0.012771417386829853
1772741678552174000,6.047174072265625,0.008215468376874924,-0.0017202137969434261,-0.019772611558437347
1772741678562190000,6.057190185546875,0.01018141396343708,-0.014895403757691383,-0.023723676800727844
1772741678572205000,6.067205078125,0.01765327714383602,-0.02507171779870987,-0.019416090101003647
1772741678582221300,6.07722119140625,0.017565926536917686,-0.025599025189876556,-0.004433944821357727
1772741678592236300,6.087236328125,0.02195599116384983,-0.017380164936184883,0.01679788902401924
1772741678602252300,6.097252197265625,0.02050776407122612,-0.003977007698267698,0.03417661041021347
1772741678612267300,6.107267333984375,0.019991260021924973,-0.003289175918325782,0.0355619341135025
1772741678622283300,6.117283203125,0.021620580926537514,-0.0028031489346176386,0.029796453192830086
1772741678632298200,6.12729833984375,0.02128683589398861,-0.002030080184340477,0.017221519723534584
1772741678642314200,6.137314208984375,0.02370605058968067,-0.003072175197303295,0.005238095298409462
1772741678652329200,6.1473291015625,0.024689484387636185,-0.007350010331720114,-0.005128839053213596
1772741678662345200,6.15734521484375,0.023351512849330902,-0.006460515316575766,-0.01216118223965168
1772741678672360200,6.167360107421875,0.02032795175909996,-0.005579227115958929,-0.009131988510489464
1772741678682376200,6.177376220703125,0.01834656298160553,0.0035482244566082954,0.001070581958629191
1772741678692391200,6.18739111328125,0.01749999448657036,0.008535039611160755,0.01055544801056385
1772741678702407200,6.1974072265625,0.01919855922460556,0.009885529056191444,0.01331794448196888
1772741678712422100,6.207422119140625,0.021923217922449112,0.0071585471741855145,0.01116225216537714
1772741678722438100,6.217438232421875,0.021395914256572723,-0.0022365525364875793,0.0033043285366147757
1772741678732453000,6.227453125,0.01996365375816822,-0.004266384057700634,-0.0017863253597170115
1772741678742469000,6.23746923828125,0.021447833627462387,0.0004852281417697668,0.001299745636060834
1772741678752484000,6.247484130859375,0.02141440100967884,0.0021774480119347572,0.0036476552486419678
1772741678762499000,6.2574990234375,0.021265795454382896,0.007953578606247902,0.004840218927711248
1772741678772515000,6.26751513671875,0.022843020036816597,0.007225080393254757,0.002670480404049158
1772741678782530000,6.277530029296875,0.028833532705903053,-0.004777786321938038,-0.005455889739096165
1772741678792546300,6.28754638671875,0.03411196917295456,-0.01348679605871439,-0.010973954573273659
1772741678802561300,6.297561279296875,0.03828115016222,-0.019082361832261086,-0.005735516548156738
1772741678812577300,6.307577392578125,0.03910571709275246,-0.013272897340357304,0.007770989090204239
1772741678822592300,6.31759228515625,0.03576371446251869,-0.007743642665445805,0.02631697803735733
1772741678832608300,6.327608154296875,0.03238535672426224,-0.001462278189137578,0.038208067417144775
1772741678842623200,6.337623291015625,0.02613545022904873,-0.0023211475927382708,0.039285581558942795
1772741678852639200,6.34763916015625,0.02491048164665699,-0.006289603188633919,0.02567300572991371
1772741678862654200,6.357654296875,0.025170406326651573,-0.020347097888588905,0.0013833791017532349
1772741678872670200,6.367670166015625,0.02294095605611801,-0.0336453877389431,-0.017282508313655853
1772741678882685200,6.377685302734375,0.01786710135638714,-0.03953337296843529,-0.022402701899409294
1772741678892701200,6.387701171875,0.008369166404008865,-0.03813214227557182,-0.013331870548427105
1772741678902716200,6.397716064453125,0.003142978996038437,-0.026187067851424217,0.00881444476544857
1772741678912732200,6.407732177734375,-0.0022036356385797262,-0.017482837662100792,0.0291143711656332
1772741678922747100,6.4177470703125,-0.007049256935715675,-0.014401027001440525,0.04198436066508293
1772741678932763100,6.42776318359375,-0.010649175383150578,-0.01626049354672432,0.042920131236314774
1772741678942778000,6.437778076171875,-0.014886264689266682,-0.02101290412247181,0.02846635691821575
1772741678952794000,6.447794189453125,-0.020099753513932228,-0.02761347033083439,0.009293822571635246
1772741678962809000,6.45780908203125,-0.01890585757791996,-0.03380611911416054,-0.007295006886124611
1772741678972825000,6.4678251953125,-0.02231639251112938,-0.029945507645606995,-0.00803900882601738
1772741678982840000,6.477840087890625,-0.028626486659049988,-0.016208123415708542,0.0022141612134873867
1772741678992856300,6.487856201171875,-0.03526361659169197,-0.0028867253568023443,0.019167844206094742
1772741679002871300,6.497871337890625,-0.037388283759355545,0.021013282239437103,0.0320812463760376
1772741679012886300,6.50788623046875,-0.03739234060049057,0.03390534594655037,0.029644958674907684
1772741679022902300,6.51790234375,-0.03625649958848953,0.03331651911139488,0.010654755868017673
1772741679032917200,6.527917236328125,-0.03346482664346695,0.027041252702474594,-0.019669918343424797
1772741679042933200,6.537933349609375,-0.02775740623474121,0.020254984498023987,-0.0490962490439415
1772741679052948200,6.5479482421875,-0.02535431832075119,0.016984686255455017,-0.06467141956090927
1772741679062964200,6.557964111328125,-0.021125752478837967,0.02254323661327362,-0.06334356963634491
1772741679072979200,6.567979248046875,-0.016908306628465652,0.032000403851270676,-0.050828009843826294
1772741679082995200,6.5779951171875,-0.009087400510907173,0.040775250643491745,-0.03583148121833801
1772741679093010200,6.58801025390625,-0.003793659619987011,0.03801817446947098,-0.02700142003595829
1772741679103026200,6.598026123046875,0.004619266372174025,0.033084936439991,-0.024973422288894653
1772741679113041200,6.608041259765625,0.010027963668107986,0.01775117591023445,-0.03085457719862461
1772741679123057200,6.61805712890625,0.016526076942682266,-0.0014970877673476934,-0.029668403789401054
1772741679133072100,6.628072021484375,0.020845353603363037,-0.006785999517887831,-0.012278692796826363
1772741679143088000,6.638088134765625,0.022617686539888382,-0.0015398385003209114,0.015818456187844276
1772741679153103000,6.64810302734375,0.02132204920053482,0.0057463813573122025,0.03965415433049202
1772741679163119000,6.658119140625,0.01721705123782158,0.008220724761486053,0.05275397747755051
1772741679173134000,6.668134033203125,0.009788265451788902,0.009248532354831696,0.0511808879673481
1772741679183150000,6.678150146484375,0.004738911986351013,0.0066495537757873535,0.030282262712717056
1772741679193165000,6.6881650390625,-0.0013801539316773415,-0.0024653971195220947,-0.0002907692105509341
1772741679203181300,6.698181396484375,-0.005554925184696913,-0.005824708845466375,-0.030010581016540527
1772741679213196300,6.7081962890625,-0.008671778254210949,-0.001759315375238657,-0.046130914241075516
1772741679223212300,6.71821240234375,-0.017530251294374466,0.0052871424704790115,-0.04976240172982216
1772741679233227300,6.728227294921875,-0.022337399423122406,0.013880145736038685,-0.04894927516579628
1772741679243243300,6.7382431640625,-0.024319324642419815,0.016571002081036568,-0.048737816512584686
1772741679253258200,6.74825830078125,-0.028332436457276344,0.013022059574723244,-0.04681447148323059
1772741679263273200,6.758273193359375,-0.03010583482682705,0.013554692268371582,-0.04054379090666771
1772741679273289200,6.768289306640625,-0.031765762716531754,0.01890914887189865,-0.028715496882796288
1772741679283304200,6.77830419921875,-0.033225707709789276,0.02341148816049099,-0.01650889776647091
1772741679293320200,6.7883203125,-0.03377775102853775,0.025918196886777878,-0.00933898240327835
1772741679303335200,6.798335205078125,-0.02756965346634388,0.023117883130908012,-0.003021698910742998
1772741679313351200,6.80835107421875,-0.02081919088959694,0.018713219091296196,-0.0008885636343620718
1772741679323366100,6.8183662109375,-0.017184773460030556,0.015135793946683407,0.0031061777845025063
1772741679333382100,6.828382080078125,-0.01342090219259262,0.010025877505540848,0.008792701177299023
1772741679343397000,6.838397216796875,-0.01188638899475336,0.006845796946436167,0.013938727788627148
1772741679353413000,6.8484130859375,-0.008644446730613708,0.003967123571783304,0.021953405812382698
1772741679363428000,6.858427978515625,-0.0048398543149232864,0.015081560239195824,0.03618320822715759
1772741679373444000,6.868444091796875,-0.001582833705469966,0.024548940360546112,0.042104072868824005
1772741679383459000,6.878458984375,-0.0021772512700408697,0.03174852952361107,0.04290382191538811
1772741679393475000,6.88847509765625,-0.004187930375337601,0.03153466433286667,0.0287946667522192
1772741679403490000,6.898489990234375,-0.009131290018558502,0.021337950602173805,-0.00022606493439525366
1772741679413506300,6.90850634765625,-0.008692908100783825,0.009794370271265507,-0.02566337212920189
1772741679423521300,6.918521240234375,-0.009573881514370441,0.0030429905746132135,-0.040746450424194336
1772741679433537300,6.928537353515625,-0.010733474045991898,0.004275188315659761,-0.04237872362136841
1772741679443552300,6.93855224609375,-0.010704712010920048,0.01457203458994627,-0.031757235527038574
1772741679453568300,6.948568359375,-0.011903224512934685,0.02224922366440296,-0.01485459879040718
1772741679463583200,6.958583251953125,-0.011668333783745766,0.02753746137022972,-0.003156397957354784
1772741679473599200,6.96859912109375,-0.0150895481929183,0.021972456946969032,-0.007823910564184189
1772741679483613700,6.97861376953125,-0.016942575573921204,0.011181861162185669,-0.01451030932366848
1772741679493628700,6.988628662109375,-0.019423160701990128,0.0002929326146841049,-0.025983795523643494
1772741679503645000,6.99864501953125,-0.01895604282617569,-0.00440009031444788,-0.03024432063102722
1772741679513660000,7.008659912109375,-0.018160853534936905,0.0015633853618055582,-0.029700923711061478
1772741679523676000,7.018676025390625,-0.022725513204932213,0.003595910035073757,-0.03301868960261345
1772741679533691000,7.02869091796875,-0.02121726982295513,0.00354600022546947,-0.03592080995440483
1772741679543707000,7.038706787109375,-0.022539528086781502,0.014901719056069851,-0.039738718420267105
1772741679553721900,7.048721923828125,-0.030906517058610916,0.018467143177986145,-0.05131397023797035
1772741679563737900,7.05873779296875,-0.03765363618731499,0.004770771600306034,-0.07093799859285355
1772741679573752800,7.0687529296875,-0.03747944533824921,-0.00214683567173779,-0.07425946742296219
1772741679583768800,7.078768798828125,-0.03594360128045082,0.014005502685904503,-0.05487005412578583
1772741679593783800,7.08878369140625,-0.03944703936576843,0.027019476518034935,-0.028465528041124344
1772741679603799800,7.0987998046875,-0.04438507556915283,0.03450215980410576,-0.010315554216504097
1772741679613814800,7.108814697265625,-0.047371719032526016,0.034346804022789,-0.00008990068454295397
1772741679623830800,7.118830810546875,-0.046699803322553635,0.03048921562731266,0.003314418252557516
1772741679633845800,7.128845703125,-0.04424247145652771,0.02007320150732994,0.004926048684865236
1772741679643861800,7.13886181640625,-0.04304191470146179,0.014486954547464848,0.009149289689958096
1772741679653876700,7.148876708984375,-0.04392906278371811,0.01648399606347084,0.018319344148039818
1772741679663892700,7.158892822265625,-0.04611977934837341,0.016393449157476425,0.024868058040738106
1772741679673907700,7.16890771484375,-0.039777979254722595,0.010836685076355934,0.02911645546555519
1772741679683923700,7.178923828125,-0.03826743736863136,0.005742057226598263,0.038036979734897614
1772741679693938700,7.188938720703125,-0.03996571525931358,0.005504457745701075,0.05395711958408356
1772741679703955000,7.198954833984375,-0.03892282396554947,0.009807859547436237,0.07009880244731903
1772741679713970000,7.208969970703125,-0.03990180417895317,0.010533586144447327,0.0730501040816307
1772741679723984600,7.218984619140625,-0.04047837853431702,0.017321184277534485,0.0688851848244667
1772741679734001000,7.2290009765625,-0.04461560398340225,0.02816585823893547,0.06096680462360382
1772741679744016000,7.239015869140625,-0.04790141433477402,0.030421022325754166,0.04448476806282997
1772741679754031900,7.249031982421875,-0.04895028844475746,0.02719801850616932,0.019607581198215485
1772741679764046800,7.259046875,-0.04780592769384384,0.027549555525183678,-0.003327030222862959
1772741679774062800,7.269062744140625,-0.050212204456329346,0.01714237593114376,-0.024127164855599403
1772741679784077800,7.279077880859375,-0.0506119467318058,0.011459989473223686,-0.03663709759712219
1772741679794093800,7.28909375,-0.05708245933055878,0.009128501638770103,-0.051988013088703156
1772741679804108800,7.29910888671875,-0.05666008219122887,0.009770589880645275,-0.06289605051279068
1772741679814124800,7.309124755859375,-0.05574331805109978,0.0023319898173213005,-0.08505335450172424
1772741679824139800,7.319139892578125,-0.05629086494445801,-0.011011512018740177,-0.11964728683233261
1772741679834155800,7.32915576171875,-0.05845433846116066,-0.037789661437273026,-0.15839079022407532
1772741679844170800,7.339170654296875,-0.056911569088697433,-0.06225665286183357,-0.19051037728786469
1772741679854186800,7.349186767578125,-0.05488797277212143,-0.06411682814359665,-0.19266827404499054
1772741679864201700,7.35920166015625,-0.0569029226899147,-0.03762156888842583,-0.16102539002895355
1772741679874217700,7.3692177734375,-0.05829872563481331,-0.010945606976747513,-0.11022015661001205
1772741679884232700,7.379232666015625,-0.051603805273771286,0.009479772299528122,-0.05967096611857414
1772741679894248700,7.389248779296875,-0.03894331306219101,0.02264448255300522,-0.016763800755143166
1772741679904263700,7.399263671875,-0.028485611081123352,0.03521380573511124,0.012435629963874817
1772741679914280000,7.409280029296875,-0.026547500863671303,0.02133956551551819,0.02587241865694523
1772741679924295000,7.419294921875,-0.022229984402656555,-0.004093356430530548,0.028061803430318832
1772741679934311000,7.429310791015625,-0.018053105100989342,-0.014115268364548683,0.03808581084012985
1772741679944326000,7.439325927734375,-0.019462982192635536,-0.020384617149829865,0.05306396260857582
1772741679954342000,7.449341796875,-0.024930674582719803,-0.018318193033337593,0.06891775131225586
1772741679964356900,7.45935693359375,-0.025738412514328957,-0.005384284071624279,0.08193395286798477
1772741679974371800,7.469371826171875,-0.022209523245692253,0.0014235383132472634,0.08278373628854752
1772741679984387800,7.479387939453125,-0.01738227717578411,0.003915457986295223,0.0715305432677269
1772741679994402800,7.48940283203125,-0.013338584452867508,-0.006563062779605389,0.04400569200515747
1772741680004418800,7.499418701171875,-0.014364434406161308,-0.020112426951527596,0.010150523856282234
1772741680014433800,7.509433837890625,-0.012642934918403625,-0.029516708105802536,-0.015703825280070305
1772741680024449800,7.51944970703125,-0.01447545550763607,-0.0299643836915493,-0.028988204896450043
1772741680034464800,7.52946484375,-0.017700044438242912,-0.015759224072098732,-0.03362119197845459
1772741680044480800,7.539480712890625,-0.020468400791287422,-0.00512815173715353,-0.03356952592730522
1772741680054495700,7.549495849609375,-0.028384815901517868,-0.009782667271792889,-0.03350701555609703
1772741680064511700,7.55951171875,-0.04218931123614311,-0.015848549082875252,-0.03634275123476982
1772741680074526700,7.569526611328125,-0.05017205327749252,-0.021719299256801605,-0.04414324834942818
1772741680084542700,7.579542724609375,-0.054749757051467896,-0.032982341945171356,-0.047805093228816986
1772741680094557700,7.5895576171875,-0.06112956628203392,-0.03245606645941734,-0.046163756400346756
1772741680104573700,7.59957373046875,-0.055515356361866,-0.0075589753687381744,-0.0339965745806694
1772741680114588700,7.609588623046875,-0.046842657029628754,0.025027526542544365,-0.02197047881782055
1772741680124605000,7.61960498046875,-0.04718327522277832,0.03167024999856949,-0.012979649007320404
1772741680134620000,7.629619873046875,-0.05115463212132454,0.03476213291287422,-0.012321599759161472
1772741680144636000,7.639635986328125,-0.0655069425702095,0.03282548114657402,-0.019397085532546043
1772741680154651000,7.64965087890625,-0.08981575071811676,0.022541433572769165,-0.033635687083005905
1772741680164667000,7.6596669921875,-0.10221489518880844,-0.0015519179869443178,-0.06334458291530609
1772741680174681900,7.669681884765625,-0.09854646027088165,-0.017104260623455048,-0.09261009842157364
1772741680184696800,7.67969677734375,-0.08891406655311584,-0.014324454590678215,-0.1182938888669014
1772741680194712800,7.689712890625,-0.08599195629358292,-0.02475641667842865,-0.1402306854724884
1772741680204727800,7.699727783203125,-0.08703777939081192,-0.04100729152560234,-0.16536641120910645
1772741680214743800,7.709743896484375,-0.08321176469326019,-0.05166788026690483,-0.17749224603176117
1772741680224758800,7.7197587890625,-0.07992701977491379,-0.044231001287698746,-0.1708306223154068
1772741680234774800,7.72977490234375,-0.0771511122584343,-0.040252331644296646,-0.1598701924085617
1772741680244789800,7.739789794921875,-0.0761987641453743,-0.02494181878864765,-0.13854971528053284
1772741680254805800,7.7498056640625,-0.06820999085903168,-0.012935835868120193,-0.11644665151834488
1772741680264820700,7.75982080078125,-0.0484357625246048,-0.0027114266995340586,-0.096394382417202
1772741680274836700,7.769836669921875,-0.033986158668994904,-0.00008431239984929562,-0.08758339285850525
1772741680284851700,7.779851806640625,-0.020876480266451836,-0.005211163777858019,-0.08794531971216202
1772741680294867700,7.78986767578125,-0.014182299375534058,-0.00930654164403677,-0.09557045251131058
1772741680304882700,7.799882568359375,-0.012080267071723938,-0.010970218107104301,-0.09666793793439865
1772741680314898700,7.809898681640625,-0.009156141430139542,-0.014468968845903873,-0.08420209586620331
1772741680324913700,7.81991357421875,-0.007791538257151842,-0.005504236556589603,-0.05525832623243332
1772741680334930000,7.829929931640625,-0.003676363732665777,0.02002565562725067,-0.016537003219127655
1772741680344945000,7.83994482421875,-0.0017714046407490969,0.03880626708269119,0.013496795669198036
1772741680354961000,7.8499609375,0.007104058749973774,0.042140763252973557,0.024636248126626015
1772741680364975900,7.859975830078125,0.016885317862033844,0.0387825183570385,0.023659134283661842
1772741680374992000,7.869991943359375,0.020227398723363876,0.0583079531788826,0.032381147146224976
1772741680385006800,7.8800068359375,0.022859666496515274,0.08952207118272781,0.05703189969062805
1772741680395022800,7.89002294921875,0.0258426982909441,0.07563197612762451,0.06073836237192154
1772741680405037800,7.900037841796875,0.03654647618532181,0.06822545826435089,0.07225999236106873
1772741680415052800,7.910052734375,0.035662028938531876,0.053587671369314194,0.09716799855232239
1772741680425068800,7.92006884765625,0.030129315331578255,0.05423695221543312,0.14810122549533844
1772741680435083800,7.930083740234375,0.02512444369494915,0.05185926333069801,0.20418713986873627
1772741680445099800,7.940099853515625,0.03119805082678795,0.033044300973415375,0.23411281406879425
1772741680455114800,7.95011474609375,0.044784389436244965,0.003540344536304474,0.21898695826530457
1772741680465130800,7.960130859375,0.04968594014644623,-0.0370401032269001,0.1584802120923996
1772741680475145700,7.970145751953125,0.050293147563934326,-0.08323052525520325,0.06600061804056168
1772741680485162500,7.98016259765625,0.05121220648288727,-0.1335783749818802,-0.036056507378816605
1772741680495177500,7.990177490234375,0.05077095702290535,-0.1514536589384079,-0.1132105216383934
1772741680505193500,8.000193359375,0.04371517896652222,-0.12799200415611267,-0.15348070859909058
1772741680515208400,8.01020849609375,0.02789407968521118,-0.13247627019882202,-0.1933080404996872
