time,seconds_elapsed,z,y,x
1772619575797247000,0.0782470703125,0.25469430751502514,-0.49801674166619775,-0.976972224509716
1772619575807277800,0.08827783203125,0.33235447030067444,-0.42307197531908747,-0.8551124891873448
1772619575817310000,0.09831005859375,0.34969431215822694,-0.3115668260768056,-0.7119229655884206
1772619575827340800,0.1083408203125,0.34844285079240794,-0.234558112937212,-0.6479248329304158
1772619575837372000,0.118371826171875,0.4231704672574997,-0.20730594887435436,-0.6366139690387994
1772619575847402800,0.12840283203125,0.49261459036171434,-0.24450141480267046,-0.6601168635707348
1772619575857433900,0.138433837890625,0.6100403618246316,-0.28594430904239415,-0.74932681357041
1772619575867464700,0.148464599609375,0.6990232981353998,-0.30159926655292507,-0.8921054913461208
1772619575877495800,0.158495849609375,0.7516957346588373,-0.2644862182110548,-1.0220976797197014
1772619575887526700,0.168526611328125,0.7697048540800809,-0.1720923044130206,-1.1087976196598262
1772619575897558000,0.17855810546875,0.6995832701057195,-0.0524827591702342,-1.0926528328057379
1772619575907588900,0.1885888671875,0.631601036247611,0.09700783733427525,-0.9713330495789646
1772619575917620000,0.198619873046875,0.5698854615688324,0.24806933641731738,-0.8408057314153761
1772619575927650800,0.20865087890625,0.5569838944196701,0.3541282029524445,-0.7457021933324635
1772619575937682000,0.218681884765625,0.5810919152379036,0.42404666557013987,-0.6813145499002188
1772619575947713000,0.228713134765625,0.6683686321526765,0.4475415229260921,-0.6748414814285933
1772619575957743900,0.238743896484375,0.8457458912312984,0.4843482817977667,-0.6226145236503332
1772619575967775700,0.248775634765625,1.076272556695342,0.49234337220489977,-0.6152026399586349
1772619575977806800,0.258806884765625,1.312044721597433,0.484073556509614,-0.6290832082077861
1772619575987837700,0.268837646484375,1.5514152032524346,0.46976416838914153,-0.6514409512925893
1772619575997868800,0.278868896484375,1.7468138567119835,0.42409868801832196,-0.6175038295730948
1772619576007899600,0.288899658203125,1.8939654888749122,0.395105233246088,-0.5923435962881892
1772619576017930800,0.2989306640625,1.9892536628097295,0.39382951422184703,-0.5777447967670858
1772619576027961900,0.3089619140625,1.999450647175312,0.38127164594382046,-0.5886295442011207
1772619576037993000,0.318992919921875,1.9858090753138065,0.3923819457620382,-0.5960453734155744
1772619576048024000,0.329024169921875,1.9993202987939118,0.44150633441507814,-0.5564699535481631
1772619576058055000,0.339054931640625,2.0311545299500224,0.48690293471664187,-0.5016488876234739
1772619576068086000,0.3490859375,2.157016121324897,0.5519043991982937,-0.44857320406138895
1772619576078116900,0.359116943359375,2.288335978105664,0.6145683606430887,-0.3592316635712981
1772619576088148000,0.36914794921875,2.418232524085045,0.6171455176547169,-0.2788347692981362
1772619576098178800,0.3791787109375,2.5153099195241926,0.5801257005542516,-0.2579802703831345
1772619576108210700,0.389210693359375,2.569168935483694,0.5024634919419885,-0.2863657493248582
1772619576118241800,0.39924169921875,2.5940029324889182,0.48896951185762877,-0.363947074720636
1772619576128273000,0.40927294921875,2.5599627157211304,0.46478725675940513,-0.4492638897392899
1772619576138303700,0.4193037109375,2.404897241693735,0.45901977927386756,-0.5974789133500308
1772619576148335000,0.429335205078125,2.2407494665443894,0.4483589767888188,-0.7789214491061865
1772619576158366000,0.439365966796875,2.130034590896964,0.4931199095353484,-0.8900901329357177
1772619576168397000,0.44939697265625,2.020595726534724,0.5824386536717414,-0.9499940550826489
1772619576178428000,0.459427978515625,1.9039719191044568,0.7292559393137693,-0.9546136777073144
1772619576188459000,0.469458984375,1.8652303927779197,0.8872526444874703,-0.9327703869506716
1772619576198489900,0.47948974609375,1.943554572430253,0.9760958800666034,-0.8827518259368836
1772619576208521000,0.48952099609375,2.097096782413125,0.9947405209124087,-0.7901576403263956
1772619576218551800,0.4995517578125,2.2656828322708606,0.914199834254384,-0.6614731735505164
1772619576228583000,0.5095830078125,2.352514728027582,0.755117671931535,-0.5317709810994565
1772619576238614800,0.51961474609375,2.2075041995465754,0.46296427911594507,-0.3068374594673514
1772619576248646000,0.52964599609375,1.5486889931589365,-0.002734101139008999,0.046840807760506864
1772619576258676700,0.5396767578125,0.3196808666884899,-0.504646388939023,0.3865054549440741
1772619576268707800,0.549707763671875,-1.6263164227187632,-0.9346320891693234,0.9390170262552797
1772619576278739000,0.559739013671875,-4.32356871728003,-1.2886013021677731,1.6811249944880604
1772619576288770000,0.56977001953125,-7.428558932167292,-1.6625899514965712,2.3610054929971693
1772619576298801000,0.57980078125,-10.28062009564638,-1.879310648317635,2.857028722758591
1772619576308832000,0.58983203125,-12.341948230063915,-1.9991535639248788,3.0622090577811
1772619576318862800,0.59986279296875,-13.19515846582651,-2.189239059537649,3.0877146704375744
1772619576328894000,0.60989404296875,-12.725146752417087,-2.4424442975386977,2.9827462294876574
1772619576338924800,0.6199248046875,-11.210264751791954,-2.819836763961613,2.190973043723404
1772619576348956000,0.629955810546875,-9.410358771839737,-3.64987275262475,0.7394837572090327
1772619576358986800,0.63998681640625,-8.466558164569735,-4.737333935071527,-0.010759878945350645
1772619576369017900,0.650017822265625,-9.021305093717574,-5.2266912772029634,0.11853621692284941
1772619576379049700,0.6600498046875,-10.545533599358796,-4.701625785091519,0.30100232357308265
1772619576389080800,0.670080810546875,-11.612893950802087,-3.4074919832378625,0.6066060034617782
1772619576399111700,0.680111572265625,-11.334053628545998,-2.1906771295167506,1.4898938359715044
1772619576409143000,0.69014306640625,-10.291856944453716,-1.4876124470360577,2.5994460003256794
1772619576419174000,0.700173828125,-8.984149959799646,-1.088597346869856,3.1774837886899707
1772619576429205000,0.710205078125,-7.114111874479055,-0.7633413103975355,3.162811704736948
1772619576439235800,0.72023583984375,-4.759940026894212,-0.49275122235342855,2.6700293565928934
1772619576449267000,0.730266845703125,-2.222456854006648,-0.357833560276404,2.170006828062236
1772619576459297800,0.7402978515625,0.19470891762971876,-0.2489857206098735,1.7825638000071047
1772619576469329000,0.750328857421875,1.74788353177011,-0.18508757772762327,1.681647118666023
1772619576479359700,0.76035986328125,2.089207490468025,0.002654460031539202,1.5763453541085124
1772619576489390800,0.770390869140625,2.126084391966462,0.34319022749383,1.4096750747442244
1772619576499422000,0.780421875,2.068551071408391,0.576497207858786,1.3362005270801485
1772619576509453800,0.790453857421875,2.128957901576161,0.7055944932192564,1.064260047340393
1772619576519484700,0.800484619140625,2.466326985168457,0.7498775062557309,0.7714010635387152
1772619576529516000,0.81051611328125,3.0719547912478444,0.8070460120894014,0.6092646282117814
1772619576539547000,0.820546875,3.97647318944335,0.8720977454535662,0.46682906478531655
1772619576549578000,0.830577880859375,5.166171049788594,1.0221021366991103,0.2376407352529466
1772619576559608800,0.84060888671875,6.517013411813974,1.21041711550802,-0.07297112818658351
1772619576569640000,0.850639892578125,7.824303047838806,1.3285343763664363,-0.3198404776969924
1772619576579670800,0.8606708984375,8.942468288367985,1.2928892086200416,-0.5023782978765666
1772619576589702000,0.870701904296875,9.743317637774348,1.138551025953889,-0.6488872482217848
1772619576599733000,0.88073291015625,10.057765279984473,0.9198609287559986,-0.7577733010068536
1772619576609763800,0.890763916015625,9.78883786445558,0.7762665506832301,-0.9563650514192878
1772619576619795000,0.900794921875,9.040609513646364,0.77835080961138,-1.1365879822526126
1772619576629825800,0.91082568359375,8.05205264980495,0.9968237569272518,-1.187099514415115
1772619576639857700,0.920857666015625,6.989920846664905,1.239667029259354,-1.1330486291453241
1772619576649888800,0.930888671875,6.0894368185520165,1.5367796519175172,-1.0018298215862362
1772619576659920000,0.940919921875,5.515189654642343,1.9337807819128034,-0.8819563647102564
1772619576669951000,0.950950927734375,5.1735804492622615,2.289284072610736,-0.7969993229147047
1772619576679981800,0.96098193359375,5.118240254834294,2.5950673468500374,-0.7560688351765275
1772619576690013000,0.971012939453125,5.346818708840012,2.8044647150456905,-0.687930680104345
1772619576700044000,0.9810439453125,5.660078018048405,2.9668109937310216,-0.6151679339714348
1772619576710075000,0.991074951171875,6.018423254173994,3.178964674897492,-0.543396171637252
1772619576720106000,1.00110595703125,6.291677885252237,3.310949425327778,-0.5011974905941635
1772619576730136800,1.01113671875,6.272237856245041,3.2214678918451067,-0.44698681165277954
1772619576740168000,1.02116796875,5.853442535331845,2.942747688837349,-0.23740751101896165
1772619576750198800,1.03119873046875,5.027694306990504,2.472847034586966,0.19029343927502632
1772619576760230000,1.04122998046875,3.9689796188175674,1.9743088993951676,0.7105322418823837
1772619576770260700,1.0512607421875,2.91761529340744,1.5303583866983652,1.1787890744484961
1772619576780292900,1.06129296875,1.6017320165604352,0.8490408411234617,1.6179590748704968
1772619576790324000,1.071323974609375,-0.2795049236446619,-0.01599982542544603,1.5193705442160368
1772619576800355000,1.08135498046875,-2.5714187602370977,-0.8099129458278417,0.8292238685626536
1772619576810386000,1.091385986328125,-4.59485234054625,-1.5208087603256106,0.3933652577109635
1772619576820417000,1.1014169921875,-5.478023414808511,-1.8952645887747406,0.3641278381150216
1772619576830447900,1.11144775390625,-5.18042753867805,-1.8164464881256221,0.7065184761963784
1772619576840479000,1.12147900390625,-3.868959155663848,-1.2194357037439942,0.7599774599876254
1772619576850509800,1.131509765625,-2.111994491815567,-0.8039762492552399,-0.13641973720304668
1772619576860541000,1.141541015625,-0.8888526270300149,-1.506229323092103,-0.7290911041408776
1772619576870571800,1.15157177734375,-1.624175903558731,-2.0624688288852573,-0.9587608605146407
1772619576880603000,1.161602783203125,-5.036234756320715,-1.2827104905635118,-1.4617929461248218
1772619576890633700,1.1716337890625,-9.95309143806696,0.20446166535913943,-1.6454960472241043
1772619576900664800,1.181664794921875,-14.42708978626728,1.3148733691520988,-0.6431858947750181
1772619576910696700,1.19169677734375,-16.204581105315686,1.869261547990143,1.0343494777232407
1772619576920728000,1.20172802734375,-15.469339077329634,2.2984968682445586,2.136428821978718
1772619576930759000,1.211759033203125,-13.120589839315414,2.4054914081946013,1.7879313183896242
1772619576940790000,1.2217900390625,-9.776310975837706,1.9103527061827479,1.1719322673562913
1772619576950820900,1.23182080078125,-6.156405491453409,1.0401131558164953,0.5280025684766471
1772619576960852000,1.24185205078125,-2.521922615662217,0.35034196241199966,-0.25453535409364847
1772619576970882800,1.2518828125,0.8551485103487968,-0.2760140127889812,-0.79846026231274
1772619576980914000,1.261913818359375,3.49613998850584,-0.8113352337159216,-1.0842231503736226
1772619576990944800,1.27194482421875,5.047365222144126,-1.0482798033982514,-1.194585413191095
1772619577000976000,1.281975830078125,5.802021560174226,-0.9679004447817802,-1.1778639224275946
1772619577011006700,1.2920068359375,6.058805533444881,-0.8467711426258087,-1.013540717646107
1772619577021037800,1.302037841796875,6.047926412034035,-0.7614215943813324,-0.7841526277579367
1772619577031069000,1.31206884765625,5.916543426889181,-0.6371864351645111,-0.5702160452300682
1772619577041099800,1.322099853515625,5.651827491575479,-0.4948246676266193,-0.37670324204973876
1772619577051132000,1.3321318359375,5.338816019648314,-0.3317809081964195,-0.3051826597313396
1772619577061163000,1.3421630859375,4.997926360714435,-0.16886311323344708,-0.2756253057323396
1772619577071193900,1.35219384765625,4.570614555868506,-0.08257584574744105,-0.35149153430592267
1772619577081225000,1.362224853515625,4.125979860299825,-0.03741334646269679,-0.5279329373065382
1772619577091255800,1.372255859375,3.7664772708326577,0.01504091726541519,-0.7081703350566327
1772619577101287000,1.382286865234375,3.546704054573178,0.03520005432739853,-0.8563492644406855
1772619577111317800,1.39231787109375,3.5053374404400586,0.0397046722702682,-0.863880098336935
1772619577121348900,1.402348876953125,3.535728487050533,0.03471826215982437,-0.583381889338605
1772619577131380000,1.4123798828125,3.5819127305984493,0.025910832456499337,-0.05606032539606094
1772619577141410800,1.422410888671875,3.6180899593949314,0.018165771287679672,0.4555458560856059
1772619577151442000,1.43244189453125,3.685415775170922,-0.0524544098585844,0.7503902050182223
1772619577161472800,1.44247265625,4.022939757063985,-0.023549217891693112,0.6028922436356544
1772619577171503900,1.45250390625,4.353485716637969,0.011652151609957218,-0.18923903485126792
1772619577181534700,1.46253466796875,4.048276442894339,-0.25999066035747526,-1.214993337382376
1772619577191566800,1.47256689453125,2.845637267911434,-0.613038666857779,-2.0064234087973833
1772619577201598000,1.482597900390625,0.5569195970118046,-0.5909770571753382,-2.3846971880994734
1772619577211628800,1.49262890625,-2.6490403445780277,0.10643339893594383,-2.146273631905764
1772619577221660000,1.502659912109375,-5.554332747507095,0.9827975696623324,-1.5562148586191236
1772619577231691000,1.51269091796875,-7.17967652580142,1.7302292171359062,-0.8058421161923557
1772619577241721900,1.522721923828125,-7.362648243886232,2.220176049593091,-0.2999786065485328
1772619577251753000,1.5327529296875,-5.966617079091072,2.3004729906231165,0.1375168482573703
1772619577261783800,1.54278369140625,-3.603547639301419,1.7412904171153902,0.7355183607093989
1772619577271815000,1.55281494140625,-1.7564526226729154,0.5526493723466992,0.8121608708851039
1772619577281845800,1.562845703125,-1.0546095909416675,-0.8311126779839396,0.17091062034778295
1772619577291876900,1.572876953125,-1.844692631661892,-2.2511370050460098,-0.3454443996287882
1772619577301907700,1.58290771484375,-4.043822386094927,-3.121424924598634,-0.46682957624197
1772619577311938800,1.592938720703125,-7.023104154342413,-3.2427833593353625,-0.16913104345463215
1772619577321969700,1.6029697265625,-9.734895846387744,-2.7750153331995007,0.42996231935471296
1772619577332002000,1.613001953125,-11.400989568221569,-2.044162480083108,1.314326548924297
1772619577342033000,1.623032958984375,-11.624355256015061,-1.4654165434494615,2.1219132437616586
1772619577352064000,1.63306396484375,-10.562253263491392,-1.4992580227747558,2.6928122662872074
1772619577362094800,1.6430947265625,-9.15087547648251,-2.0333806815668938,2.6023972513467073
1772619577372126000,1.6531259765625,-8.024947200736403,-2.6518290985137223,1.9520788012780248
1772619577382156800,1.66315673828125,-7.199405308622121,-3.308509046438336,1.3035153781831263
1772619577392188000,1.67318798828125,-6.545141189667582,-3.829254337263107,0.6349295961484313
1772619577402218800,1.68321875,-6.055888769215345,-4.096940520559251,-0.0896606529092416
1772619577412249900,1.693249755859375,-5.536280957987905,-3.8047716379135843,-0.4215495515247807
1772619577422280700,1.70328076171875,-5.119484701937437,-2.7256457376137373,-0.34799799310173835
1772619577432311800,1.713311767578125,-4.724630813103914,-1.1422726768255234,-0.1769540469641797
1772619577442342700,1.7233427734375,-4.244636050340533,0.23513766639083622,0.19493001303449273
1772619577452374000,1.7333740234375,-3.6429239564001556,1.1867682366341352,0.8039946616947651
1772619577462404900,1.74340478515625,-2.837552745655179,1.7552385707080362,1.4427838558807968
1772619577472437000,1.75343701171875,-1.5954928299099207,1.9366972538813947,1.835641310200095
1772619577482467800,1.7634677734375,0.06536883648931979,1.968207952171564,2.0095662368677556
1772619577492499000,1.7734990234375,1.7683681013941763,1.897678664179146,2.0349293723136186
1772619577502529800,1.78352978515625,3.3825773222118616,1.7684794528141616,2.048018863250315
1772619577512561000,1.793560791015625,4.918737673187255,1.6916706461608408,2.2313095841564237
1772619577522591700,1.803591796875,6.377541812759637,1.6697227259859442,2.5518825773790477
1772619577532622800,1.813622802734375,7.936554047012328,1.786051057600975,2.919706712728739
1772619577542653700,1.82365380859375,9.163362033089994,2.0744117801353332,3.3025591981232165
1772619577552684800,1.833684814453125,9.775136086839437,2.5721067425012585,3.6280507969170808
1772619577562715600,1.843715576171875,10.144411297780275,2.9123417369186875,3.958228507700562
1772619577572746800,1.853746826171875,10.134793574607372,2.9141677833020685,4.123796671041846
1772619577582777900,1.86377783203125,9.697119365701079,2.780822265912592,3.8552585470914837
1772619577592809000,1.87380908203125,9.23961116003394,2.6091800433546304,3.5508968300879
1772619577602840000,1.883840087890625,8.574958333534001,2.2801310443401337,3.3032898504853248
1772619577612871000,1.893870849609375,7.701568064051866,2.0125497827231884,2.7641955407604573
1772619577622902800,1.90390283203125,6.782998344150185,1.8417378735095262,1.9091136659070849
1772619577632934000,1.913933837890625,6.042050797998905,1.6583800787165761,1.1564328657336533
1772619577642964700,1.92396484375,5.5642316257089375,1.4165563586905598,0.6910343452081084
1772619577652995800,1.933995849609375,5.2476656761705875,1.2751374249607323,0.47892114218249915
1772619577663026700,1.944026611328125,4.99573440362811,1.233280104701221,0.34808570791780946
1772619577673057800,1.954057861328125,4.767068271338939,1.2578411299839616,0.07461334243565797
1772619577683088400,1.96408837890625,4.593619583880901,1.3066161206774414,-0.1753428306415677
1772619577693119200,1.974119140625,4.499672303161025,1.2720096483290195,-0.4962466632537543
1772619577703150300,1.984150390625,4.496494842168689,1.1344584959432482,-0.8877589865744113
1772619577713181200,1.99418115234375,4.354470636022091,0.8976644406475126,-1.266456690376997
1772619577723212300,2.00421240234375,4.052316073673963,0.6439915851347148,-1.5688991297557948
1772619577733243100,2.0142431640625,3.3799200857013463,0.1257804889626801,-1.5522349952027201
1772619577743274200,2.024274169921875,2.3655144948542115,-0.6441961677961051,-1.2214064923603087
1772619577753305000,2.03430517578125,1.239553485882282,-1.0888365624532104,-1.005918917530775
1772619577763337200,2.044337158203125,-0.15336042367517946,-1.5706319448977708,-0.5528921315940096
1772619577773368000,2.0543681640625,-1.732551522603631,-2.197426749907434,0.07340422237422317
1772619577783399400,2.0643994140625,-2.829427306866646,-2.2515540614143013,-0.08064717923980205
1772619577793430300,2.07443017578125,-3.2013200068295,-1.9489877033948897,-0.5153067895652726
1772619577803461400,2.08446142578125,-3.024692689335346,-2.2831112291947004,-0.11244619295205921
1772619577813492200,2.0944921875,-2.4240210443586108,-2.7878385744154452,0.754784640584886
1772619577823523300,2.1045234375,-1.696340391537547,-2.859384638234973,0.6811046334765851
1772619577833554200,2.11455419921875,-0.43457799645662304,-2.4962887004509566,-0.9432491839323193
1772619577843585300,2.124585205078125,0.8247872743546962,-2.7152409557163715,-2.0237620816111566
1772619577853616000,2.1346162109375,0.7668056255072355,-3.2099221232190724,-2.2469842692807314
1772619577863647200,2.144647216796875,-1.2754840464413166,-2.8444220469027757,-2.3503350459009407
1772619577873678000,2.154677978515625,-5.133942266356945,-1.4045986482627688,-2.3485098763003944
1772619577883709200,2.164709228515625,-9.656667528325318,0.11585720697194338,-1.752263500420004
1772619577893740300,2.174740234375,-13.121691078555584,1.0268057843454181,-0.3018828692672774
1772619577903772400,2.1847724609375,-14.034416164082288,1.8481807660385965,1.151107725188136
1772619577913803300,2.19480322265625,-13.126746023857592,2.3710367654070255,1.7595999807879328
1772619577923834400,2.20483447265625,-10.861875677013396,2.68154268425405,1.2936841583900154
1772619577933865200,2.214865234375,-7.949069829714298,2.3822256834194064,0.7909884651273489
1772619577943896300,2.224896240234375,-4.596998704925179,1.611782870453596,0.35686573815755546
1772619577953927200,2.23492724609375,-0.6206611245602369,0.8775355525933206,0.0002658661282621324
1772619577963958300,2.244958251953125,2.3225118039518593,-0.126934189042449,-0.2641777002511546
1772619577973989400,2.2549892578125,3.78654040017426,-0.7594649073556066,-1.2533579932205379
1772619577984020200,2.265020263671875,4.627911145061255,-0.9944389076173304,-1.6437394128151237
1772619577994051300,2.27505126953125,4.737827563807368,-1.1883210190340876,-1.4475396721057594
1772619578004082200,2.285082275390625,4.520695217445493,-1.172531036967039,-1.2640610274121165
1772619578014113300,2.29511328125,4.209461861106753,-1.0046271241545677,-1.0179700053304432
1772619578024144100,2.30514404296875,3.885892170286178,-0.7526774391725659,-0.6286179287835956
1772619578034175200,2.31517529296875,3.5915047348082063,-0.39682285081893204,-0.22843970312215386
1772619578044206000,2.3252060546875,3.400685810354352,0.017609598709642887,0.07718677312023937
1772619578054238200,2.33523828125,3.200043995544314,0.4116789130367338,0.23950915947332976
1772619578064269300,2.345269287109375,3.0175925019413232,0.7060811076924205,0.24537805150672792
1772619578074300400,2.355300537109375,3.027050066116452,0.9311647053197025,0.09589951076619327
1772619578084331300,2.365331298828125,3.2348645490348336,1.131868187189102,-0.07810279198661446
1772619578094362400,2.3753623046875,3.5553280905336138,1.2334598451822996,-0.19631050760746002
1772619578104393200,2.385393310546875,3.839974468719959,1.326726157900691,-0.3178103235762566
1772619578114424300,2.39542431640625,3.9566351010292764,1.4166457905396819,-0.44273792203664775
1772619578124455200,2.405455078125,3.8178526532828805,1.477320770124346,-0.49007718083858487
1772619578134486300,2.415486328125,3.5521319248408076,1.5740756556108593,-0.5578408035099506
1772619578144517000,2.42551708984375,3.3283336908489463,1.6299417736090718,-0.7021633497267961
1772619578154548200,2.43554833984375,3.175463681039214,1.6044351380392907,-0.8379165127798914
1772619578164579000,2.4455791015625,3.001361498108506,1.5266718071401117,-0.9797359901346265
1772619578174610200,2.455610107421875,2.602059397694468,1.3910769033886492,-1.1205896911971271
1772619578184641000,2.46564111328125,1.8957669853389263,1.250424716247618,-1.217679946117848
1772619578194673400,2.47567333984375,0.9447726671725512,1.1432073273271322,-1.2345301047623156
1772619578204704300,2.485704345703125,-0.12016016486287116,1.0636312479175627,-1.0785630057200788
1772619578214735400,2.4957353515625,-1.2683581400841475,0.9584024024657904,-0.49752442810460923
1772619578224766200,2.50576611328125,-2.471141691973805,0.8481557288520037,0.31189898064062
1772619578234797300,2.51579736328125,-3.7179794896453617,0.7224566345624626,1.0384195036411286
1772619578244828200,2.525828125,-5.106042452040314,0.44719285561889405,1.5204270675316451
1772619578254859300,2.535859375,-6.574779372084141,-0.01400572899878025,1.6175263825416564
1772619578264890000,2.54589013671875,-7.8011174025624985,-0.5866483803212642,1.5479317450508474
1772619578274921200,2.555921142578125,-8.574390178257227,-1.1533379684582352,1.4278596968628465
1772619578284952000,2.5659521484375,-8.77302416037619,-1.533532925081253,1.2404590564198792
1772619578294983200,2.575983154296875,-8.479877664870024,-1.642615231090784,0.9777033152632415
1772619578305014000,2.586013916015625,-8.02193048326373,-1.727831216083467,0.7278337975561618
1772619578315045400,2.59604541015625,-7.807560587352514,-2.0597182150028646,0.7722313038177788
1772619578325076200,2.606076171875,-8.0945339471817,-2.4546342092871662,1.0158730330511927
1772619578335108400,2.6161083984375,-8.61541309351921,-2.5692688887268305,1.2199224643476307
1772619578345139200,2.62613916015625,-9.018033524700998,-2.324004380597174,1.373450207413733
1772619578355170300,2.63617041015625,-9.007908436527847,-1.8876538215100764,1.6159214315630495
1772619578365201200,2.646201171875,-8.353259702169895,-1.453023656474799,2.0082174526073038
1772619578375232300,2.656232177734375,-7.009360875672102,-1.0531835036613046,2.2063313563749194
1772619578385263000,2.66626318359375,-5.187909418866038,-0.6682917675241827,1.9501148077286778
1772619578395294200,2.676294189453125,-3.204734783709049,-0.327368206320703,1.403340611025691
1772619578405325000,2.686324951171875,-1.5925988620340823,-0.019398089561611414,1.02359924338907
1772619578415356200,2.696356201171875,-0.836647223496437,0.33213249811306594,0.9305262612856924
1772619578425387300,2.70638720703125,-0.757048786124587,0.7425066121615469,0.90393577600196
1772619578435418000,2.716418212890625,-0.731421592915058,1.0264932112649083,0.9584154811430722
1772619578445449500,2.726449462890625,-0.5576455731987953,1.07839773215577,0.9393328142061829
1772619578455480300,2.736480224609375,-0.11318974132835864,0.9767540517143904,0.73051836046502
1772619578465511400,2.746511474609375,0.7934276749730109,0.8047465029753744,0.3188713769365102
1772619578475542300,2.756542236328125,2.197633962917328,0.6140598265990614,-0.02529799778778106
1772619578485574100,2.76657421875,3.777674372151494,0.38248409047350285,-0.21225768953021615
1772619578495605200,2.776605224609375,5.333810174185038,0.14279796699807046,-0.2822040265355259
1772619578505636000,2.786635986328125,6.718147394055127,-0.1059321714155376,-0.278119022244215
1772619578515667200,2.796667236328125,7.840579644379019,-0.3032012949220836,-0.17735486458372324
1772619578525698300,2.8066982421875,8.567181854313612,-0.4802981296241283,0.03622559798285365
1772619578535729200,2.816729248046875,8.884379087492823,-0.5889617718301713,0.09015599867813288
1772619578545760300,2.82676025390625,8.71759745670855,-0.5209029656045139,0.08560030813515186
1772619578555791000,2.836791015625,8.211853335660695,-0.26943288083299993,0.15443477490842342
1772619578565822200,2.846822265625,7.548205302289128,0.0073294661052525035,0.1828781945824623
1772619578575853300,2.856853271484375,6.868181888177991,0.282528801510483,0.24797172126173972
1772619578585884400,2.866884521484375,6.172345987907051,0.5112009251490235,0.25911979580707845
1772619578595915300,2.876915283203125,5.590689424523711,0.7517259836666286,0.21939210798740386
1772619578605946400,2.8869462890625,5.313752305540442,0.9424598601855337,0.14379581892900167
1772619578615977200,2.896977294921875,5.359694557026028,1.0852763857536016,0.027231851927191016
1772619578626009300,2.90700927734375,5.621093330615759,1.133680351177603,-0.08178469536975026
1772619578636040200,2.917040283203125,6.098696229806542,1.1041253169998526,-0.18409115056879818
1772619578646071300,2.9270712890625,6.609532705557346,1.0162414279721677,-0.2991541384231299
1772619578656102100,2.93710205078125,6.953707962033152,1.0154673748597502,-0.40836620829217135
1772619578666133200,2.94713330078125,7.059213578599691,1.021263055526465,-0.5514708300866187
1772619578676164900,2.957164794921875,6.851575036770105,0.9684216921769082,-0.6439851553939282
1772619578686196000,2.967196044921875,6.274023570618033,0.8344174186177551,-0.7808037557214498
1772619578696226800,2.977226806640625,5.247784918636083,0.5544035225376487,-0.7102818473178892
1772619578706258000,2.9872578125,4.024921286270022,0.21784078689217568,-0.5118360812474042
1772619578716288800,2.997288818359375,3.0555688891142605,-0.069295216152817,-0.42379400598332284
1772619578726319900,3.00731982421875,2.561281981626153,-0.46141544223874803,-0.32051505249030887
1772619578736350700,3.017350830078125,2.403541735431552,-0.9634178925402462,-0.27462584636621173
1772619578746381800,3.0273818359375,2.3759832818984985,-1.6112882188044488,-0.02151077086664736
1772619578756412700,3.03741259765625,1.935268390122056,-2.1483226733900604,0.27400004261806604
1772619578766444000,3.047444091796875,0.7904945441305636,-2.255716295660287,0.3086648575576022
1772619578776476000,3.057475830078125,-1.0220148968070746,-1.8051168464682996,0.304136493412964
1772619578786507000,3.067507080078125,-3.0828491102278233,-1.2034105977468192,0.3373140654694289
1772619578796537900,3.077537841796875,-3.840657190287113,-0.5523465900078416,0.07194255232382565
1772619578806569000,3.08756884765625,-2.6738036144345996,-0.3038609278745949,-0.49840285490695385
1772619578816599800,3.097599853515625,-1.275792673999071,-0.9967011534608899,-0.8395172990400344
1772619578826631000,3.107630859375,-1.620796782514453,-1.2626238342158496,-1.1882805408932269
1772619578836661800,3.117661865234375,-4.588503263780474,-0.5753998410761356,-1.2334614526174963
1772619578846692900,3.12769287109375,-9.235819366535544,0.5392511077217758,-0.11221274952236562
1772619578856723700,3.1377236328125,-12.880732450926303,1.8453166087791322,1.5391558795295655
1772619578866754800,3.1477548828125,-13.926516930377483,2.7710011291220784,2.9870240529373286
1772619578876785700,3.15778564453125,-12.462424036747217,2.965003067526221,3.3719688344359398
1772619578886817000,3.167817138671875,-9.374525241914391,2.4600524349436164,2.455405778181553
1772619578896848000,3.177847900390625,-5.726598362660408,1.5516545649662612,0.9235067379124462
1772619578906879000,3.18787890625,-2.3963807577610012,0.41673152025118465,-0.6738532010436058
1772619578916909800,3.197909912109375,-0.6407400359928608,-0.9200425689332187,-1.6511062883213161
1772619578926942000,3.20794189453125,-0.4424491682231426,-1.833698067177832,-2.2147683453306555
1772619578936972800,3.217972900390625,-1.1415051995843648,-1.9134975800797343,-2.1270758872218427
1772619578947004000,3.22800390625,-2.271918511790037,-1.4045647459931672,-1.5862477394416927
1772619578957034800,3.23803466796875,-3.1002362983584404,-0.7623770684752613,-1.1017144564658403
1772619578967065900,3.24806591796875,-3.2916952742815018,-0.2749022886874154,-0.6210844645388424
1772619578977096700,3.2580966796875,-2.9758325045764447,0.055060025779716665,-0.28382033915836363
1772619578987127800,3.2681279296875,-2.201936044025421,0.17207199227735398,-0.21393713051714003
1772619578997158700,3.27815869140625,-1.156294187915325,0.0428195528877899,-0.1851390521865338
1772619579007189800,3.288189697265625,-0.07735679592490195,-0.1224989830739796,-0.22418862154893576
1772619579017220900,3.298220947265625,0.8939017271131277,-0.2848647701773792,-0.3457553652741015
1772619579027252000,3.308251953125,1.6894868723809717,-0.4913996250813827,-0.47643422073759134
1772619579037282800,3.31828271484375,2.1845757439017293,-0.6795553582079709,-0.5179283337078988
1772619579047314000,3.32831396484375,2.4862106662899253,-0.7705982957884668,-0.4799934475891292
1772619579057345000,3.338344970703125,2.6927251725256443,-0.7418325122922659,-0.4855583882398903
1772619579067377000,3.348376953125,2.843718867069483,-0.7090624615907669,-0.4537016529910266
1772619579077407700,3.35840771484375,2.9886510696172714,-0.6968561101641505,-0.4787297112636268
1772619579087438800,3.36843896484375,3.0932045000255104,-0.7536550520330667,-0.6112478379182518
1772619579097469700,3.3784697265625,3.117728700429201,-0.8548422208786011,-0.8482567050084471
1772619579107500800,3.388500732421875,2.988665098142624,-0.9616016368985175,-1.0275564565822481
1772619579117532000,3.398531982421875,2.8104192395359275,-1.0186235008031128,-1.1748958664022386
1772619579127562800,3.408562744140625,2.7145652484118936,-1.0265789898522197,-1.2670311292640863
1772619579137593900,3.41859375,2.6117063469618556,-0.9696135323099792,-1.2639018913276492
1772619579147625000,3.428625,2.488662151095271,-0.8099041049342602,-1.2385424091435968
1772619579157656000,3.438656005859375,2.1935575072586535,-0.5871740846958011,-1.073673333982378
1772619579167687000,3.44868701171875,1.8082938690692185,-0.23898235912024973,-0.7797634528882801
1772619579177718000,3.458718017578125,1.3820277738839386,0.14945209112502633,-0.45369653842449187
1772619579187748900,3.468748779296875,1.0258324092686175,0.5342281649932265,-0.14307459198236464
1772619579197780000,3.478780029296875,0.9692635498285292,0.8267443997718393,-0.01691650187894702
1772619579207810800,3.488810791015625,1.057747304445505,1.0019213723272085,-0.05361483194008469
1772619579217843000,3.498843017578125,1.0353104317098856,0.9996792924888431,-0.08464563775882124
1772619579227873800,3.508873779296875,0.8717641295850277,0.899057429375872,-0.06615691812708974
1772619579237905000,3.51890478515625,0.6716448773443698,0.7035257971864193,0.12183657364249229
1772619579247935700,3.528935791015625,0.4770879354059696,0.3704002694480121,0.45109380858018994
1772619579257966800,3.538966796875,0.015818915900588034,-0.23929558978788554,0.8551938107952475
1772619579267998000,3.548998046875,-1.0218301878899336,-0.9356531758453697,1.1823762852855026
1772619579278029000,3.559029052734375,-2.829948700392246,-1.366070326295495,1.2061866383314133
1772619579288060000,3.569059814453125,-5.329719690001011,-1.4728474241025744,1.2380473191030323
1772619579298091000,3.579091064453125,-7.8279165621608495,-1.2331443494923413,1.250467240215093
1772619579308121900,3.589121826171875,-9.543044656276702,-0.5505313572794198,0.8950783696770668
1772619579318153000,3.599153076171875,-10.095076481246947,0.16913886143490672,0.5692531550146639
1772619579328183800,3.609183837890625,-9.382726668548584,0.5703495719492435,0.5108739582169801
1772619579338215000,3.61921484375,-7.649893990916013,0.5279442624181508,0.5283512357838451
1772619579348245800,3.629245849609375,-5.697870865347981,-0.0437653458379209,0.4264109835486859
1772619579358276900,3.63927685546875,-4.205081454065442,-0.9198723269328475,0.14415807637013495
1772619579368308700,3.649308837890625,-3.7916099585235115,-1.769932720362395,0.04222505759336054
1772619579378339800,3.65933984375,-4.322444681686163,-2.146711292670667,0.22212145988605916
1772619579388370700,3.66937060546875,-4.993292271173,-1.664421112446487,0.3945320364680141
1772619579398402000,3.679402099609375,-4.878283497723936,-0.823748505891487,0.4224010172549635
1772619579408433000,3.689432861328125,-4.063591500926018,-0.27715309982150793,0.4695411002229899
1772619579418464000,3.699464111328125,-3.174008806055784,-0.06898936507403851,0.3888039046121761
1772619579428494800,3.709494873046875,-2.4218045373529193,-0.030523367753252387,0.06979903748910873
1772619579438526000,3.71952587890625,-1.812854893374443,-0.17091533305551856,-0.3524653112415224
1772619579448556800,3.729556884765625,-1.2099661568701268,-0.32707747974582013,-0.5779619466491043
1772619579458588000,3.739587890625,-0.6207230838805436,-0.4728387169962749,-0.5641074992218986
1772619579468618800,3.74961865234375,-0.0701437958061695,-0.4223494331981987,-0.28312936121951787
1772619579478649900,3.75964990234375,0.37331542624235153,-0.272432829833962,0.0923737112602219
1772619579488681000,3.769680908203125,0.9031436027109623,-0.037510582592361605,0.42847441888451576
1772619579498711800,3.7797119140625,1.5600912616610527,0.12773336746296846,0.729050333739072
1772619579508743700,3.78974365234375,2.3171634286612273,0.1830435412120074,0.9422979476220905
1772619579518774800,3.79977490234375,3.1802497462719677,0.2074359684621915,0.9642729749996215
1772619579528806000,3.809805908203125,4.138160127437114,0.25275729330414903,0.8901175323992967
1772619579538837000,3.8198369140625,5.1505695760309695,0.32910686668157574,0.7724651125736535
1772619579548867800,3.829867919921875,6.110359779593348,0.4032810870476067,0.7086152292799204
1772619579558899000,3.83989892578125,6.868973915338516,0.32152941716462374,0.7033863156504928
1772619579568929800,3.8499296875,7.417189981412887,0.1807820990860462,0.6626543461591005
1772619579578961000,3.8599609375,7.740766101974248,0.09689787415377796,0.5148716130184009
1772619579588992000,3.869991943359375,7.90551885727942,0.06143449271507561,0.3397660251988098
1772619579599022800,3.88002294921875,7.757420299655198,0.027774470903910695,0.19195757309496403
1772619579609054000,3.890053955078125,7.263409286499023,0.0015335297102108596,0.03673771222345531
1772619579619084800,3.900084716796875,6.600182693409919,0.06910086262449622,-0.09945749550871551
1772619579629116000,3.910115966796875,5.849010690364241,0.2778598598513752,-0.31503786318823696
1772619579639146800,3.920146728515625,5.137168242666125,0.5234362834744155,-0.47426447548307477
1772619579649177900,3.930177734375,4.50792341415584,0.7676506249640137,-0.4954247524116188
1772619579659210000,3.9402099609375,4.029533163979649,1.0366205644603819,-0.5985059913754462
1772619579669240800,3.95024072265625,3.6490041530966755,1.3280099141009152,-0.5672754982661455
1772619579679272000,3.96027197265625,3.264250802516937,1.6014941161513327,-0.5244375694714486
1772619579689303000,3.970302978515625,2.710614464959502,1.6613091179057955,-0.3648719344805926
1772619579699334000,3.980333984375,1.846889264923334,1.635179528132081,-0.030142478676885364
1772619579709365000,3.990364990234375,0.7993973970323801,1.7272274049714207,0.36454014524295925
1772619579719395800,4.000395751953125,-0.11092471900582312,1.9476872883208094,0.6836926772084087
1772619579729427000,4.010427001953125,-0.645834728783369,1.997421917826682,0.9833871330533176
1772619579739457800,4.020457763671875,-0.858322464209795,1.7523305743068456,1.1716367915410548
1772619579749489000,4.030489013671875,-0.9402537284433841,1.1857926696002483,1.1443000909999013
1772619579759519700,4.040519775390625,-1.230191783297062,0.2910958465866744,1.5009221565946935
1772619579769550800,4.05055078125,-1.745604480922222,-0.5759086673811078,2.349579551358521
1772619579779581700,4.060581787109375,-1.5162971281200646,-0.4063271767452359,2.4607979926139114
1772619579789612800,4.07061279296875,-0.19106676173508166,0.4940355630755424,0.8712007966138422
1772619579799643600,4.0806435546875,1.8804642022669313,0.22543957145810126,-1.2966377474986015
1772619579809676000,4.090676025390625,3.370202409285307,-1.9816794281631707,-2.238517323578149
1772619579819707000,4.100706787109375,2.7688521343946455,-4.327307027025521,-2.219024395339936
1772619579829738000,4.110738037109375,-0.026490532040596006,-4.897472182318568,-1.9450629311665892
1772619579839768800,4.120768798828125,-4.393707836911082,-3.2091537691950798,-1.2223569249529391
1772619579849800000,4.130800048828125,-9.368275533869863,-0.7702941982753574,-0.04761555499266833
1772619579859830800,4.140830810546875,-12.894192821002006,1.0000506100192665,1.941187551037967
1772619579869862000,4.15086181640625,-13.60702895591259,2.510008890506625,3.4810040864333507
1772619579879892700,4.160892822265625,-12.30361294645071,3.577383270475268,3.9038852153554555
1772619579889923800,4.170923828125,-9.766620187428593,3.5130572210371493,3.476440139518678
1772619579899954700,4.18095458984375,-6.555638618284464,2.699865107408166,2.2957919932000337
1772619579909985800,4.19098583984375,-3.1882635413795706,1.5055505470477044,0.6743013101372868
1772619579920016600,4.2010166015625,0.20342998422384262,0.1801663052752614,-0.49713900898359714
1772619579930047700,4.2110478515625,2.992535217574239,-1.26570499522686,-0.7795620120320469
1772619579940078800,4.221078857421875,4.394709707430005,-2.098226955486834,-1.4105623789727686
1772619579950110000,4.23110986328125,4.745810963776707,-2.1388618943445383,-1.9294972593747077
1772619579960141800,4.241141845703125,4.001400709950924,-1.848554860047996,-1.6708891394168137
1772619579970173000,4.2511728515625,2.9009307005882263,-1.3662337001636624,-1.3648384464129806
1772619579980203800,4.261203857421875,1.9517688585460184,-1.0076012445945293,-1.0710364096075295
1772619579990235000,4.27123486328125,1.1945423777669668,-0.8300934910040348,-0.6607741584356874
1772619580000265700,4.281265625,0.8230746252179145,-0.6746097184993326,-0.3120323246967047
1772619580010296800,4.291296875,0.8439584232926368,-0.4976172940198332,-0.14834091501273214
1772619580020327700,4.30132763671875,1.277413553199172,-0.27459209022708236,-0.06382847517952323
1772619580030358800,4.31135888671875,1.8513263705879448,-0.18800591285973786,-0.06213358089514076
1772619580040390000,4.321389892578125,2.491418756327033,-0.18735183286517856,-0.14555296479463575
1772619580050420700,4.331420654296875,3.1604338696897027,-0.16385792535729704,-0.13578297366946934
1772619580060451800,4.341451904296875,3.699681031888723,-0.18132701961770653,-0.18740692405328155
1772619580070483000,4.35148291015625,4.084934148684144,-0.3377569138661027,-0.3572812601558864
1772619580080514000,4.36151416015625,4.312505471473932,-0.5957428102724254,-0.6751471863768994
1772619580090545000,4.371544921875,4.3995302594542505,-0.8181186102457344,-1.1245431049980223
1772619580100576000,4.381575927734375,4.3375960735887285,-0.9478890456274152,-1.5856510887227953
1772619580110608000,4.39160791015625,4.068011655455828,-0.9226397458195685,-1.9217036828890441
1772619580120638700,4.401638671875,3.571954815685749,-0.6688654757589101,-2.0072455388352273
1772619580130669800,4.411669921875,2.8370851281434297,-0.19007621632777152,-1.752827710174024
1772619580140701000,4.421700927734375,2.03915955722928,0.265779692087695,-1.437476543252915
1772619580150731800,4.431731689453125,1.3752929126709699,0.6898461583368479,-1.1359633475482462
1772619580160763000,4.441762939453125,0.8852186544418335,0.9924535059537738,-0.8479214817047118
1772619580170793700,4.451793701171875,0.6551163518697023,1.1147082319431005,-0.6370445424757898
1772619580180824800,4.461824951171875,0.7229255672484636,1.1347529488451777,-0.45399084519594907
1772619580190856000,4.47185595703125,0.8407757016032934,0.9219964064147322,-0.25467443377077575
1772619580200887000,4.481886962890625,0.5585200179457664,0.40789427993148564,0.07135638646632432
1772619580210918000,4.49191796875,-0.4078466413974762,-0.2436909021373838,0.620575199842453
1772619580220949000,4.501948974609375,-1.9748533815354108,-0.6589103373251854,1.3063764667026698
1772619580230979800,4.511979736328125,-3.8484400992482897,-0.6998359296925365,2.0257113159827886
1772619580241011000,4.522010986328125,-6.023009412920475,-0.6215643570102751,2.5710353138774633
1772619580251041800,4.532041748046875,-8.48915402725935,-0.637750937179476,2.6617075184494254
1772619580261074000,4.542073974609375,-10.673685347497463,-0.6878758811771869,2.24546290493235
1772619580271104800,4.552104736328125,-11.87507189207077,-0.5984362871401011,1.3827347531095147
1772619580281135900,4.562135986328125,-11.67906065967083,-0.4994194480709731,0.3962548416726291
1772619580291166700,4.572166748046875,-10.430544115132093,-0.5755867419503629,-0.47599166460186243
1772619580301197800,4.58219775390625,-8.795024395260214,-0.9310219358481466,-1.2738321875810623
1772619580311228700,4.592228759765625,-7.431170575970411,-1.593233652806282,-1.8236898833826183
1772619580321260000,4.602260009765625,-6.6836787227422,-2.3277523349538445,-1.9006361988104878
1772619580331291000,4.612290771484375,-6.342709568831324,-2.9584137522637843,-1.5828842543579638
1772619580341322000,4.622322021484375,-6.088417996898293,-3.3351498006045817,-0.932490839356929
1772619580351352800,4.632352783203125,-5.919136365991831,-3.1857273009002207,-0.3297708104830235
1772619580361384000,4.642384033203125,-5.635714561164379,-2.530811440038681,0.1502822218062356
1772619580371414800,4.652414794921875,-5.120398309651017,-1.6079807016916572,0.2813108040228486
1772619580381446000,4.66244580078125,-4.424834212058783,-0.8803979562871158,0.037910664992965755
1772619580391477000,4.67247705078125,-3.5089983010351657,-0.5122837519496679,-0.24199147780835628
1772619580401507800,4.6825078125,-2.3032570683836937,-0.3212754424035549,-0.559814660866186
1772619580411539700,4.692539794921875,-1.2524363483309746,-0.2768278133898973,-0.6605552549879997
1772619580421570800,4.70257080078125,-0.3302028452247381,-0.25937844674326477,-0.6133670220293105
1772619580431601700,4.7126015625,0.5443780953466892,-0.1495855082463473,-0.5467269600277767
1772619580441632800,4.7226328125,1.2303799993455409,-0.02768755980543792,-0.3701408878594637
1772619580451664000,4.732663818359375,1.694426666870713,0.12391856754831969,-0.09431074373740703
1772619580461695000,4.742695068359375,2.354512039324641,0.3314681889854371,0.20650500775501132
1772619580471725800,4.752725830078125,3.295336261132359,0.5457110244508833,0.46480647291652855
1772619580481757000,4.7627568359375,4.521676045176386,0.7627549618769437,0.5689696618981659
1772619580491788000,4.7727880859375,5.868838841906189,0.889232858519256,0.6153123108781874
1772619580501819000,4.78281884765625,7.094986902770399,0.7990427383758127,0.7123107227969915
1772619580511850000,4.79285009765625,7.999379044237733,0.3539424711219966,0.8345350536480546
1772619580521880800,4.802880859375,8.499507078969478,-0.2089738090213388,0.8768358798913657
1772619580531912000,4.812911865234375,8.569797589769959,-0.7157664162088185,0.8382990823566913
1772619580541942800,4.82294287109375,8.051141964700818,-1.1278235879734158,0.7273186876408755
1772619580551974000,4.832973876953125,7.24053226878047,-1.159769243614748,0.4731961886644363
1772619580562005800,4.843005859375,6.363952263346314,-0.8852259609654545,0.2310612837973982
1772619580572036900,4.853036865234375,5.540544460651279,-0.5588497613567859,0.05955079786032438
1772619580582068000,4.86306787109375,4.83498971492052,-0.20320961947143076,-0.01753090745024383
1772619580592099000,4.87309912109375,4.085089046984911,0.1528035569773987,-0.13118432076759637
1772619580602130000,4.8831298828125,3.6485581628948447,0.5421022593691944,-0.2595983731042594
1772619580612161000,4.8931611328125,3.6915398110091684,0.9318561947152018,-0.3659487699318677
1772619580622191900,4.90319189453125,4.08980847672224,1.2763013541735708,-0.5715902927253395
1772619580632223000,4.913222900390625,4.790793430319428,1.6183876755461095,-0.8038320184789598
1772619580642253800,4.92325390625,5.4981765605211255,1.8560329408437013,-0.9921925169300287
1772619580652285000,4.933284912109375,6.1164154263705015,1.8937872096985577,-1.043955437393114
1772619580662315800,4.943315673828125,6.427325542104244,1.8702483670704066,-1.1024865368168801
1772619580672347000,4.953346923828125,6.373028134727478,1.6571894076272844,-1.0404199567433445
1772619580682378000,4.9633779296875,5.9038072794348,1.187388560489565,-0.7364533034719526
1772619580692409000,4.9734091796875,5.0396758366853,0.7329948335811496,-0.392566581613943
1772619580702440000,4.98343994140625,3.943681511431932,0.7988103909246623,-0.6034717240240425
1772619580712472000,4.99347216796875,2.950429767772555,1.2242026258848606,-0.8713969767730683
1772619580722503000,5.0035029296875,1.8812521377742288,1.1275884640432894,-0.39882673798725005
1772619580732534000,5.013533935546875,0.5149556015074253,0.546932602135092,0.051139673998206854
1772619580742564900,5.02356494140625,-0.9640829323202371,-0.14175956386104224,0.06459938648678362
1772619580752596000,5.033595947265625,-2.295242688754201,-0.6948382675357162,0.03650974868647754
1772619580762626800,5.043626708984375,-3.3637013568282126,-0.8227807568378745,0.35971389413028954
1772619580772658000,5.053657958984375,-4.1371307843893765,-0.6505502129979431,1.2748214908793567
1772619580782689000,5.06368896484375,-4.073127975556254,-0.5298302222952246,2.31382478575781
1772619580792720100,5.07372021484375,-2.6397423548787833,-0.3298955328412354,1.9274496791951357
1772619580802751000,5.0837509765625,0.016823124507069586,-0.5287710686311126,-0.0579853751745075
1772619580812782000,5.093781982421875,3.106249275037646,-1.4228350005686283,-1.9070077796690166
1772619580822813000,5.10381298828125,4.316384358733893,-2.759379372650385,-2.091912073251605
1772619580832844000,5.113843994140625,1.3947177441090344,-3.168602563098073,-1.6124436724498867
1772619580842875000,5.123875,-3.791148186230659,-1.3708216124758124,-1.2149470140226184
1772619580852906000,5.133906005859375,-8.911976119470596,1.0041961853913963,-0.0015721446875482797
1772619580862937900,5.143937744140625,-11.920264786493778,2.3598763428367673,2.2297920192003247
1772619580872969000,5.153968994140625,-12.603084553325175,2.92813318029046,3.4515696098953486
1772619580882999800,5.163999755859375,-11.219827529907226,3.2762422690838573,2.5477371481373905
1772619580893031000,5.174031005859375,-8.688221724620462,2.949182398059964,1.244428982964158
1772619580903062000,5.18406201171875,-5.970673076483607,1.8897680371850727,0.08693776728399097
1772619580913093000,5.194093017578125,-3.263400323167443,0.6642856736879795,-0.9648420801244676
1772619580923124000,5.2041240234375,-0.7555097399890423,-0.35331553486268963,-1.8564368454694746
1772619580933155000,5.214155029296875,1.0353963564276694,-1.2260025149136782,-2.1900893927566707
1772619580943186000,5.22418603515625,2.010798555141687,-1.6432023833289742,-2.257155973074585
1772619580953217000,5.234217041015625,2.3716934757500887,-1.5416040033340452,-2.117138284444809
1772619580963248000,5.244248046875,2.463721186584234,-1.2575693273052573,-1.6959209970816969
1772619580973279000,5.254279052734375,2.5188147127747533,-1.0508451969068497,-1.1089540523305534
1772619580983310000,5.26431005859375,2.6769576945513487,-0.8887214018657803,-0.5701332257848233
1772619580993341000,5.2743408203125,2.9579361978799104,-0.72482767454274,-0.2593699711758643
1772619581003372000,5.2843720703125,3.229996066215634,-0.5876470359697937,-0.12110431384518743
1772619581013404000,5.29440380859375,3.3623236387342215,-0.49755986474417147,-0.020863924330472947
1772619581023434800,5.304434814453125,3.3785523044794794,-0.3484991110242903,-0.04461071062088012
1772619581033466000,5.314466064453125,3.461020159807801,-0.1137585541922599,-0.22642127597182987
1772619581043497000,5.3244970703125,3.6446383591026064,0.05475567253828048,-0.3941122766859829
1772619581053528000,5.334528076171875,3.830679986152053,0.060035877963528037,-0.5244575893461704
1772619581063559200,5.34455908203125,4.1073505631536245,0.019075287348031995,-0.7097267707183956
1772619581073590000,5.354590087890625,4.322454034036397,-0.047307913815602655,-0.9174209882579744
1772619581083621000,5.36462109375,4.34835419896841,-0.09213146346956491,-1.0162608633249997
1772619581093652000,5.37465185546875,4.025643170803785,-0.09816014917455614,-0.868000831528753
1772619581103683000,5.38468310546875,3.4239071114659305,-0.008043313463032244,-0.5401872195281088
1772619581113714000,5.3947138671875,2.755035205966234,0.13648922224268317,-0.055692953388392925
1772619581123745000,5.4047451171875,2.280776941028237,0.17179763231538236,0.47835415594950315
1772619581133776000,5.41477587890625,2.252475560173392,0.23868666410930453,0.7217695290811359
1772619581143807000,5.424806884765625,2.5779519613981243,0.24243629896640775,0.37117183834239836
1772619581153837800,5.434837890625,2.648482126173377,-0.19899214790686964,-0.1447317115396261
1772619581163870200,5.4448701171875,1.8725094438701866,-0.8946173280365765,-0.3650111237555742
1772619581173901000,5.454901123046875,0.14429215107858182,-1.3366641990691424,-0.3719967448592186
1772619581183932200,5.46493212890625,-2.3518308374166486,-1.0333533062927425,-0.40841581958755846
1772619581193963000,5.474962890625,-4.927001643663645,-0.2251980177871883,-0.14933876694366335
1772619581203994000,5.484994140625,-6.98942634114623,0.433617626991868,0.38755437947511673
1772619581214025000,5.49502490234375,-7.979645585241913,0.7708581157684326,0.9559760521017014
1772619581224056000,5.50505615234375,-7.797754063609242,0.7937628982767462,1.4419263622686267
1772619581234087000,5.5150869140625,-6.629146922087669,0.4474621740795672,1.648634491380304
1772619581244118000,5.525117919921875,-5.389077887898683,-0.2896035622023046,1.6622995902478694
1772619581254148900,5.53514892578125,-4.979703306281566,-1.2521189529448746,1.3630100619420409
1772619581264180000,5.545179931640625,-5.440773003822565,-1.8908821359068153,0.616570201984793
1772619581274210800,5.5552109375,-6.458548363363742,-2.0946505583047865,-0.2817915732771158
1772619581284242000,5.565241943359375,-7.479780585360527,-1.859373775704205,-1.2273143281646073
1772619581294273000,5.57527294921875,-8.20898917840123,-1.5097966601848603,-1.7911606556996702
1772619581304303900,5.585303955078125,-8.783717988348007,-1.34747639272362,-1.744938710489869
1772619581314336000,5.5953359375,-9.242159675472974,-1.2714167970024048,-1.376154497936368
1772619581324367000,5.6053671875,-9.493561955705285,-1.3288108552202582,-0.9862176072388886
1772619581334398000,5.61539794921875,-9.104740332773327,-1.577519074063003,-0.6530419567484408
1772619581344429000,5.625428955078125,-7.843497577652335,-1.9526221143744884,-0.4172968259837478
1772619581354460000,5.6354599609375,-6.215852536678314,-2.2966592775538563,-0.3494887796487659
1772619581364491000,5.645490966796875,-4.680916759061813,-2.440908027882129,-0.3537363540906459
1772619581374521900,5.65552197265625,-3.535073822534084,-2.28114036751315,-0.304858049153164
1772619581384553000,5.665552978515625,-2.817868971019983,-1.7724480641841887,-0.0943119493138045
1772619581394584000,5.675583984375,-2.1722247963726518,-1.0346237646199763,0.3080389807442203
1772619581404615000,5.685614990234375,-1.3204647594183683,-0.42288083666115994,0.8571450909934938
1772619581414646000,5.69564599609375,-0.5334697478413581,-0.1481698692947626,1.4676007556207478
1772619581424676900,5.7056767578125,-0.05680559080541134,-0.13892258686944842,1.8083717566110193
1772619581434708000,5.7157080078125,0.4137953206688165,-0.17658472046144305,1.8453155858658252
1772619581444739000,5.725739013671875,0.876968712490797,-0.4031033193279058,1.719317070238292
1772619581454770200,5.735770263671875,1.5407003324925899,-0.5985661240648478,1.4797501892283558
1772619581464801000,5.745801025390625,2.5838100397765635,-0.5958204786185175,1.26213809652552
1772619581474832100,5.75583203125,3.9667742177277803,-0.534687526133284,1.1323767212331295
1772619581484864000,5.765864013671875,5.605441003453731,-0.44799460045583545,1.1373089169383048
1772619581494895000,5.77589501953125,7.124756602612138,-0.3693004184473306,1.2348437007561326
1772619581504926000,5.785926025390625,8.27823924023807,-0.2517994628563523,1.3583929235354064
1772619581514957000,5.79595703125,9.019685383561253,-0.146503689648211,1.599706209821254
1772619581524988000,5.80598779296875,9.365231343868373,-0.07147548280134797,1.8676358464844525
1772619581535019000,5.81601904296875,9.33131387669742,-0.04215352672711015,1.865956222834438
1772619581545049900,5.8260498046875,9.088444447010755,-0.08300050090029835,1.629649951055646
1772619581555081000,5.8360810546875,8.6856293700397,-0.30008330903202296,1.273656392622739
1772619581565111800,5.84611181640625,8.111260041055083,-0.45629707631170746,0.8039259803727269
1772619581575143200,5.85614306640625,7.424453834936022,-0.4892192488349974,0.33200762962438163
1772619581585174000,5.866174072265625,6.608388211697339,-0.4179867810092866,-0.08267684017019346
1772619581595205000,5.876205078125,5.788341994389891,-0.27556699967384335,-0.40310536515451967
1772619581605236000,5.886236083984375,5.165668945485353,-0.1289972590520978,-0.44397367437668145
1772619581615267000,5.89626708984375,4.775470188981294,0.0039088440068066116,-0.3580838817756623
1772619581625298000,5.9062978515625,4.633858655288815,0.18352847518473864,-0.29714268900286406
1772619581635330000,5.916330078125,4.613497419783473,0.4998432264409959,-0.3437072371052578
1772619581645361000,5.92636083984375,4.531408334639668,0.8210786290951073,-0.45857477545272557
1772619581655392000,5.93639208984375,4.331035399898886,1.0853881755650043,-0.5550594291631132
1772619581665422800,5.9464228515625,3.90886563411653,1.3413685773678123,-0.46098950844425707
1772619581675454000,5.956453857421875,3.3767788650661705,1.5226868291571736,-0.03580307998815551
1772619581685484300,5.966484375,2.782003292390704,1.6045719161614775,0.7412396609656512
1772619581695515100,5.97651513671875,1.944582161912322,1.6557302948601542,1.494256707356125
1772619581705546200,5.986546142578125,0.6399053387343883,1.6286984955497086,2.075731484431773
1772619581715577000,5.9965771484375,-1.1534148330867289,1.4360402268394827,2.2356932060681283
1772619581725608400,6.0066083984375,-3.176996297433972,1.1065969678103924,1.7703035995014011
1772619581735639300,6.016639404296875,-4.742761513078213,0.5047612474903465,1.2789330178514122
1772619581745670400,6.02667041015625,-5.104738968226314,0.05982844575792551,0.5787726785100996
1772619581755701200,6.036701171875,-4.3089667759537695,-0.006844751328229904,-0.13617966310316695
1772619581765732400,6.046732421875,-3.005785159769654,-0.06855769565850496,-0.5277496531615034
1772619581775763200,6.05676318359375,-1.8961001628160477,-0.32592239142656326,-0.5546301343677565
1772619581785795300,6.06679541015625,-1.486816182091832,-0.7257812489405274,-0.47006483183614906
1772619581795826200,6.076826171875,-1.7360113076686858,-1.2901593452647329,-0.1102250828364864
1772619581805857300,6.086857177734375,-2.6744121017217632,-1.595848511479795,0.3867730563716963
1772619581815888100,6.09688818359375,-4.147267563000321,-1.2407596468016504,0.7761889554023742
1772619581825919200,6.106919189453125,-5.956556872847676,-0.5248018727391958,1.178048412149027
1772619581835950000,6.1169501953125,-7.423185422435402,0.2235860525459051,1.5233637055054305
1772619581845981200,6.126981201171875,-8.025448720517755,0.9591846388846635,1.7877819730468094
1772619581856012300,6.13701220703125,-7.649133527937531,1.4560656545192003,1.9636308535143732
1772619581866043400,6.14704345703125,-6.509231671896576,1.76577837716192,1.6847386549405752
1772619581876074200,6.15707421875,-4.872947981914877,1.74004553162083,1.1827283135935664
1772619581886105300,6.167105224609375,-3.2031618353039026,1.3748713262580334,0.6296526786588132
1772619581896136200,6.17713623046875,-1.7542992440313099,0.9355364906631409,-0.03399572003893554
1772619581906167300,6.187167236328125,-0.5206283864468336,0.48838323640227316,-0.6460257213108241
1772619581916198100,6.1971982421875,0.5201590153694152,0.08695172274410724,-0.907522110056132
1772619581926229200,6.207229248046875,1.2745038032323122,-0.11822130575478076,-0.8325148729320615
1772619581936261000,6.21726123046875,1.7386977702736854,-0.10830167702585458,-0.8011139916919171
1772619581946292200,6.227292236328125,2.147795288515091,0.02437894671410322,-0.8238722784016281
1772619581956323000,6.237322998046875,2.5522733302623033,0.09480711241960525,-0.7772908522296696
1772619581966354200,6.247354248046875,2.9761960771918297,0.1275634268566966,-0.628759163885191
1772619581976385300,6.25738525390625,3.276944279873371,0.10914163498133421,-0.5277344921249896
1772619581986416400,6.26741650390625,3.4679876607328652,0.13227248133048414,-0.5094548851992935
1772619581996447200,6.277447265625,3.616690029469132,0.19098302897438404,-0.504310581113398
1772619582006478300,6.287478271484375,3.6439024460434912,0.23617460822314024,-0.44220388822518286
1772619582016509200,6.29750927734375,3.4922079097539185,0.22355025058016179,-0.3647013271540403
1772619582026540300,6.307540283203125,3.186971163481474,0.1958791304528713,-0.35109701856300235
1772619582036571400,6.3175712890625,2.863412578576803,0.19933993843123315,-0.4032234385762363
1772619582046602200,6.327602294921875,2.633170575273037,0.2112035408347845,-0.4185917611651122
1772619582056633300,6.33763330078125,2.540430916777253,0.14336100770831106,-0.45535037004612383
1772619582066664200,6.347664306640625,2.607108497777581,0.09720452895015477,-0.6217372293591499
1772619582076695300,6.3576953125,2.7439094163179396,0.05440583618730306,-0.6982157811447978
1772619582086726100,6.36772607421875,2.843226115116477,0.020834990496933457,-0.7296808867275715
1772619582096758000,6.377758056640625,2.967099747544527,-0.010738251635432242,-0.7970391434684395
1772619582106789400,6.387789306640625,3.086819182902574,-0.07893105950430035,-0.859886206395179
1772619582116820200,6.3978203125,3.14829802621603,-0.1666923450656235,-1.0137792756423354
1772619582126851300,6.407851318359375,3.194708479735255,-0.31799905108138915,-1.387930714317411
1772619582136882400,6.41788232421875,3.138642893642187,-0.5871750345438719,-1.851957508098334
1772619582146913300,6.427913330078125,2.713423092639446,-0.9873588862285018,-2.122914383628219
1772619582156944400,6.4379443359375,1.5730395905613899,-1.3428047476507723,-2.05571234036237
1772619582166975200,6.447975341796875,-0.3422609472870827,-1.1858245260432363,-1.779242692760378
1772619582177006300,6.45800634765625,-2.5031471880435943,-0.4384868404634297,-1.2916327788181603
1772619582187037200,6.468037109375,-4.3202328508555885,0.5080024213686585,-0.6140780929081141
1772619582197068300,6.478068359375,-5.651296745699644,1.2882292539849876,0.03038680882677436
1772619582207099100,6.48809912109375,-5.944383619973063,1.7815005546897649,0.668237114727497
1772619582217130200,6.498130126953125,-5.3298079528063536,1.7522446495890616,1.1473710228778422
1772619582227161000,6.5081611328125,-4.431667857471108,1.1405939299583434,1.4686683848522604
1772619582237192200,6.518192138671875,-3.683157182589173,0.19350392575412986,1.762265546735376
1772619582247224300,6.528224365234375,-3.83268022005856,-1.0288596481353043,2.1219171892844138
1772619582257255400,6.53825537109375,-5.095857742634415,-2.025976542790234,2.4718133076250552
1772619582267286300,6.548286376953125,-6.748827779000997,-2.1635180505648255,2.362299478330463
1772619582277317400,6.5583173828125,-8.059953047665953,-1.4737281524598598,1.7714920786336064
1772619582287348200,6.56834814453125,-8.823341558206081,-0.7605608858987689,1.3125357199847698
1772619582297379300,6.57837939453125,-9.059801705372333,-0.4460289264060557,1.2948979180939495
1772619582307410200,6.58841015625,-8.9674501694113,-0.48299467523172496,1.577620634741336
1772619582317441300,6.598441162109375,-8.645182208839058,-0.7400942903228104,1.7632564574688672
1772619582327472000,6.60847216796875,-7.936275230070948,-1.0779423896037041,1.8682409727707505
1772619582337503200,6.618503173828125,-6.633526160085201,-1.102093811172247,2.092119724652916
1772619582347534000,6.6285341796875,-4.731330603003502,-0.6541700109302997,1.8982710771143436
1772619582357565200,6.638565185546875,-2.477006200093031,-0.03347673766613007,1.4319623098760843
1772619582367596000,6.648595947265625,-0.3701005558490753,0.4807543489590287,1.08773919567056
1772619582377627100,6.658627197265625,1.1157406437307595,0.7537250485293566,0.8986790245175361
1772619582387658200,6.668658203125,1.6152578530877828,0.7771032937683164,0.951258375930041
1772619582397690400,6.6786904296875,1.1592816792935132,0.6871189253300428,1.0893370593212544
1772619582407721200,6.68872119140625,0.23336101210713386,0.4137327768266201,1.0426273305945097
1772619582417752300,6.69875244140625,-0.36361879261434077,0.14716624521017074,0.8530266958892345
1772619582427783200,6.708783203125,-0.4007365171313286,-0.08399638006985187,0.6554167961210012
1772619582437814300,6.718814208984375,0.3242962515294552,-0.1676183738693595,0.5353133298814297
1772619582447845000,6.72884521484375,1.651026501083374,-0.12331497563198209,0.3093050186246633
1772619582457876200,6.738876220703125,3.5201918952226636,0.055470250548422334,0.12087357382923364
1772619582467907000,6.748906982421875,5.654352041617035,-0.036973932132124895,0.14821955365538597
1772619582477938200,6.758938232421875,7.621001073908805,-0.3578887245297432,0.24005890231058
1772619582487969300,6.76896923828125,9.025645753270387,-0.8078975143522024,0.30064971074312924
1772619582498000100,6.779000244140625,9.497012972941993,-1.38761565701887,0.3377361633390188
1772619582508031200,6.78903125,9.068302407214045,-1.9551675610736012,0.3136940473638475
1772619582518062300,6.799062255859375,8.166211528426409,-2.22008427965641,0.24330986693054435
1772619582528093400,6.809093505859375,7.079377830228209,-2.131437589562684,0.13322072196602822
1772619582538124300,6.819124267578125,6.114596394249797,-1.901897743178904,0.03511471413150429
1772619582548156200,6.82915625,5.243836473271251,-1.695454840874672,0.05989639642760157
1772619582558187300,6.839187255859375,4.439749457117915,-1.486528889583051,-0.0440252388831228
1772619582568218000,6.849218017578125,3.8839281767368314,-1.248726095636189,-0.33805045345257967
1772619582578249200,6.859249267578125,3.5666660616278647,-1.0399183638967573,-0.691817458409816
1772619582588280300,6.8692802734375,3.4764614745676514,-0.8605438665863127,-1.0005391241885722
1772619582598311200,6.879311279296875,3.6154847453325987,-0.7704125639580189,-1.211513020985946
1772619582608342300,6.88934228515625,3.887226049238443,-0.7266828739553689,-1.381674722662568
1772619582618373000,6.899373046875,4.131985238194465,-0.546338581764698,-1.436075298152864
1772619582628404200,6.909404296875,4.055428068214654,-0.30162038240619005,-1.3825475599743424
1772619582638435000,6.91943505859375,3.4204368050068616,-0.01618033309150487,-1.2003329438671468
1772619582648466400,6.929466552734375,1.8919389514833687,0.2550027889423072,-0.782700602318719
1772619582658497300,6.939497314453125,-0.1883236005067825,0.47702667020540684,-0.35105946303158997
1772619582668528400,6.9495283203125,-2.0524878253579137,0.8225194024879485,-0.02107040668800473
1772619582678559700,6.959559814453125,-3.423350646626949,1.235326223576069,0.34683987257517873
1772619582688590800,6.9695908203125,-4.191851970136165,1.5748586226820944,0.4623570339377969
1772619582698621700,6.97962158203125,-4.423428436914086,1.3470759952291846,0.26656112478896976
1772619582708653800,6.98965380859375,-4.1322739920079705,0.39729090672209855,0.2790290497612208
1772619582718685000,6.999684814453125,-3.2689754929512738,-0.7625226874910295,0.3259769711580127
1772619582728715800,7.0097158203125,-2.0389298401266336,-1.6107542580582201,0.06216434135958552
1772619582738747000,7.019746826171875,-0.9964841497093438,-1.8506152997091412,-0.7180709668241441
1772619582748778000,7.029778076171875,-0.06967267116308212,-1.6346157567694781,-1.894786157608032
1772619582758808800,7.039808837890625,0.9988584776252507,-1.9856597299709915,-2.7086978176832197
1772619582768840000,7.04983984375,1.783469808936119,-3.297058847141266,-2.4855744142130014
1772619582778870800,7.059870849609375,1.4127145885705947,-4.327166741771996,-1.9522312153607606
1772619582788902000,7.06990185546875,-0.6951128466933966,-4.091476117673516,-1.4515328333951532
1772619582798932700,7.0799326171875,-4.253299833789468,-2.6216356203019617,-0.7219010465063155
1772619582808963800,7.0899638671875,-7.874923228007555,-0.7107784717284142,0.10560798096247016
1772619582818994700,7.09999462890625,-10.390986011725664,1.0985852185294032,1.0683611259836703
1772619582829025800,7.11002587890625,-10.803488954496384,2.342180673278868,2.2160392420493067
1772619582839057000,7.120056884765625,-9.680398532524704,3.0718074917316436,2.6236507595166563
1772619582849088000,7.130087890625,-7.666097522220015,3.2656443027019497,2.2831372404187915
1772619582859119900,7.140119873046875,-5.160354472464323,2.693682619380951,1.8343983244016766
1772619582869151000,7.15015087890625,-2.543299165689945,1.8378452499851583,1.3814520198225975
1772619582879181800,7.160181884765625,-0.6978390567868947,1.2276884221740065,0.4765217528905719
1772619582889213000,7.170212890625,0.5618085380971432,0.8885413691237568,-0.5773711411491036
1772619582899243800,7.180243896484375,1.6370008983403443,0.6294530644334853,-1.201483575206995
1772619582909275000,7.19027490234375,2.6473358787477017,0.47408773067668075,-1.4183403194978832
1772619582919305700,7.2003056640625,3.593765665477514,0.3243672709390521,-1.4278922839581965
1772619582929336800,7.2103369140625,4.383777394527197,0.1991680889956653,-1.2995647408612072
1772619582939367700,7.22036767578125,4.956753223326802,0.10170870850160717,-1.1445774466365575
1772619582949398800,7.230398681640625,5.360460280701518,0.09071633597463369,-0.9950913801766932
1772619582959430000,7.240429931640625,5.486559187963604,0.17734598715752362,-0.824356773982942
1772619582969461000,7.2504609375,5.220806310817599,0.30470249326527116,-0.6920859000876546
1772619582979491800,7.260491943359375,4.529890331292152,0.5398780074484646,-0.5155453840941191
1772619582989523000,7.27052294921875,3.5993244686484336,0.8667169291980564,-0.3071425798937678
1772619582999553800,7.2805537109375,2.505003045043349,1.0967411980979145,-0.044781391012668606
1772619583009586000,7.2905859375,1.234686172106862,1.3045270394437014,0.23921894435510038
1772619583019616800,7.30061669921875,0.14063012143969536,1.6596047982059419,0.6130946348287165
1772619583029648000,7.31064794921875,-0.6148433781921864,2.058819074206054,1.0036571100786327
1772619583039678700,7.3206787109375,-0.9396054936677217,2.3306764057070017,1.3697402469798923
1772619583049709800,7.330709716796875,-0.835140326064825,2.388514116039127,1.7043689458228646
1772619583059740700,7.34074072265625,-0.3759305771768093,2.2435161547787486,1.7487310885101557
1772619583069771800,7.350771728515625,0.3130933049917221,1.8361884226888416,1.5241305982246993
1772619583079802600,7.360802734375,1.0555372271806,1.3609025682687759,1.125822915675491
1772619583089834000,7.370833984375,1.7710428735613821,0.9221996008366345,0.5374336830362677
1772619583099864800,7.38086474609375,2.451854807701707,0.4598728889718651,-0.11617752496749162
1772619583109896000,7.39089599609375,3.028404403334856,-0.015239362446963787,-0.7405494867444038
1772619583119927000,7.400927001953125,3.3492624971091747,-0.4782020341277122,-1.190924552595988
1772619583129958000,7.4109580078125,3.252398452159762,-0.834774707622826,-1.438467015594989
1772619583139989000,7.420989013671875,2.8060522764980793,-0.8600206464298069,-1.4085723741993308
1772619583150019800,7.431019775390625,2.0159394251614806,-0.5633459767974913,-1.02234471328333
1772619583160051700,7.4410517578125,1.1283236464500426,-0.07105798804163932,-0.6863388078030198
1772619583170082800,7.451082763671875,0.5072931040555239,0.3794127202041447,-0.40773894323930143
1772619583180114000,7.461114013671875,0.26999709058701993,0.7214259763404727,-0.14833280477151273
1772619583190144800,7.471144775390625,0.5660276170969009,0.9879366861164569,0.14665734583996234
1772619583200175900,7.48117578125,1.22562608281672,1.133960044901818,0.4789077712442726
1772619583210206700,7.491206787109375,1.8409838402718304,0.985597721774876,0.7606676342088728
1772619583220238000,7.501238037109375,1.9834762484520672,0.6139784319259226,0.9204625479109585
1772619583230269000,7.51126904296875,1.2582955957531927,0.05727306218668818,1.1481447837293148
1772619583240300000,7.521300048828125,-0.6423609151929617,-0.5147248614914715,1.260654433839023
1772619583250331000,7.531330810546875,-3.65078636033833,-0.8545159115336834,1.0178818155903369
1772619583260362000,7.541362060546875,-7.19625473563671,-0.8905857344329356,0.6186671742640435
1772619583270392800,7.551392822265625,-10.45503675135374,-0.8702559169791638,0.17044767901115118
1772619583280424000,7.561423828125,-12.649926968520878,-0.9019697366259991,0.004332622376829386
1772619583290454800,7.571454833984375,-13.226905018699169,-0.9645363751761614,0.048046164962276816
1772619583300486000,7.58148583984375,-12.076692196524142,-0.8643005157060921,-0.1526774098470807
1772619583310517800,7.591517822265625,-9.931164852941036,-0.6947513199046254,-0.5427490328401327
1772619583320548900,7.601548828125,-7.7248875648409125,-1.1448955726750194,-0.9367543420203029
1772619583330579700,7.611579833984375,-6.385740901306272,-2.433043724247813,-1.1396074762042612
1772619583340611000,7.621611083984375,-6.613045097592472,-3.807565652546286,-1.045891739217937
1772619583350642000,7.631641845703125,-7.944767748606204,-4.067376280161739,-1.0222593730874359
1772619583360673000,7.641673095703125,-8.911828235432505,-3.191909204405546,-1.1976114830140023
1772619583370704000,7.651703857421875,-8.693546719035506,-2.149719242314994,-1.0873518768534063
1772619583380735000,7.66173486328125,-7.130828031480312,-1.250513709705323,-0.6790859871305525
1772619583390765800,7.671765869140625,-4.734864622348547,-0.6277292363155633,-0.07400207866951823
1772619583400797000,7.681796875,-2.300487019148469,-0.22743220658004282,0.8024675982579589
1772619583410827800,7.691827880859375,-0.4365671244472265,-0.05139364875927567,1.6906741824693976
1772619583420859000,7.70185888671875,0.5516869570553302,-0.025873642251268026,2.126213279043138
1772619583430889700,7.7118896484375,0.7452537189126014,-0.04585705742016435,2.090300546401739
1772619583440920800,7.7219208984375,0.7170557984322309,-0.06464585597701371,1.7020774738848208
1772619583450952700,7.73195263671875,1.0406821878761052,-0.05054952608533203,1.135930322061479
1772619583460983800,7.74198388671875,1.731652527937293,-0.03325125834718346,0.4602755149560049
1772619583471015000,7.752014892578125,2.685783390563726,-0.13437873289473354,-0.08270564613956957
1772619583481046000,7.7620458984375,3.827937993967533,-0.2884514695577323,-0.38763822183366864
1772619583491076900,7.772076904296875,4.9186967566549775,-0.2674566123239696,-0.5931508210178464
1772619583501108000,7.78210791015625,5.756893547680973,-0.03974631945490837,-0.6880357479140162
1772619583511138800,7.792138916015625,6.343680459690094,0.25039821775630117,-0.7296111824922263
1772619583521170000,7.802169921875,6.757794344788789,0.46349020268619057,-0.6776697636570781
1772619583531200800,7.81220068359375,6.949176163822412,0.5913898757599294,-0.6073233214182778
1772619583541231900,7.82223193359375,6.903750629687309,0.7200884441263973,-0.44928927990887313
1772619583551263000,7.832262939453125,6.650602967092395,0.9105952338911593,-0.22607662725262342
1772619583561293800,7.8422939453125,6.168966866862774,1.1740616075351833,0.08078267872035502
1772619583571325000,7.852324951171875,5.537317315298319,1.4593522749744354,0.2960428745348006
1772619583581355800,7.862355712890625,4.908087099835276,1.7931918692663311,0.40427075567208226
1772619583591387600,7.8723876953125,4.369618520793319,2.088454918535054,0.41832386747654526
1772619583601419000,7.8824189453125,4.094204081332683,2.3017995630517603,0.41896764527279884
1772619583611449900,7.892449951171875,3.972971903324127,2.5554803096100684,0.2852204517472535
1772619583621481000,7.90248095703125,3.800048116523027,2.8060098986610766,0.03902567703016102
1772619583631511800,7.91251171875,3.4085739332556724,2.7582047759130597,0.010561543361656368
1772619583641543000,7.92254296875,2.848412577843666,2.453318158252537,0.0961279492272064
1772619583651574000,7.932573974609375,2.005918381884694,2.215634899032116,0.2525484728590585
1772619583661604900,7.94260498046875,0.7907733610719442,2.072748815359175,0.4523823140207678
1772619583671636000,7.952635986328125,-0.3936526963502168,1.8518807896003127,0.6182170924089848
1772619583681666600,7.96266650390625,-0.9420721760421991,1.6065204198807477,0.47250188625734296
1772619583691697700,7.97269775390625,-0.8866133236706256,1.2292568405345081,0.2517686658592895
1772619583701728500,7.982728515625,-0.3836977040469646,0.5724713864088058,0.480847324472107
1772619583711759600,7.992759521484375,0.32540742764174935,-0.19641718285232782,0.9430671053636819
1772619583721791500,8.00279150390625,0.7279629768937825,-1.058336502510309,1.823815263327956
1772619583731822800,8.01282275390625,1.2379530649483204,-2.0241382214471697,2.6950930707007643
1772619583741853700,8.022853759765624,2.925198295882344,-2.5958672650560737,2.1895459335297347
1772619583751884800,8.032884765625,5.021089794158935,-2.823798068808019,0.41719519224017854
1772619583761915600,8.04291552734375,5.928706742891669,-3.301372326426208,-1.1627100463069975
1772619583771946800,8.05294677734375,4.312530021393298,-3.1986002264767883,-2.2065324319049715
1772619583781977600,8.0629775390625,-0.10320318484306334,-1.930227181084454,-2.377077360745519
1772619583792008700,8.0730087890625,-5.318391071256995,-0.13179711890369653,-1.8112743461847305
1772619583802039600,8.08303955078125,-8.790479737567901,1.4204326156020164,-0.5018542009372264
1772619583812070700,8.093070556640624,-9.6025261882931,2.477481416389346,1.0475583572559057
1772619583822101500,8.1031015625,-8.472603874474764,3.063843088723719,1.9896474844329057
1772619583832132600,8.113132568359376,-6.279191328644752,3.1369048178032037,2.5646488277107475
1772619583842163500,8.12316357421875,-3.5985727734982964,2.5374080618247388,2.9602979585751887
1772619583852194600,8.133194580078126,-1.4179250166952608,1.6845877021625637,2.534285838150978
1772619583862225400,8.143225341796875,-0.025465280646085737,0.9042316902086138,1.3482916546292603
1772619583872257800,8.1532578125,0.5584925454169511,0.08061696676462889,0.28611718139126896
1772619583882288600,8.16328857421875,0.43616438886523246,-0.5472501436516642,-0.4229918958202004
1772619583892319700,8.17331982421875,0.21522855856716633,-0.8712509193658828,-1.0014383380506187
1772619583902350600,8.1833505859375,0.21194529911279678,-1.0507000162824989,-1.290352822010219
1772619583912381700,8.193381591796875,-0.016193594431877137,-1.0668214222609995,-1.309913262526691
1772619583922412500,8.20341259765625,0.13556290117800235,-1.3171505203038454,-0.9504241170629858
1772619583932443600,8.213443603515625,0.5030436299175024,-1.2526830165684222,-0.4208754881881177
1772619583942474500,8.223474609375,0.644555210366845,-0.9936237918421625,-0.5232788278903812
1772619583952505600,8.233505615234375,0.8362988484501839,-0.7833005409732461,-0.4348335055876523
1772619583962536400,8.243536376953125,1.4065999050825833,-0.33274902257621286,0.08770378322042524
