time,seconds_elapsed,z,y,x
1772619575797247000,0.0782470703125,-0.11410336196422577,0.04868253692984581,0.037830863147974014
1772619575807277800,0.08827783203125,-0.13194535672664642,0.016574125736951828,0.08061841130256653
1772619575817310000,0.09831005859375,-0.13570839166641235,0.01947697252035141,0.12650175392627716
1772619575827340800,0.1083408203125,-0.12875401973724365,0.036094944924116135,0.16486558318138123
1772619575837372000,0.118371826171875,-0.12132459878921509,0.05085711181163788,0.18160781264305115
1772619575847402800,0.12840283203125,-0.11884960532188416,0.05920474976301193,0.17398840188980103
1772619575857433900,0.138433837890625,-0.13712315261363983,0.048393916338682175,0.15008732676506042
1772619575867464700,0.148464599609375,-0.16819079220294952,0.01526791974902153,0.09853971749544144
1772619575877495800,0.158495849609375,-0.20427502691745758,-0.03427246958017349,0.03958505019545555
1772619575887526700,0.168526611328125,-0.23487554490566254,-0.09515446424484253,-0.011463485658168793
1772619575897558000,0.17855810546875,-0.25375601649284363,-0.15070295333862305,-0.048148263245821
1772619575907588900,0.1885888671875,-0.25364670157432556,-0.18180622160434723,-0.0651034265756607
1772619575917620000,0.198619873046875,-0.24000385403633118,-0.1885533481836319,-0.061379265040159225
1772619575927650800,0.20865087890625,-0.22236143052577972,-0.17480389773845673,-0.04621685668826103
1772619575937682000,0.218681884765625,-0.20111951231956482,-0.142744243144989,-0.022632168605923653
1772619575947713000,0.228713134765625,-0.17516304552555084,-0.10071881115436554,-0.0016198053490370512
1772619575957743900,0.238743896484375,-0.15445376932621002,-0.059659525752067566,0.004916657228022814
1772619575967775700,0.248775634765625,-0.12880873680114746,-0.02315007895231247,-0.008018680848181248
1772619575977806800,0.258806884765625,-0.10940814763307571,0.014180248603224754,-0.0422525517642498
1772619575987837700,0.268837646484375,-0.08961708843708038,0.04188130050897598,-0.09471343457698822
1772619575997868800,0.278868896484375,-0.07191772013902664,0.048087529838085175,-0.15173038840293884
1772619576007899600,0.288899658203125,-0.059011589735746384,0.04584361985325813,-0.20327071845531464
1772619576017930800,0.2989306640625,-0.05749624967575073,0.03374301642179489,-0.24827174842357635
1772619576027961900,0.3089619140625,-0.06543359905481339,0.03647397831082344,-0.27879205346107483
1772619576037993000,0.318992919921875,-0.07653099298477173,0.0483173206448555,-0.29899266362190247
1772619576048024000,0.329024169921875,-0.08436132967472076,0.07337608188390732,-0.3262808918952942
1772619576058055000,0.339054931640625,-0.09341342002153397,0.07411963492631912,-0.3571442663669586
1772619576068086000,0.3490859375,-0.10041841119527817,0.04379591718316078,-0.4057937264442444
1772619576078116900,0.359116943359375,-0.10590612143278122,-0.02101343870162964,-0.4816003441810608
1772619576088148000,0.36914794921875,-0.10712208598852158,-0.10247863829135895,-0.5746813416481018
1772619576098178800,0.3791787109375,-0.12418922036886215,-0.16911491751670837,-0.6781318187713623
1772619576108210700,0.389210693359375,-0.14026287198066711,-0.21454401314258575,-0.7885252237319946
1772619576118241800,0.39924169921875,-0.1593066155910492,-0.24269922077655792,-0.8788695335388184
1772619576128273000,0.40927294921875,-0.18314138054847717,-0.24747343361377716,-0.9329615831375122
1772619576138303700,0.4193037109375,-0.22522172331809998,-0.23415522277355194,-0.9464848041534424
1772619576148335000,0.429335205078125,-0.2748852074146271,-0.2003028839826584,-0.9355021715164185
1772619576158366000,0.439365966796875,-0.3157418370246887,-0.13722430169582367,-0.9051564931869507
1772619576168397000,0.44939697265625,-0.3406223654747009,-0.03624138608574867,-0.847305178642273
1772619576178428000,0.459427978515625,-0.34219762682914734,0.11314623802900314,-0.7575638890266418
1772619576188459000,0.469458984375,-0.3325275182723999,0.29651153087615967,-0.6488772630691528
1772619576198489900,0.47948974609375,-0.31370723247528076,0.4802755117416382,-0.5375970602035522
1772619576208521000,0.48952099609375,-0.28492873907089233,0.6406481266021729,-0.4363698661327362
1772619576218551800,0.4995517578125,-0.26335659623146057,0.762798547744751,-0.36205142736434937
1772619576228583000,0.5095830078125,-0.24791313707828522,0.8255640268325806,-0.33177241683006287
1772619576238614800,0.51961474609375,-0.23669885098934174,0.8034408688545227,-0.33381080627441406
1772619576248646000,0.52964599609375,-0.24294352531433105,0.677787184715271,-0.33662939071655273
1772619576258676700,0.5396767578125,-0.2565307021141052,0.4074230194091797,-0.32661163806915283
1772619576268707800,0.549707763671875,-0.26175251603126526,0.031443532556295395,-0.2487870156764984
1772619576278739000,0.559739013671875,-0.23595765233039856,-0.2914615571498871,-0.061637092381715775
1772619576288770000,0.56977001953125,-0.14908212423324585,-0.4452880620956421,0.23663583397865295
1772619576298801000,0.57980078125,-0.0024886932224035263,-0.4180194139480591,0.5879451632499695
1772619576308832000,0.58983203125,0.1629984825849533,-0.18174368143081665,0.9057671427726746
1772619576318862800,0.59986279296875,0.32948732376098633,0.14221708476543427,1.082227110862732
1772619576328894000,0.60989404296875,0.4291590452194214,0.3718806505203247,0.9917416572570801
1772619576338924800,0.6199248046875,0.3412601053714752,0.31993091106414795,0.5459471344947815
1772619576348956000,0.629955810546875,0.02574671059846878,-0.060282815247774124,-0.17425957322120667
1772619576358986800,0.63998681640625,-0.41058188676834106,-0.5215034484863281,-0.9372248649597168
1772619576369017900,0.650017822265625,-0.7941375374794006,-0.7511342763900757,-1.513433575630188
1772619576379049700,0.6600498046875,-1.025946021080017,-0.5652989149093628,-1.857431411743164
1772619576389080800,0.670080810546875,-1.091572642326355,-0.10943873971700668,-2.048671245574951
1772619576399111700,0.680111572265625,-1.0163025856018066,0.30769243836402893,-2.1197452545166016
1772619576409143000,0.69014306640625,-0.8518067002296448,0.6275783777236938,-2.0484471321105957
1772619576419174000,0.700173828125,-0.6562526226043701,0.8474383354187012,-1.8726834058761597
1772619576429205000,0.710205078125,-0.48767030239105225,0.9400308132171631,-1.6593942642211914
1772619576439235800,0.72023583984375,-0.4033953845500946,0.8834125399589539,-1.4433751106262207
1772619576449267000,0.730266845703125,-0.360027551651001,0.5769485831260681,-1.2653679847717285
1772619576459297800,0.7402978515625,-0.2997780442237854,-0.06513658165931702,-1.1249756813049316
1772619576469329000,0.750328857421875,-0.2123497873544693,-0.8538933992385864,-0.8872463703155518
1772619576479359700,0.76035986328125,-0.07936164736747742,-1.5699244737625122,-0.545768678188324
1772619576489390800,0.770390869140625,0.08631839603185654,-2.060427188873291,-0.10658115893602371
1772619576499422000,0.780421875,0.25053930282592773,-2.299572467803955,0.39994171261787415
1772619576509453800,0.790453857421875,0.370165079832077,-2.2461557388305664,0.9217832684516907
1772619576519484700,0.800484619140625,0.456058144569397,-1.9379369020462036,1.3981001377105713
1772619576529516000,0.81051611328125,0.5302128791809082,-1.4409204721450806,1.7844295501708984
1772619576539547000,0.820546875,0.5987610816955566,-0.8259435892105103,2.0410759449005127
1772619576549578000,0.830577880859375,0.642487645149231,-0.19879382848739624,2.145498752593994
1772619576559608800,0.84060888671875,0.6627756357192993,0.30241310596466064,2.08286714553833
1772619576569640000,0.850639892578125,0.6712630987167358,0.5454397201538086,1.8402386903762817
1772619576579670800,0.8606708984375,0.6378912925720215,0.5314578413963318,1.4617080688476562
1772619576589702000,0.870701904296875,0.5514587163925171,0.3729156255722046,1.0344873666763306
1772619576599733000,0.88073291015625,0.40560513734817505,0.19015724956989288,0.6582642197608948
1772619576609763800,0.890763916015625,0.2191043496131897,0.014393377117812634,0.3596627712249756
1772619576619795000,0.900794921875,0.024348445236682892,-0.1458684653043747,0.15076760947704315
1772619576629825800,0.91082568359375,-0.13066186010837555,-0.2147902101278305,0.05337737873196602
1772619576639857700,0.920857666015625,-0.2419404536485672,-0.10848800837993622,0.07379982620477676
1772619576649888800,0.930888671875,-0.3278958797454834,0.1299377828836441,0.19470259547233582
1772619576659920000,0.940919921875,-0.38919705152511597,0.4113665521144867,0.38102397322654724
1772619576669951000,0.950950927734375,-0.42700162529945374,0.6703023910522461,0.5942150354385376
1772619576679981800,0.96098193359375,-0.44172200560569763,0.8707699775695801,0.792193591594696
1772619576690013000,0.971012939453125,-0.43871450424194336,0.9747119545936584,0.9587110280990601
1772619576700044000,0.9810439453125,-0.4117918312549591,0.987065851688385,1.0602327585220337
1772619576710075000,0.991074951171875,-0.36498305201530457,0.8943953514099121,1.0644100904464722
1772619576720106000,1.00110595703125,-0.30981993675231934,0.7183513045310974,0.9849399328231812
1772619576730136800,1.01113671875,-0.2443515509366989,0.5112588405609131,0.864544689655304
1772619576740168000,1.02116796875,-0.161089688539505,0.34917327761650085,0.7510308623313904
1772619576750198800,1.03119873046875,-0.05127629637718201,0.24609553813934326,0.6908454895019531
1772619576760230000,1.04122998046875,0.0892491266131401,0.13790887594223022,0.6636871099472046
1772619576770260700,1.0512607421875,0.2415483146905899,-0.09137478470802307,0.6449923515319824
1772619576780292900,1.06129296875,0.3592669665813446,-0.4757448434829712,0.6916333436965942
1772619576790324000,1.071323974609375,0.3581957221031189,-0.9069159030914307,0.8680383563041687
1772619576800355000,1.08135498046875,0.2523619830608368,-1.137900948524475,1.1759666204452515
1772619576810386000,1.091385986328125,0.12494228780269623,-1.147642731666565,1.4629058837890625
1772619576820417000,1.1014169921875,0.04558435082435608,-1.2150944471359253,1.568692684173584
1772619576830447900,1.11144775390625,0.05212855339050293,-1.3608901500701904,1.3353527784347534
1772619576840479000,1.12147900390625,0.014780916273593903,-1.457743763923645,0.6675461530685425
1772619576850509800,1.131509765625,-0.17728400230407715,-1.6017757654190063,-0.5085490345954895
1772619576860541000,1.141541015625,-0.43052583932876587,-1.7431875467300415,-1.9122365713119507
1772619576870571800,1.15157177734375,-0.6767821907997131,-1.8335037231445312,-3.0717480182647705
1772619576880603000,1.161602783203125,-0.8857042193412781,-1.834545612335205,-3.634411573410034
1772619576890633700,1.1716337890625,-0.9258617162704468,-1.595205545425415,-3.470205545425415
1772619576900664800,1.181664794921875,-0.6633217334747314,-1.1249935626983643,-2.7698028087615967
1772619576910696700,1.19169677734375,-0.11540255695581436,-0.47968146204948425,-1.8204416036605835
1772619576920728000,1.20172802734375,0.3905287981033325,0.3320803940296173,-0.8200522661209106
1772619576930759000,1.211759033203125,0.739215612411499,1.0245850086212158,0.06393532454967499
1772619576940790000,1.2217900390625,0.9640588760375977,1.352584719657898,0.7073915004730225
1772619576950820900,1.23182080078125,1.0701477527618408,1.2888245582580566,1.0298519134521484
1772619576960852000,1.24185205078125,1.0635322332382202,0.9521397352218628,1.0356918573379517
1772619576970882800,1.2518828125,0.970197856426239,0.5856192111968994,0.8237025141716003
1772619576980914000,1.261913818359375,0.8402787446975708,0.377802312374115,0.5441135168075562
1772619576990944800,1.27194482421875,0.693637490272522,0.29630666971206665,0.2508751153945923
1772619577000976000,1.281975830078125,0.5696593523025513,0.2987959086894989,0.0037508178502321243
1772619577011006700,1.2920068359375,0.46163877844810486,0.3377278745174408,-0.17764443159103394
1772619577021037800,1.302037841796875,0.3660273253917694,0.35306981205940247,-0.29357874393463135
1772619577031069000,1.31206884765625,0.29481691122055054,0.3414507210254669,-0.3561362624168396
1772619577041099800,1.322099853515625,0.24272413551807404,0.30719926953315735,-0.3660392165184021
1772619577051132000,1.3321318359375,0.21257862448692322,0.2641381323337555,-0.33019936084747314
1772619577061163000,1.3421630859375,0.19009222090244293,0.20758536458015442,-0.25974568724632263
1772619577071193900,1.35219384765625,0.15585125982761383,0.1688232272863388,-0.15020865201950073
1772619577081225000,1.362224853515625,0.09915949404239655,0.1704714596271515,-0.00707811675965786
1772619577091255800,1.372255859375,0.023501049727201462,0.242587149143219,0.14443913102149963
1772619577101287000,1.382286865234375,-0.06556863337755203,0.32830578088760376,0.2644987106323242
1772619577111317800,1.39231787109375,-0.12639814615249634,0.3842966556549072,0.3228498697280884
1772619577121348900,1.402348876953125,-0.13009966909885406,0.446472704410553,0.3521275818347931
1772619577131380000,1.4123798828125,-0.08171999454498291,0.5161290764808655,0.38921886682510376
1772619577141410800,1.422410888671875,-0.017595868557691574,0.561590850353241,0.4333232045173645
1772619577151442000,1.43244189453125,0.0400114506483078,0.5287794470787048,0.4320486783981323
1772619577161472800,1.44247265625,0.044311389327049255,0.37342873215675354,0.30421721935272217
1772619577171503900,1.45250390625,-0.06324083358049393,0.07376552373170853,0.041938118636608124
1772619577181534700,1.46253466796875,-0.2678088843822479,-0.321085661649704,-0.24888812005519867
1772619577191566800,1.47256689453125,-0.5203127861022949,-0.7109963297843933,-0.42354732751846313
1772619577201598000,1.482597900390625,-0.7241407632827759,-1.0370151996612549,-0.31351616978645325
1772619577211628800,1.49262890625,-0.8004550337791443,-1.1441699266433716,0.11916376650333405
1772619577221660000,1.502659912109375,-0.7488475441932678,-0.8625762462615967,0.7240800261497498
1772619577231691000,1.51269091796875,-0.6174817681312561,-0.15383344888687134,1.3409909009933472
1772619577241721900,1.522721923828125,-0.44129717350006104,0.6298328042030334,1.6970360279083252
1772619577251753000,1.5327529296875,-0.1956426054239273,1.076711893081665,1.572426199913025
1772619577261783800,1.54278369140625,0.020923517644405365,1.3387656211853027,1.0929869413375854
1772619577271815000,1.55281494140625,0.08929949998855591,1.3797588348388672,0.42407768964767456
1772619577281845800,1.562845703125,0.006409680470824242,1.1344622373580933,-0.2623893618583679
1772619577291876900,1.572876953125,-0.16764575242996216,0.7385146021842957,-0.725795328617096
1772619577301907700,1.58290771484375,-0.36319127678871155,0.2322407215833664,-0.841008722782135
1772619577311938800,1.592938720703125,-0.4878574013710022,-0.2461979240179062,-0.6107978224754333
1772619577321969700,1.6029697265625,-0.4619198143482208,-0.49719899892807007,-0.14158613979816437
1772619577332002000,1.613001953125,-0.2821275293827057,-0.5144925117492676,0.33488360047340393
1772619577342033000,1.623032958984375,0.006901855114847422,-0.5266785621643066,0.6102936267852783
1772619577352064000,1.63306396484375,0.2991720139980316,-0.6156687140464783,0.623966634273529
1772619577362094800,1.6430947265625,0.5014428496360779,-0.6880819201469421,0.4632032811641693
1772619577372126000,1.6531259765625,0.6172792315483093,-0.720076858997345,0.21407996118068695
1772619577382156800,1.66315673828125,0.6426404714584351,-0.7891432642936707,-0.08211067318916321
1772619577392188000,1.67318798828125,0.5654786825180054,-0.9996845722198486,-0.37747475504875183
1772619577402218800,1.68321875,0.41757601499557495,-1.3854244947433472,-0.6348916888237
1772619577412249900,1.693249755859375,0.3004275858402252,-1.7890870571136475,-0.8163909316062927
1772619577422280700,1.70328076171875,0.267118364572525,-2.0568692684173584,-0.8785328269004822
1772619577432311800,1.713311767578125,0.32951077818870544,-2.215564727783203,-0.7686504125595093
1772619577442342700,1.7233427734375,0.4703344702720642,-2.3394899368286133,-0.49448227882385254
1772619577452374000,1.7333740234375,0.6508259773254395,-2.4824702739715576,-0.06370262056589127
1772619577462404900,1.74340478515625,0.8209026455879211,-2.703725814819336,0.45849665999412537
1772619577472437000,1.75343701171875,0.9378447532653809,-2.9984130859375,0.9782074093818665
1772619577482467800,1.7634677734375,0.9452959895133972,-3.229085683822632,1.4714951515197754
1772619577492499000,1.7734990234375,0.8445799350738525,-3.266874313354492,1.8900290727615356
1772619577502529800,1.78352978515625,0.6902194023132324,-3.0188212394714355,2.1154277324676514
1772619577512561000,1.793560791015625,0.5379980206489563,-2.4827592372894287,2.0974464416503906
1772619577522591700,1.803591796875,0.4208471477031708,-1.8314540386199951,1.7814910411834717
1772619577532622800,1.813622802734375,0.39141032099723816,-1.1017465591430664,1.251678228378296
1772619577542653700,1.82365380859375,0.4383546710014343,-0.2327098846435547,0.7005090713500977
1772619577552684800,1.833684814453125,0.5340462923049927,0.5662711262702942,0.16150736808776855
1772619577562715600,1.843715576171875,0.6492474675178528,1.1397908926010132,-0.3203152120113373
1772619577572746800,1.853746826171875,0.7307428121566772,1.3847084045410156,-0.6855969429016113
1772619577582777900,1.86377783203125,0.796206533908844,1.4630825519561768,-0.9450770020484924
1772619577592809000,1.87380908203125,0.8443537354469299,1.415200114250183,-1.1446577310562134
1772619577602840000,1.883840087890625,0.861230731010437,1.290190577507019,-1.2874457836151123
1772619577612871000,1.893870849609375,0.8040226697921753,1.1514613628387451,-1.3519366979599
1772619577622902800,1.90390283203125,0.6772447228431702,1.0023845434188843,-1.3593170642852783
1772619577632934000,1.913933837890625,0.5203572511672974,0.9447793364524841,-1.3293389081954956
1772619577642964700,1.92396484375,0.36922338604927063,1.0195263624191284,-1.2598702907562256
1772619577652995800,1.933995849609375,0.25702834129333496,1.1906954050064087,-1.1545398235321045
1772619577663026700,1.944026611328125,0.1706191450357437,1.4097944498062134,-1.0013580322265625
1772619577673057800,1.954057861328125,0.10699604451656342,1.6814380884170532,-0.8004116415977478
1772619577683088400,1.96408837890625,0.06556897610425949,1.9652551412582397,-0.5660699605941772
1772619577693119200,1.974119140625,0.017484374344348907,2.175914764404297,-0.338283509016037
1772619577703150300,1.984150390625,-0.04572229087352753,2.2049121856689453,-0.1675969958305359
1772619577713181200,1.99418115234375,-0.11231453716754913,2.0276436805725098,-0.04801531508564949
1772619577723212300,2.00421240234375,-0.17185749113559723,1.7180399894714355,0.05224497616291046
1772619577733243100,2.0142431640625,-0.19272775948047638,1.3855632543563843,0.2071761041879654
1772619577743274200,2.024274169921875,-0.1925719529390335,1.0674904584884644,0.4239158630371094
1772619577753305000,2.03430517578125,-0.20252625644207,0.7407574653625488,0.6851322054862976
1772619577763337200,2.044337158203125,-0.18992285430431366,0.37409132719039917,1.0153274536132812
1772619577773368000,2.0543681640625,-0.17990003526210785,0.0855085700750351,1.3864368200302124
1772619577783399400,2.0643994140625,-0.2322777509689331,0.09284211695194244,1.6962759494781494
1772619577793430300,2.07443017578125,-0.2517470121383667,0.2688451111316681,1.7924764156341553
1772619577803461400,2.08446142578125,-0.1324976086616516,0.3635663092136383,1.5798062086105347
1772619577813492200,2.0944921875,0.03806266188621521,0.5470764636993408,1.1866371631622314
1772619577823523300,2.1045234375,-0.0035143448039889336,0.6177642345428467,0.516972005367279
1772619577833554200,2.11455419921875,-0.2796340584754944,0.3946305215358734,-0.5338259339332581
1772619577843585300,2.124585205078125,-0.6604791283607483,0.030529800802469254,-1.8109493255615234
1772619577853616000,2.1346162109375,-1.0346266031265259,-0.3826806843280792,-2.9861483573913574
1772619577863647200,2.144647216796875,-1.3513622283935547,-0.727634608745575,-3.7176661491394043
1772619577873678000,2.154677978515625,-1.5508217811584473,-1.0400242805480957,-3.7776038646698
1772619577883709200,2.164709228515625,-1.5170427560806274,-1.174917459487915,-3.140881061553955
1772619577893740300,2.174740234375,-1.2027010917663574,-1.2283624410629272,-2.1401615142822266
1772619577903772400,2.1847724609375,-0.7215542197227478,-0.9362788796424866,-0.9801394939422607
1772619577913803300,2.19480322265625,-0.30599161982536316,-0.27862969040870667,0.11853456497192383
1772619577923834400,2.20483447265625,-0.0038938219659030437,0.5200358033180237,1.004013180732727
1772619577933865200,2.214865234375,0.2469387948513031,1.1123470067977905,1.5305856466293335
1772619577943896300,2.224896240234375,0.44296929240226746,1.0966259241104126,1.4567880630493164
1772619577953927200,2.23492724609375,0.5911991000175476,0.9713732004165649,1.0361511707305908
1772619577963958300,2.244958251953125,0.5182665586471558,1.1705294847488403,0.6089400053024292
1772619577973989400,2.2549892578125,0.3641773462295532,1.330687403678894,0.13685768842697144
1772619577984020200,2.265020263671875,0.21925532817840576,1.4617724418640137,-0.24435757100582123
1772619577994051300,2.27505126953125,0.07389530539512634,1.5422731637954712,-0.49643492698669434
1772619578004082200,2.285082275390625,-0.06982351094484329,1.479190707206726,-0.6119285225868225
1772619578014113300,2.29511328125,-0.19650688767433167,1.2913192510604858,-0.6252243518829346
1772619578024144100,2.30514404296875,-0.2889406681060791,1.0673072338104248,-0.5416412949562073
1772619578034175200,2.31517529296875,-0.34005266427993774,0.8578157424926758,-0.41398608684539795
1772619578044206000,2.3252060546875,-0.35964977741241455,0.6791698336601257,-0.25091275572776794
1772619578054238200,2.33523828125,-0.35532891750335693,0.5595172047615051,-0.06534995138645172
1772619578064269300,2.345269287109375,-0.35275977849960327,0.5027748346328735,0.10893289744853973
1772619578074300400,2.355300537109375,-0.3529055714607239,0.4778498411178589,0.2335098534822464
1772619578084331300,2.365331298828125,-0.33608531951904297,0.47843968868255615,0.2839761972427368
1772619578094362400,2.3753623046875,-0.31650790572166443,0.48116809129714966,0.27407166361808777
1772619578104393200,2.385393310546875,-0.2951970398426056,0.48212602734565735,0.2363796830177307
1772619578114424300,2.39542431640625,-0.2714400291442871,0.4704621732234955,0.2161519080400467
1772619578124455200,2.405455078125,-0.23988518118858337,0.4602659046649933,0.22965963184833527
1772619578134486300,2.415486328125,-0.21139338612556458,0.47425150871276855,0.2921139597892761
1772619578144517000,2.42551708984375,-0.20172157883644104,0.47120803594589233,0.3732975125312805
1772619578154548200,2.43554833984375,-0.22063186764717102,0.4221838116645813,0.4485381841659546
1772619578164579000,2.4455791015625,-0.266321063041687,0.3389536440372467,0.5093080401420593
1772619578174610200,2.455610107421875,-0.3515702486038208,0.21177665889263153,0.5714468359947205
1772619578184641000,2.46564111328125,-0.4519815146923065,0.07970304042100906,0.6400544047355652
1772619578194673400,2.47567333984375,-0.5527119040489197,-0.0008057989180088043,0.7072795629501343
1772619578204704300,2.485704345703125,-0.6266029477119446,-0.07114547491073608,0.7535706758499146
1772619578214735400,2.4957353515625,-0.6368126273155212,-0.12225163727998734,0.7700760364532471
1772619578224766200,2.50576611328125,-0.5752331614494324,-0.13262678682804108,0.7538427114486694
1772619578234797300,2.51579736328125,-0.4688270092010498,-0.09071540832519531,0.6908797025680542
1772619578244828200,2.525828125,-0.35688236355781555,0.0034169498831033707,0.6186225414276123
1772619578254859300,2.535859375,-0.2698168456554413,0.1604396104812622,0.5265827775001526
1772619578264890000,2.54589013671875,-0.21708783507347107,0.33700451254844666,0.4094092547893524
1772619578274921200,2.555921142578125,-0.18327447772026062,0.5159348249435425,0.2607412040233612
1772619578284952000,2.5659521484375,-0.17289453744888306,0.5960030555725098,0.06325424462556839
1772619578294983200,2.575983154296875,-0.1930878758430481,0.5567637085914612,-0.21225756406784058
1772619578305014000,2.586013916015625,-0.2365642488002777,0.4185389280319214,-0.5384079813957214
1772619578315045400,2.59604541015625,-0.29565683007240295,0.22724440693855286,-0.8642170429229736
1772619578325076200,2.606076171875,-0.351579487323761,0.031364113092422485,-1.1270184516906738
1772619578335108400,2.6161083984375,-0.386002779006958,-0.13918669521808624,-1.2805083990097046
1772619578345139200,2.62613916015625,-0.3813142776489258,-0.2663017511367798,-1.3138169050216675
1772619578355170300,2.63617041015625,-0.321553111076355,-0.35393843054771423,-1.2331202030181885
1772619578365201200,2.646201171875,-0.20430317521095276,-0.4580232799053192,-1.0866978168487549
1772619578375232300,2.656232177734375,-0.09519149363040924,-0.6083868145942688,-0.9325053691864014
1772619578385263000,2.66626318359375,-0.036478910595178604,-0.7994241118431091,-0.8426218628883362
1772619578395294200,2.676294189453125,-0.01857127994298935,-1.0124207735061646,-0.8409630060195923
1772619578405325000,2.686324951171875,0.018473556265234947,-1.2580385208129883,-0.8713738918304443
1772619578415356200,2.696356201171875,0.10780727863311768,-1.4261963367462158,-0.819066047668457
1772619578425387300,2.70638720703125,0.2552817165851593,-1.509260892868042,-0.6591061949729919
1772619578435418000,2.716418212890625,0.439230740070343,-1.5041061639785767,-0.4116330146789551
1772619578445449500,2.726449462890625,0.6266080737113953,-1.4045337438583374,-0.09600821882486343
1772619578455480300,2.736480224609375,0.7605721950531006,-1.2122303247451782,0.23811468482017517
1772619578465511400,2.746511474609375,0.8215524554252625,-0.9317511320114136,0.5151787996292114
1772619578475542300,2.756542236328125,0.835930347442627,-0.5788666009902954,0.6904121041297913
1772619578485574100,2.76657421875,0.7999422550201416,-0.2125120460987091,0.7302101254463196
1772619578495605200,2.776605224609375,0.7318437695503235,0.11845707893371582,0.6480700969696045
1772619578505636000,2.786635986328125,0.6350599527359009,0.3633672297000885,0.46471014618873596
1772619578515667200,2.796667236328125,0.5365052819252014,0.49707117676734924,0.2321993112564087
1772619578525698300,2.8066982421875,0.42846107482910156,0.5062036514282227,0.0002595649566501379
1772619578535729200,2.816729248046875,0.31544023752212524,0.4074046015739441,-0.19880343973636627
1772619578545760300,2.82676025390625,0.20584768056869507,0.23279975354671478,-0.3318009078502655
1772619578555791000,2.836791015625,0.11617065966129303,0.03025626763701439,-0.3848075270652771
1772619578565822200,2.846822265625,0.051147982478141785,-0.11404045671224594,-0.3669433295726776
1772619578575853300,2.856853271484375,-0.004336765501648188,-0.15248727798461914,-0.26345351338386536
1772619578585884400,2.866884521484375,-0.037992194294929504,-0.11177101731300354,-0.09285460412502289
1772619578595915300,2.876915283203125,-0.0549817755818367,0.006799656432121992,0.12740129232406616
1772619578605946400,2.8869462890625,-0.05897970870137215,0.16309817135334015,0.3558001220226288
1772619578615977200,2.896977294921875,-0.060581501573324203,0.28524458408355713,0.5445499420166016
1772619578626009300,2.90700927734375,-0.05374756455421448,0.3336547017097473,0.6651937961578369
1772619578636040200,2.917040283203125,-0.047149479389190674,0.3154497742652893,0.7117220163345337
1772619578646071300,2.9270712890625,-0.02937394566833973,0.2670665383338928,0.703623354434967
1772619578656102100,2.93710205078125,-0.004820399452000856,0.2106701284646988,0.6609249114990234
1772619578666133200,2.94713330078125,0.03350275382399559,0.12384360283613205,0.6019459962844849
1772619578676164900,2.957164794921875,0.060757115483284,-0.0036161355674266815,0.5402071475982666
1772619578686196000,2.967196044921875,0.06868241727352142,-0.15712659060955048,0.49993112683296204
1772619578696226800,2.977226806640625,0.06784040480852127,-0.2990715801715851,0.5278494954109192
1772619578706258000,2.9872578125,0.04905473440885544,-0.3646159768104553,0.6145215034484863
1772619578716288800,2.997288818359375,0.004001140128821135,-0.30456000566482544,0.6778918504714966
1772619578726319900,3.00731982421875,-0.06361598521471024,-0.2202022522687912,0.6329427361488342
1772619578736350700,3.017350830078125,-0.11716955155134201,-0.2295682430267334,0.43925803899765015
1772619578746381800,3.0273818359375,-0.14797966182231903,-0.3768141567707062,0.1575741469860077
1772619578756412700,3.03741259765625,-0.198263019323349,-0.6011104583740234,-0.1129346489906311
1772619578766444000,3.047444091796875,-0.25131848454475403,-0.8092042803764343,-0.30349501967430115
1772619578776476000,3.057475830078125,-0.25666019320487976,-0.7410014271736145,-0.3368982970714569
1772619578786507000,3.067507080078125,-0.20197753608226776,-0.2488260567188263,-0.3192093074321747
1772619578796537900,3.077537841796875,-0.1945277452468872,0.24140647053718567,-0.6011953353881836
1772619578806569000,3.08756884765625,-0.30968043208122253,0.3985598385334015,-1.3069324493408203
1772619578816599800,3.097599853515625,-0.5568339228630066,0.2952560484409332,-2.1972994804382324
1772619578826631000,3.107630859375,-0.8750728368759155,0.03498398885130882,-2.9120264053344727
1772619578836661800,3.117661865234375,-1.0430086851119995,-0.05959005653858185,-3.0931284427642822
1772619578846692900,3.12769287109375,-0.8998662233352661,0.16245180368423462,-2.6975882053375244
1772619578856723700,3.1377236328125,-0.46791544556617737,0.5422787666320801,-1.9256709814071655
1772619578866754800,3.1477548828125,0.11375328153371811,0.9282323122024536,-1.0481908321380615
1772619578876785700,3.15778564453125,0.6163727045059204,1.144743800163269,-0.2986049950122833
1772619578886817000,3.167817138671875,0.938056468963623,1.0809887647628784,0.18020795285701752
1772619578896848000,3.177847900390625,1.0369130373001099,0.6326730847358704,0.2923469841480255
1772619578906879000,3.18787890625,0.9038745760917664,-0.11315609514713287,0.13960300385951996
1772619578916909800,3.197909912109375,0.6054487228393555,-0.8568336367607117,-0.06693235784769058
1772619578926942000,3.20794189453125,0.2597304880619049,-1.3999507427215576,-0.23365075886249542
1772619578936972800,3.217972900390625,0.013760874047875404,-1.549277424812317,-0.32918789982795715
1772619578947004000,3.22800390625,-0.1320924609899521,-1.3101894855499268,-0.35831570625305176
1772619578957034800,3.23803466796875,-0.19103240966796875,-0.7791668176651001,-0.3579663634300232
1772619578967065900,3.24806591796875,-0.16753587126731873,-0.08776488900184631,-0.33550313115119934
1772619578977096700,3.2580966796875,-0.11021948605775833,0.5949204564094543,-0.29935720562934875
1772619578987127800,3.2681279296875,-0.0563109815120697,1.0917352437973022,-0.2457166165113449
1772619578997158700,3.27815869140625,-0.012108526192605495,1.3563551902770996,-0.18076540529727936
1772619579007189800,3.288189697265625,0.0056840525940060616,1.4360747337341309,-0.0930510014295578
1772619579017220900,3.298220947265625,0.00018331222236156464,1.3694692850112915,0.007485171779990196
1772619579027252000,3.308251953125,-0.026272263377904892,1.1722151041030884,0.10764746367931366
1772619579037282800,3.31828271484375,-0.05541028454899788,0.9140670299530029,0.21147248148918152
1772619579047314000,3.32831396484375,-0.0812983438372612,0.6664601564407349,0.299929141998291
1772619579057345000,3.338344970703125,-0.0993289202451706,0.45931217074394226,0.36227041482925415
1772619579067377000,3.348376953125,-0.10372180491685867,0.3151424825191498,0.3895939290523529
1772619579077407700,3.35840771484375,-0.11495743691921234,0.21674132347106934,0.3799448013305664
1772619579087438800,3.36843896484375,-0.15496423840522766,0.14896467328071594,0.3380165100097656
1772619579097469700,3.3784697265625,-0.2283947914838791,0.09365931153297424,0.27769699692726135
1772619579107500800,3.388500732421875,-0.32585448026657104,0.06300979107618332,0.21254701912403107
1772619579117532000,3.398531982421875,-0.4459843039512634,0.06208527088165283,0.13135623931884766
1772619579127562800,3.408562744140625,-0.5663623809814453,0.06394442170858383,0.015566778369247913
1772619579137593900,3.41859375,-0.6856627464294434,0.0862031802535057,-0.12365785241127014
1772619579147625000,3.428625,-0.7960379719734192,0.13873989880084991,-0.2615499496459961
1772619579157656000,3.438656005859375,-0.8622025847434998,0.22083134949207306,-0.3431074023246765
1772619579167687000,3.44868701171875,-0.8673454523086548,0.3394802212715149,-0.3442957103252411
1772619579177718000,3.458718017578125,-0.8026865124702454,0.4817504584789276,-0.22560162842273712
1772619579187748900,3.468748779296875,-0.69625324010849,0.6126477718353271,-0.024972394108772278
1772619579197780000,3.478780029296875,-0.5822652578353882,0.6766420006752014,0.1870984137058258
1772619579207810800,3.488810791015625,-0.48217594623565674,0.6779240369796753,0.3676098585128784
1772619579217843000,3.498843017578125,-0.397696852684021,0.6733145117759705,0.5172803997993469
1772619579227873800,3.508873779296875,-0.3224521577358246,0.7055661678314209,0.6149219870567322
1772619579237905000,3.51890478515625,-0.2558087110519409,0.697466254234314,0.6389424204826355
1772619579247935700,3.528935791015625,-0.20515701174736023,0.543400228023529,0.5765687823295593
1772619579257966800,3.538966796875,-0.1758611500263214,0.18010100722312927,0.4827224612236023
1772619579267998000,3.548998046875,-0.20533940196037292,-0.3941340744495392,0.423722505569458
1772619579278029000,3.559029052734375,-0.2678738236427307,-1.0398077964782715,0.49586910009384155
1772619579288060000,3.569059814453125,-0.301253080368042,-1.5551238059997559,0.7208004593849182
1772619579298091000,3.579091064453125,-0.3111427426338196,-1.824621319770813,1.0294197797775269
1772619579308121900,3.589121826171875,-0.29423195123672485,-1.7959084510803223,1.335896611213684
1772619579318153000,3.599153076171875,-0.19752563536167145,-1.5004462003707886,1.5037504434585571
1772619579328183800,3.609183837890625,-0.0529138520359993,-1.090257167816162,1.4047812223434448
1772619579338215000,3.61921484375,0.06523925811052322,-0.7472749948501587,1.0094071626663208
1772619579348245800,3.629245849609375,0.10607430338859558,-0.6056087017059326,0.3696681559085846
1772619579358276900,3.63927685546875,0.05978590250015259,-0.6531993746757507,-0.3645826578140259
1772619579368308700,3.649308837890625,-0.018815964460372925,-0.8067479133605957,-1.019620656967163
1772619579378339800,3.65933984375,-0.04621808975934982,-0.9429580569267273,-1.445454716682434
1772619579388370700,3.66937060546875,-0.017533978447318077,-0.9863319396972656,-1.648767113685608
1772619579398402000,3.679402099609375,0.04827016592025757,-1.0279979705810547,-1.7378933429718018
1772619579408433000,3.689432861328125,0.11153781414031982,-1.1203742027282715,-1.745489478111267
1772619579418464000,3.699464111328125,0.14774823188781738,-1.2016668319702148,-1.6768302917480469
1772619579428494800,3.709494873046875,0.1322435736656189,-1.215773582458496,-1.5468355417251587
1772619579438526000,3.71952587890625,0.07993930578231812,-1.1662524938583374,-1.3741331100463867
1772619579448556800,3.729556884765625,0.00981588289141655,-1.0577946901321411,-1.183652400970459
1772619579458588000,3.739587890625,-0.05331586301326752,-0.9112777709960938,-0.9800732731819153
1772619579468618800,3.74961865234375,-0.08605224639177322,-0.7422420978546143,-0.7498025298118591
1772619579478649900,3.75964990234375,-0.09188365936279297,-0.5308985114097595,-0.49123287200927734
1772619579488681000,3.769680908203125,-0.06666778028011322,-0.271745502948761,-0.22958289086818695
1772619579498711800,3.7797119140625,-0.020393643528223038,0.02190978080034256,0.013535376638174057
1772619579508743700,3.78974365234375,0.025576511397957802,0.3262592852115631,0.2319321632385254
1772619579518774800,3.79977490234375,0.061042420566082,0.5988917350769043,0.40968719124794006
1772619579528806000,3.809805908203125,0.09083280712366104,0.8472186923027039,0.5330639481544495
1772619579538837000,3.8198369140625,0.11392145603895187,1.0454227924346924,0.5855337381362915
1772619579548867800,3.829867919921875,0.1441483348608017,1.1697194576263428,0.5927812457084656
1772619579558899000,3.83989892578125,0.16930437088012695,1.1888827085494995,0.5701707005500793
1772619579568929800,3.8499296875,0.17676813900470734,1.1128052473068237,0.5287649035453796
1772619579578961000,3.8599609375,0.16473297774791718,0.9866388440132141,0.46006661653518677
1772619579588992000,3.869991943359375,0.1367862969636917,0.8253591656684875,0.37284836173057556
1772619579599022800,3.88002294921875,0.10113156586885452,0.6243508458137512,0.3091685175895691
1772619579609054000,3.890053955078125,0.05489828810095787,0.41632118821144104,0.29828792810440063
1772619579619084800,3.900084716796875,0.005251225084066391,0.24452224373817444,0.3442739248275757
1772619579629116000,3.910115966796875,-0.052068255841732025,0.16207318007946014,0.4388941824436188
1772619579639146800,3.920146728515625,-0.10664638876914978,0.18661989271640778,0.5625916719436646
1772619579649177900,3.930177734375,-0.15098349750041962,0.2597106099128723,0.6922138333320618
1772619579659210000,3.9402099609375,-0.17884990572929382,0.340450644493103,0.7925990223884583
1772619579669240800,3.95024072265625,-0.18238390982151031,0.3760446012020111,0.8626960515975952
1772619579679272000,3.96027197265625,-0.1780826300382614,0.36686286330223083,0.9006305932998657
1772619579689303000,3.970302978515625,-0.15061771869659424,0.30847543478012085,0.957241952419281
1772619579699334000,3.980333984375,-0.08383969217538834,0.2458350658416748,1.0683553218841553
1772619579709365000,3.990364990234375,0.029373954981565475,0.27120646834373474,1.2483352422714233
1772619579719395800,4.000395751953125,0.1819705218076706,0.37487104535102844,1.4603859186172485
1772619579729427000,4.010427001953125,0.34344279766082764,0.4534209668636322,1.6278603076934814
1772619579739457800,4.020457763671875,0.45356613397598267,0.4766137897968292,1.7106460332870483
1772619579749489000,4.030489013671875,0.515261173248291,0.5047761797904968,1.7071055173873901
1772619579759519700,4.040519775390625,0.636432945728302,0.7057608366012573,1.7033348083496094
1772619579769550800,4.05055078125,0.8617675304412842,0.947420060634613,1.6725313663482666
1772619579779581700,4.060581787109375,1.0398200750350952,1.0241152048110962,1.5251760482788086
1772619579789612800,4.07061279296875,0.9665967226028442,0.8340326547622681,1.055343508720398
1772619579799643600,4.0806435546875,0.5677974224090576,0.19199047982692719,0.10041645914316177
1772619579809676000,4.090676025390625,-0.08136297017335892,-0.7980617880821228,-1.1186529397964478
1772619579819707000,4.100706787109375,-0.8460412621498108,-1.8197498321533203,-2.2721939086914062
1772619579829738000,4.110738037109375,-1.4930726289749146,-2.506434202194214,-3.0228216648101807
1772619579839768800,4.120768798828125,-1.8366261720657349,-2.723177433013916,-3.1705989837646484
1772619579849800000,4.130800048828125,-1.6986947059631348,-2.226895570755005,-2.717989683151245
1772619579859830800,4.140830810546875,-1.151296615600586,-1.414048194885254,-1.9389402866363525
1772619579869862000,4.15086181640625,-0.46368861198425293,-0.4021812081336975,-1.078432559967041
1772619579879892700,4.160892822265625,0.19579213857650757,0.7570337653160095,-0.2366885393857956
1772619579889923800,4.170923828125,0.6963527202606201,1.71418297290802,0.47865381836891174
1772619579899954700,4.18095458984375,0.9644099473953247,2.1386170387268066,0.9443326592445374
1772619579909985800,4.19098583984375,1.0431041717529297,1.8483257293701172,1.002579927444458
1772619579920016600,4.2010166015625,1.0609639883041382,1.092055082321167,0.6998682022094727
1772619579930047700,4.2110478515625,0.9078202247619629,0.4917735755443573,0.3306849002838135
1772619579940078800,4.221078857421875,0.6230109930038452,-0.0411614365875721,-0.07251010835170746
1772619579950110000,4.23110986328125,0.39698344469070435,-0.3739098310470581,-0.40434423089027405
1772619579960141800,4.241141845703125,0.2653805911540985,-0.4191797375679016,-0.5850244760513306
1772619579970173000,4.2511728515625,0.17615164816379547,-0.3022054433822632,-0.6305583715438843
1772619579980203800,4.261203857421875,0.1297999918460846,-0.08629867434501648,-0.5608628392219543
1772619579990235000,4.27123486328125,0.11933404207229614,0.18585693836212158,-0.41401025652885437
1772619580000265700,4.281265625,0.13724438846111298,0.4782784879207611,-0.22812031209468842
1772619580010296800,4.291296875,0.18468087911605835,0.7361558675765991,-0.037033453583717346
1772619580020327700,4.30132763671875,0.2405889630317688,0.8917237520217896,0.12709549069404602
1772619580030358800,4.31135888671875,0.28852638602256775,0.9332493543624878,0.23926091194152832
1772619580040390000,4.321389892578125,0.3355119824409485,0.8923770189285278,0.295719176530838
1772619580050420700,4.331420654296875,0.39344531297683716,0.7892511487007141,0.30415526032447815
1772619580060451800,4.341451904296875,0.42311689257621765,0.6495479941368103,0.27256327867507935
1772619580070483000,4.35148291015625,0.41179049015045166,0.4798406958580017,0.19769810140132904
1772619580080514000,4.36151416015625,0.34626948833465576,0.31979987025260925,0.09614511579275131
1772619580090545000,4.371544921875,0.23076419532299042,0.14877702295780182,-0.03631865233182907
1772619580100576000,4.381575927734375,0.0676553025841713,-0.009855245240032673,-0.17676085233688354
1772619580110608000,4.39160791015625,-0.1056365892291069,-0.14194457232952118,-0.28931745886802673
1772619580120638700,4.401638671875,-0.24783965945243835,-0.22119492292404175,-0.3411853611469269
1772619580130669800,4.411669921875,-0.31926459074020386,-0.210693821310997,-0.2977715730667114
1772619580140701000,4.421700927734375,-0.3314073085784912,-0.09898757189512253,-0.18207822740077972
1772619580150731800,4.431731689453125,-0.2960205376148224,0.08950963616371155,-0.023249689489603043
1772619580160763000,4.441762939453125,-0.2279691845178604,0.306387335062027,0.13402900099754333
1772619580170793700,4.451793701171875,-0.1448545902967453,0.49348747730255127,0.23884809017181396
1772619580180824800,4.461824951171875,-0.06059566140174866,0.5990077257156372,0.26656392216682434
1772619580190856000,4.47185595703125,-0.007102073635905981,0.587069571018219,0.23138408362865448
1772619580200887000,4.481886962890625,0.01931934431195259,0.4065723717212677,0.17699067294597626
1772619580210918000,4.49191796875,0.05277157574892044,0.09061360359191895,0.19248707592487335
1772619580220949000,4.501948974609375,0.12882253527641296,-0.3633514940738678,0.30404412746429443
1772619580230979800,4.511979736328125,0.257106751203537,-0.9219532608985901,0.5105607509613037
1772619580241011000,4.522010986328125,0.40094852447509766,-1.4739038944244385,0.8274927139282227
1772619580251041800,4.532041748046875,0.5393685102462769,-1.888775110244751,1.2396960258483887
1772619580261074000,4.542073974609375,0.6330167651176453,-2.046908140182495,1.6700268983840942
1772619580271104800,4.552104736328125,0.6760255098342896,-1.9613964557647705,1.965050220489502
1772619580281135900,4.562135986328125,0.683459997177124,-1.7305774688720703,1.974931240081787
1772619580291166700,4.572166748046875,0.6422824859619141,-1.3956071138381958,1.647666573524475
1772619580301197800,4.58219775390625,0.5596954226493835,-0.9928159713745117,1.0633608102798462
1772619580311228700,4.592228759765625,0.4556371569633484,-0.5797189474105835,0.3388103246688843
1772619580321260000,4.602260009765625,0.34064874053001404,-0.19217130541801453,-0.36925622820854187
1772619580331291000,4.612290771484375,0.23215873539447784,0.07665296643972397,-0.9878765940666199
1772619580341322000,4.622322021484375,0.13636767864227295,0.14298228919506073,-1.4440315961837769
1772619580351352800,4.632352783203125,0.07786708325147629,0.07207083702087402,-1.6900697946548462
1772619580361384000,4.642384033203125,0.056222103536129,-0.05934392288327217,-1.7594586610794067
1772619580371414800,4.652414794921875,0.04432762786746025,-0.1940452754497528,-1.697959542274475
1772619580381446000,4.66244580078125,0.016167378053069115,-0.27321332693099976,-1.5566719770431519
1772619580391477000,4.67247705078125,-0.03213464096188545,-0.27267590165138245,-1.4252680540084839
1772619580401507800,4.6825078125,-0.11308924108743668,-0.22569072246551514,-1.3344563245773315
1772619580411539700,4.692539794921875,-0.1995261311531067,-0.11738048493862152,-1.2604683637619019
1772619580421570800,4.70257080078125,-0.2783828675746918,0.05470707267522812,-1.1878575086593628
1772619580431601700,4.7126015625,-0.3457994759082794,0.26488345861434937,-1.1149287223815918
1772619580441632800,4.7226328125,-0.3614979386329651,0.5088435411453247,-0.9970291256904602
1772619580451664000,4.732663818359375,-0.32260674238204956,0.7650532126426697,-0.8253079652786255
1772619580461695000,4.742695068359375,-0.23879380524158478,1.0509796142578125,-0.5970188975334167
1772619580471725800,4.752725830078125,-0.1274787336587906,1.3109103441238403,-0.3298353850841522
1772619580481757000,4.7627568359375,-0.006489502266049385,1.4906035661697388,-0.08388097584247589
1772619580491788000,4.7727880859375,0.10692494362592697,1.549243450164795,0.09972746670246124
1772619580501819000,4.78281884765625,0.21818068623542786,1.4371230602264404,0.17152224481105804
1772619580511850000,4.79285009765625,0.31525370478630066,1.1243585348129272,0.13025923073291779
1772619580521880800,4.802880859375,0.3731784522533417,0.6678385138511658,0.00034122937358915806
1772619580531912000,4.812911865234375,0.3824971318244934,0.23209133744239807,-0.13574230670928955
1772619580541942800,4.82294287109375,0.3442032039165497,-0.1434139758348465,-0.23176704347133636
1772619580551974000,4.832973876953125,0.2926348149776459,-0.4678210914134979,-0.2675236761569977
1772619580562005800,4.843005859375,0.24443669617176056,-0.7105511426925659,-0.2554987370967865
1772619580572036900,4.853036865234375,0.21821467578411102,-0.8656941056251526,-0.18081332743167877
1772619580582068000,4.86306787109375,0.20797742903232574,-0.8904898166656494,0.0022313548251986504
1772619580592099000,4.87309912109375,0.2032330185174942,-0.7242733836174011,0.30393552780151367
1772619580602130000,4.8831298828125,0.20072691142559052,-0.4263246953487396,0.6833151578903198
1772619580612161000,4.8931611328125,0.19875483214855194,-0.09377790242433548,1.05687415599823
1772619580622191900,4.90319189453125,0.18362274765968323,0.25397446751594543,1.3705470561981201
1772619580632223000,4.913222900390625,0.15168586373329163,0.6074388027191162,1.6088703870773315
1772619580642253800,4.92325390625,0.12087281793355942,0.8400635123252869,1.742510199546814
1772619580652285000,4.933284912109375,0.0746600478887558,0.8681678771972656,1.7438362836837769
1772619580662315800,4.943315673828125,-0.01741393469274044,0.6759611368179321,1.59006667137146
1772619580672347000,4.953346923828125,-0.09154915064573288,0.20285245776176453,1.3040506839752197
1772619580682378000,4.9633779296875,-0.12450363487005234,-0.24981407821178436,1.0008838176727295
1772619580692409000,4.9734091796875,-0.20490512251853943,-0.42902082204818726,0.7874605655670166
1772619580702440000,4.98343994140625,-0.32517939805984497,-0.48092973232269287,0.6129346489906311
1772619580712472000,4.99347216796875,-0.38328903913497925,-0.5319247245788574,0.4564608931541443
1772619580722503000,5.0035029296875,-0.3650953471660614,-0.5690711736679077,0.3593686521053314
1772619580732534000,5.013533935546875,-0.37626969814300537,-0.5709542632102966,0.3479929566383362
1772619580742564900,5.02356494140625,-0.4540669023990631,-0.5056048631668091,0.4119925796985626
1772619580752596000,5.033595947265625,-0.5321667790412903,-0.4220668375492096,0.5180675983428955
1772619580762626800,5.043626708984375,-0.4851442575454712,-0.25757455825805664,0.6562988758087158
1772619580772658000,5.053657958984375,-0.2464110404253006,0.1644027978181839,0.8269414901733398
1772619580782689000,5.06368896484375,0.042168084532022476,0.7588720917701721,0.9341996312141418
1772619580792720100,5.07372021484375,0.08135569840669632,1.1201003789901733,0.7164644002914429
1772619580802751000,5.0837509765625,-0.22576938569545746,0.817093551158905,-0.2187061607837677
1772619580812782000,5.093781982421875,-0.7329721450805664,0.02575494721531868,-1.8093398809432983
1772619580822813000,5.10381298828125,-1.2875714302062988,-0.4787476360797882,-3.285348892211914
1772619580832844000,5.113843994140625,-1.7413543462753296,-0.7969671487808228,-4.189594268798828
1772619580842875000,5.123875,-1.893964409828186,-0.9305647015571594,-4.287092685699463
1772619580852906000,5.133906005859375,-1.5265060663223267,-0.7635384202003479,-3.7023427486419678
1772619580862937900,5.143937744140625,-0.7784500122070312,-0.3231167793273926,-2.645034074783325
1772619580872969000,5.153968994140625,-0.09177684783935547,0.07532698661088943,-1.4388427734375
1772619580882999800,5.163999755859375,0.37128207087516785,0.40977248549461365,-0.3044634759426117
1772619580893031000,5.174031005859375,0.6058216094970703,0.6116470098495483,0.584047257900238
1772619580903062000,5.18406201171875,0.695379912853241,0.5228259563446045,1.0963265895843506
1772619580913093000,5.194093017578125,0.6570122838020325,0.15470972657203674,1.1882416009902954
1772619580923124000,5.2041240234375,0.5213069915771484,-0.26260313391685486,0.9691663384437561
1772619580933155000,5.214155029296875,0.342149555683136,-0.4702913463115692,0.6577035784721375
1772619580943186000,5.22418603515625,0.15269985795021057,-0.4361962378025055,0.38150671124458313
1772619580953217000,5.234217041015625,-0.01669209450483322,-0.22413936257362366,0.18148307502269745
1772619580963248000,5.244248046875,-0.1205918937921524,0.0669052004814148,0.05479653924703598
1772619580973279000,5.254279052734375,-0.1607411801815033,0.3812309205532074,-0.024977119639515877
1772619580983310000,5.26431005859375,-0.15846773982048035,0.6810933351516724,-0.07724235206842422
1772619580993341000,5.2743408203125,-0.1423763930797577,0.9036094546318054,-0.11557456105947495
1772619581003372000,5.2843720703125,-0.11818131059408188,1.0298881530761719,-0.14166875183582306
1772619581013404000,5.29440380859375,-0.07971034944057465,1.083925485610962,-0.11430823057889938
1772619581023434800,5.304434814453125,-0.03141128271818161,1.119637370109558,-0.029941122978925705
1772619581033466000,5.314466064453125,0.0029291133396327496,1.114037036895752,0.09559948742389679
1772619581043497000,5.3244970703125,0.02972809225320816,1.0540622472763062,0.22100895643234253
1772619581053528000,5.334528076171875,0.03803689032793045,0.9368389844894409,0.33499813079833984
1772619581063559200,5.34455908203125,0.01782212406396866,0.7719340920448303,0.4081812798976898
1772619581073590000,5.354590087890625,-0.02139238826930523,0.5762618184089661,0.4342171549797058
1772619581083621000,5.36462109375,-0.056489065289497375,0.37827083468437195,0.44836699962615967
1772619581093652000,5.37465185546875,-0.05933625251054764,0.2514191269874573,0.5037186741828918
1772619581103683000,5.38468310546875,0.0031966231763362885,0.21435323357582092,0.6306055188179016
1772619581113714000,5.3947138671875,0.12199784070253372,0.2638222575187683,0.8343325853347778
1772619581123745000,5.4047451171875,0.262075275182724,0.33424094319343567,1.0623250007629395
1772619581133776000,5.41477587890625,0.3644261360168457,0.32114166021347046,1.2000439167022705
1772619581143807000,5.424806884765625,0.3722868859767914,0.14644601941108704,1.1582181453704834
1772619581153837800,5.434837890625,0.2890758812427521,-0.2271376997232437,0.9560056328773499
1772619581163870200,5.4448701171875,0.14597713947296143,-0.7060116529464722,0.7438488006591797
1772619581173901000,5.454901123046875,-0.01820913515985012,-1.1591192483901978,0.6794048547744751
1772619581183932200,5.46493212890625,-0.12759844958782196,-1.4608396291732788,0.8214393854141235
1772619581193963000,5.474962890625,-0.12917611002922058,-1.4415130615234375,1.1384484767913818
1772619581203994000,5.484994140625,-0.03433860465884209,-1.0714775323867798,1.5040735006332397
1772619581214025000,5.49502490234375,0.12592056393623352,-0.5507963299751282,1.7398492097854614
1772619581224056000,5.50505615234375,0.30938318371772766,-0.1049208864569664,1.6974425315856934
1772619581234087000,5.5150869140625,0.4713614583015442,0.13883239030838013,1.364585518836975
1772619581244118000,5.525117919921875,0.5847849249839783,0.17000944912433624,0.8812553286552429
1772619581254148900,5.53514892578125,0.6077786684036255,0.004465493373572826,0.40005144476890564
1772619581264180000,5.545179931640625,0.5435676574707031,-0.2785950303077698,0.04318706691265106
1772619581274210800,5.5552109375,0.4117443859577179,-0.6214751601219177,-0.17641186714172363
1772619581284242000,5.565241943359375,0.2594100832939148,-0.9494068026542664,-0.32242801785469055
1772619581294273000,5.57527294921875,0.14654745161533356,-1.186541199684143,-0.44991299510002136
1772619581304303900,5.585303955078125,0.09619646519422531,-1.2661397457122803,-0.5717180967330933
1772619581314336000,5.5953359375,0.09577355533838272,-1.1516640186309814,-0.6721922755241394
1772619581324367000,5.6053671875,0.13432884216308594,-0.8877634406089783,-0.7611475586891174
1772619581334398000,5.61539794921875,0.17582382261753082,-0.5831997990608215,-0.9059017896652222
1772619581344429000,5.625428955078125,0.18028143048286438,-0.35083791613578796,-1.139539361000061
1772619581354460000,5.6354599609375,0.11393570154905319,-0.2680482268333435,-1.4245878458023071
1772619581364491000,5.645490966796875,-0.02237446792423725,-0.3371899724006653,-1.6802635192871094
1772619581374521900,5.65552197265625,-0.16727305948734283,-0.48009946942329407,-1.8034933805465698
1772619581384553000,5.665552978515625,-0.2501860558986664,-0.6151981949806213,-1.7688122987747192
1772619581394584000,5.675583984375,-0.23748011887073517,-0.7343378663063049,-1.6264389753341675
1772619581404615000,5.685614990234375,-0.15313732624053955,-0.8756844401359558,-1.413516879081726
1772619581414646000,5.69564599609375,-0.04968337342143059,-1.0579434633255005,-1.1190670728683472
1772619581424676900,5.7056767578125,0.03794502839446068,-1.2344785928726196,-0.7783774137496948
1772619581434708000,5.7157080078125,0.0766303688287735,-1.2723479270935059,-0.3791581094264984
1772619581444739000,5.725739013671875,0.06773671507835388,-1.1950515508651733,0.0410248227417469
1772619581454770200,5.735770263671875,0.00272548571228981,-0.9547526836395264,0.4422806203365326
1772619581464801000,5.745801025390625,-0.1010465994477272,-0.5565677881240845,0.7507249116897583
1772619581474832100,5.75583203125,-0.18778522312641144,-0.15162456035614014,0.8858936429023743
1772619581484864000,5.765864013671875,-0.23620547354221344,0.1719660460948944,0.8347386121749878
1772619581494895000,5.77589501953125,-0.24078744649887085,0.40416598320007324,0.656084418296814
1772619581504926000,5.785926025390625,-0.17969147861003876,0.5344675183296204,0.4247418940067291
1772619581514957000,5.79595703125,-0.033400848507881165,0.5645881295204163,0.20779332518577576
1772619581524988000,5.80598779296875,0.14285431802272797,0.5026834607124329,0.04802204295992851
1772619581535019000,5.81601904296875,0.3024967312812805,0.29217416048049927,-0.05307687819004059
1772619581545049900,5.8260498046875,0.4288930594921112,-0.02031765505671501,-0.11465077847242355
1772619581555081000,5.8360810546875,0.4868793785572052,-0.30221590399742126,-0.12561023235321045
1772619581565111800,5.84611181640625,0.4872927665710449,-0.4885294735431671,-0.09974966198205948
1772619581575143200,5.85614306640625,0.43293607234954834,-0.5528069734573364,-0.011281847022473812
1772619581585174000,5.866174072265625,0.33988484740257263,-0.43649810552597046,0.13956420123577118
1772619581595205000,5.876205078125,0.22880014777183533,-0.18503552675247192,0.35038721561431885
1772619581605236000,5.886236083984375,0.1311475932598114,0.11072364449501038,0.5842793583869934
1772619581615267000,5.89626708984375,0.041223831474781036,0.3914722204208374,0.8271623253822327
1772619581625298000,5.9062978515625,-0.05515272915363312,0.6416605710983276,1.0337817668914795
1772619581635330000,5.916330078125,-0.15301723778247833,0.8274099230766296,1.1944721937179565
1772619581645361000,5.92636083984375,-0.24301202595233917,0.9373360276222229,1.2893822193145752
1772619581655392000,5.93639208984375,-0.3246946632862091,0.9302666783332825,1.306623101234436
1772619581665422800,5.9464228515625,-0.3717477023601532,0.8110293745994568,1.2524648904800415
1772619581675454000,5.956453857421875,-0.3372049033641815,0.6348934769630432,1.1603906154632568
1772619581685484300,5.966484375,-0.20051130652427673,0.46098920702934265,1.0734139680862427
1772619581695515100,5.97651513671875,0.001357354922220111,0.18787243962287903,1.0205994844436646
1772619581705546200,5.986546142578125,0.23835501074790955,-0.17356957495212555,1.0646073818206787
1772619581715577000,5.9965771484375,0.43109384179115295,-0.4390853941440582,1.2581989765167236
1772619581725608400,6.0066083984375,0.5603389143943787,-0.4250406324863434,1.6145013570785522
1772619581735639300,6.016639404296875,0.5795400738716125,-0.15243494510650635,1.9822887182235718
1772619581745670400,6.02667041015625,0.47959017753601074,0.06750517338514328,2.1367037296295166
1772619581755701200,6.036701171875,0.31860795617103577,0.034493692219257355,1.9064033031463623
1772619581765732400,6.046732421875,0.16386929154396057,-0.12390970438718796,1.2937753200531006
1772619581775763200,6.05676318359375,-0.00008742604404687881,-0.13042804598808289,0.45735394954681396
1772619581785795300,6.06679541015625,-0.19346022605895996,-0.07172589749097824,-0.4679468274116516
1772619581795826200,6.076826171875,-0.3793605864048004,-0.004230744671076536,-1.3084537982940674
1772619581805857300,6.086857177734375,-0.5361337661743164,0.020382340997457504,-1.9391329288482666
1772619581815888100,6.09688818359375,-0.6135204434394836,0.06676076352596283,-2.245347023010254
1772619581825919200,6.106919189453125,-0.592115581035614,0.14998236298561096,-2.2061350345611572
1772619581835950000,6.1169501953125,-0.4654577374458313,0.2529636025428772,-1.9156080484390259
1772619581845981200,6.126981201171875,-0.24998719990253448,0.4487720727920532,-1.4706377983093262
1772619581856012300,6.13701220703125,-0.012540286406874657,0.6831744313240051,-0.9939571022987366
1772619581866043400,6.14704345703125,0.19221213459968567,0.7774094939231873,-0.5879949331283569
1772619581876074200,6.15707421875,0.357200026512146,0.7372269630432129,-0.3059345483779907
1772619581886105300,6.167105224609375,0.4455488920211792,0.6125049591064453,-0.1412239968776703
1772619581896136200,6.17713623046875,0.4323239028453827,0.4633072018623352,-0.08002162724733353
1772619581906167300,6.187167236328125,0.34637266397476196,0.3136894702911377,-0.10141440480947495
1772619581916198100,6.1971982421875,0.2608114182949066,0.20061884820461273,-0.1576388031244278
1772619581926229200,6.207229248046875,0.19598400592803955,0.1835973709821701,-0.20036713778972626
1772619581936261000,6.21726123046875,0.13940568268299103,0.25905564427375793,-0.22259335219860077
1772619581946292200,6.227292236328125,0.10437799990177155,0.38312339782714844,-0.23029741644859314
1772619581956323000,6.237322998046875,0.09908043593168259,0.518020510673523,-0.24082888662815094
1772619581966354200,6.247354248046875,0.10863149911165237,0.6315404176712036,-0.24435986578464508
1772619581976385300,6.25738525390625,0.12077125161886215,0.6907856464385986,-0.2295582890510559
1772619581986416400,6.26741650390625,0.13944396376609802,0.6887410879135132,-0.19650892913341522
1772619581996447200,6.277447265625,0.1614494025707245,0.636384129524231,-0.16280369460582733
1772619582006478300,6.287478271484375,0.2020442634820938,0.5601067543029785,-0.11020099371671677
1772619582016509200,6.29750927734375,0.2498357594013214,0.47157981991767883,-0.024866921827197075
1772619582026540300,6.307540283203125,0.28945043683052063,0.3850415349006653,0.0874653160572052
1772619582036571400,6.3175712890625,0.32471415400505066,0.32846879959106445,0.2245968133211136
1772619582046602200,6.327602294921875,0.3624354898929596,0.32059529423713684,0.3647969961166382
1772619582056633300,6.33763330078125,0.3811814785003662,0.36074748635292053,0.4874826967716217
1772619582066664200,6.347664306640625,0.3852928578853607,0.40959516167640686,0.557948887348175
1772619582076695300,6.3576953125,0.3857874274253845,0.4466168284416199,0.572212815284729
1772619582086726100,6.36772607421875,0.39399152994155884,0.4717021584510803,0.550171971321106
1772619582096758000,6.377758056640625,0.4108820855617523,0.47709745168685913,0.4868893623352051
1772619582106789400,6.387789306640625,0.41924846172332764,0.4711286723613739,0.4116528630256653
1772619582116820200,6.3978203125,0.39898553490638733,0.4360063672065735,0.30181264877319336
1772619582126851300,6.407851318359375,0.3075750470161438,0.31999877095222473,0.13676661252975464
1772619582136882400,6.41788232421875,0.13523711264133453,0.08068418502807617,-0.07080736011266708
1772619582146913300,6.427913330078125,-0.10204671323299408,-0.2946026921272278,-0.26421740651130676
1772619582156944400,6.4379443359375,-0.3807060122489929,-0.6948984265327454,-0.33330780267715454
1772619582166975200,6.447975341796875,-0.5932234525680542,-0.8788881897926331,-0.23184098303318024
1772619582177006300,6.45800634765625,-0.6619500517845154,-0.7251920700073242,0.00028040772303938866
1772619582187037200,6.468037109375,-0.5867598056793213,-0.22245347499847412,0.3431102931499481
1772619582197068300,6.478068359375,-0.3903577923774719,0.4599914252758026,0.6499823331832886
1772619582207099100,6.48809912109375,-0.13087473809719086,1.046175241470337,0.792614221572876
1772619582217130200,6.498130126953125,0.10396920144557953,1.341765284538269,0.688298225402832
1772619582227161000,6.5081611328125,0.27638915181159973,1.3589942455291748,0.35989558696746826
1772619582237192200,6.518192138671875,0.34845560789108276,1.0261074304580688,-0.08685953170061111
1772619582247224300,6.528224365234375,0.34634819626808167,0.4391399323940277,-0.4465697109699249
1772619582257255400,6.53825537109375,0.32353636622428894,-0.16962622106075287,-0.60798579454422
1772619582267286300,6.548286376953125,0.3217151463031769,-0.746665358543396,-0.5941590070724487
1772619582277317400,6.5583173828125,0.3589458763599396,-1.2173223495483398,-0.49133676290512085
1772619582287348200,6.56834814453125,0.4700334966182709,-1.5751354694366455,-0.3700092136859894
1772619582297379300,6.57837939453125,0.6633280515670776,-1.9234012365341187,-0.3004850149154663
1772619582307410200,6.58841015625,0.8650808334350586,-2.314897298812866,-0.2904250919818878
1772619582317441300,6.598441162109375,1.0329121351242065,-2.679232120513916,-0.34787505865097046
1772619582327472000,6.60847216796875,1.2536888122558594,-2.907874345779419,-0.4276629090309143
1772619582337503200,6.618503173828125,1.4924694299697876,-3.031156063079834,-0.4774291515350342
1772619582347534000,6.6285341796875,1.6500002145767212,-3.2316412925720215,-0.533402681350708
1772619582357565200,6.638565185546875,1.7154016494750977,-3.530439615249634,-0.6441915035247803
1772619582367596000,6.648595947265625,1.6999616622924805,-3.7916626930236816,-0.8003578782081604
1772619582377627100,6.658627197265625,1.6339954137802124,-3.81046986579895,-0.9765251874923706
1772619582387658200,6.668658203125,1.6004209518432617,-3.5304434299468994,-1.052878737449646
1772619582397690400,6.6786904296875,1.5922839641571045,-3.121957302093506,-0.9368596076965332
1772619582407721200,6.68872119140625,1.5602247714996338,-2.690958023071289,-0.6633914709091187
1772619582417752300,6.69875244140625,1.478169560432434,-2.063964366912842,-0.28546231985092163
1772619582427783200,6.708783203125,1.3471585512161255,-1.1858482360839844,0.10599522292613983
1772619582437814300,6.718814208984375,1.1710903644561768,-0.10867449641227722,0.42989686131477356
1772619582447845000,6.72884521484375,0.9693222045898438,0.9481512308120728,0.5869640707969666
1772619582457876200,6.738876220703125,0.789165735244751,1.7765004634857178,0.5161745548248291
1772619582467907000,6.748906982421875,0.6492369174957275,2.275325059890747,0.21542508900165558
1772619582477938200,6.758938232421875,0.5313912034034729,2.4972808361053467,-0.27045556902885437
1772619582487969300,6.76896923828125,0.392347127199173,2.5953598022460938,-0.8127988576889038
1772619582498000100,6.779000244140625,0.23329997062683105,2.6247944831848145,-1.2672374248504639
1772619582508031200,6.78903125,0.056282058358192444,2.513913154602051,-1.577357292175293
1772619582518062300,6.799062255859375,-0.11975874751806259,2.252866506576538,-1.7337335348129272
1772619582528093400,6.809093505859375,-0.2625872492790222,1.916504979133606,-1.7536864280700684
1772619582538124300,6.819124267578125,-0.3413952589035034,1.6307474374771118,-1.6422395706176758
1772619582548156200,6.82915625,-0.3886457681655884,1.4716837406158447,-1.399893879890442
1772619582558187300,6.839187255859375,-0.43657439947128296,1.4623703956604004,-1.055955171585083
1772619582568218000,6.849218017578125,-0.5040409564971924,1.582047700881958,-0.6458185911178589
1772619582578249200,6.859249267578125,-0.5871704816818237,1.7569282054901123,-0.2335764616727829
1772619582588280300,6.8692802734375,-0.6709195971488953,1.9104217290878296,0.11450553685426712
1772619582598311200,6.879311279296875,-0.7467048764228821,1.9930633306503296,0.33733701705932617
1772619582608342300,6.88934228515625,-0.8057849407196045,1.9145934581756592,0.41903817653656006
1772619582618373000,6.899373046875,-0.8393884301185608,1.6074191331863403,0.3744816184043884
1772619582628404200,6.909404296875,-0.8261790871620178,1.1679614782333374,0.29706427454948425
1772619582638435000,6.91943505859375,-0.7625218033790588,0.7440634965896606,0.3211003839969635
1772619582648466400,6.929466552734375,-0.6403945088386536,0.3419550657272339,0.5530208945274353
1772619582658497300,6.939497314453125,-0.46137258410453796,-0.030598558485507965,0.9937953352928162
1772619582668528400,6.9495283203125,-0.2269846796989441,-0.13662932813167572,1.599557638168335
1772619582678559700,6.959559814453125,0.03870372474193573,0.05385725945234299,2.2570831775665283
1772619582688590800,6.9695908203125,0.2809384763240814,0.3962084650993347,2.8354272842407227
1772619582698621700,6.97962158203125,0.46307313442230225,0.6313019394874573,3.19931960105896
1772619582708653800,6.98965380859375,0.569218635559082,0.6647028923034668,3.256225347518921
1772619582718685000,6.999684814453125,0.5698556900024414,0.5492048263549805,2.9842679500579834
1772619582728715800,7.0097158203125,0.417361855506897,0.484235554933548,2.496835947036743
1772619582738747000,7.019746826171875,0.1270032525062561,0.5608805418014526,1.8494809865951538
1772619582748778000,7.029778076171875,-0.23441463708877563,0.6347190141677856,0.9792215824127197
1772619582758808800,7.039808837890625,-0.6624546647071838,0.5361903309822083,-0.13663171231746674
1772619582768840000,7.04983984375,-1.1819781064987183,0.19653095304965973,-1.3344961404800415
1772619582778870800,7.059870849609375,-1.7214136123657227,-0.29171329736709595,-2.3547539710998535
1772619582788902000,7.06990185546875,-2.1108646392822266,-0.6872169375419617,-2.902092456817627
1772619582798932700,7.0799326171875,-2.263373374938965,-0.9656317830085754,-2.87890887260437
1772619582808963800,7.0899638671875,-2.160149335861206,-1.0109537839889526,-2.3215885162353516
1772619582818994700,7.09999462890625,-1.7502845525741577,-0.7467645406723022,-1.5107706785202026
1772619582829025800,7.11002587890625,-1.1847660541534424,-0.1703985631465912,-0.6111757159233093
1772619582839057000,7.120056884765625,-0.6564850807189941,0.41944846510887146,0.18301597237586975
1772619582849088000,7.130087890625,-0.21809405088424683,0.7304651141166687,0.7346431016921997
1772619582859119900,7.140119873046875,0.15709899365901947,0.6611654162406921,0.9612993597984314
1772619582869151000,7.15015087890625,0.4076927900314331,0.5761057138442993,1.0352331399917603
1772619582879181800,7.160181884765625,0.495229572057724,0.577538788318634,1.0773369073867798
1772619582889213000,7.170212890625,0.4896596670150757,0.5794059038162231,1.1028687953948975
1772619582899243800,7.180243896484375,0.451792448759079,0.5591560006141663,1.098045825958252
1772619582909275000,7.19027490234375,0.37986356019973755,0.5096719264984131,1.0328998565673828
1772619582919305700,7.2003056640625,0.2853187024593353,0.43258965015411377,0.9163996577262878
1772619582929336800,7.2103369140625,0.17343014478683472,0.3437884747982025,0.7476884722709656
1772619582939367700,7.22036767578125,0.04696168005466461,0.26140090823173523,0.5246535539627075
1772619582949398800,7.230398681640625,-0.07675833255052567,0.1861182600259781,0.27055275440216064
1772619582959430000,7.240429931640625,-0.1856081187725067,0.08944711089134216,0.027384033426642418
1772619582969461000,7.2504609375,-0.2820433974266052,-0.013592887669801712,-0.16167475283145905
1772619582979491800,7.260491943359375,-0.3452551066875458,-0.10250811278820038,-0.27554062008857727
1772619582989523000,7.27052294921875,-0.380732923746109,-0.25859543681144714,-0.2939175069332123
1772619582999553800,7.2805537109375,-0.39346495270729065,-0.46342501044273376,-0.20200756192207336
1772619583009586000,7.2905859375,-0.3678149878978729,-0.5978080630302429,-0.006431940011680126
1772619583019616800,7.30061669921875,-0.2916693389415741,-0.6016190648078918,0.24683627486228943
1772619583029648000,7.31064794921875,-0.15079957246780396,-0.48524153232574463,0.4907701015472412
1772619583039678700,7.3206787109375,0.04374327138066292,-0.3054094612598419,0.6776384711265564
1772619583049709800,7.330709716796875,0.2714965045452118,-0.09835522621870041,0.7690553069114685
1772619583059740700,7.34074072265625,0.468889981508255,0.0989442691206932,0.7664587497711182
1772619583069771800,7.350771728515625,0.5985091924667358,0.21108855307102203,0.6944263577461243
1772619583079802600,7.360802734375,0.6569370627403259,0.2492987960577011,0.5641471743583679
1772619583089834000,7.370833984375,0.635292112827301,0.20193876326084137,0.38341405987739563
1772619583099864800,7.38086474609375,0.5375484824180603,0.04477577656507492,0.15200692415237427
1772619583109896000,7.39089599609375,0.36257240176200867,-0.2087920904159546,-0.12562067806720734
1772619583119927000,7.400927001953125,0.12508714199066162,-0.4941119849681854,-0.41225191950798035
1772619583129958000,7.4109580078125,-0.14203934371471405,-0.7311292886734009,-0.6504855751991272
1772619583139989000,7.420989013671875,-0.3723015785217285,-0.8919029831886292,-0.7677264213562012
1772619583150019800,7.431019775390625,-0.5347627997398376,-0.895805299282074,-0.7392576336860657
1772619583160051700,7.4410517578125,-0.6410178542137146,-0.7625676393508911,-0.5791979432106018
1772619583170082800,7.451082763671875,-0.7026047706604004,-0.47957688570022583,-0.35641518235206604
1772619583180114000,7.461114013671875,-0.7238301634788513,-0.06086670607328415,-0.16291444003582
1772619583190144800,7.471144775390625,-0.6909003853797913,0.3406408727169037,-0.09089036285877228
1772619583200175900,7.48117578125,-0.6116079688072205,0.6601573824882507,-0.14436690509319305
1772619583210206700,7.491206787109375,-0.5321386456489563,0.8204455971717834,-0.3027283251285553
1772619583220238000,7.501238037109375,-0.46585315465927124,0.688971996307373,-0.5136169195175171
1772619583230269000,7.51126904296875,-0.39880841970443726,0.25089991092681885,-0.6524736881256104
1772619583240300000,7.521300048828125,-0.3548457622528076,-0.4160669445991516,-0.6133931279182434
1772619583250331000,7.531330810546875,-0.3497673571109772,-1.120905876159668,-0.3441012501716614
1772619583260362000,7.541362060546875,-0.3616296052932739,-1.5169732570648193,0.13139577209949493
1772619583270392800,7.551392822265625,-0.3490564525127411,-1.455928087234497,0.6945765018463135
1772619583280424000,7.561423828125,-0.3024391531944275,-1.0445061922073364,1.1194076538085938
1772619583290454800,7.571454833984375,-0.22417016327381134,-0.5294665098190308,1.227113962173462
1772619583300486000,7.58148583984375,-0.16379471123218536,-0.0868975892663002,0.9242458939552307
1772619583310517800,7.591517822265625,-0.14047296345233917,0.280111700296402,0.2501809895038605
1772619583320548900,7.601548828125,-0.22435641288757324,0.48926305770874023,-0.6679331660270691
1772619583330579700,7.611579833984375,-0.3913012146949768,0.49673983454704285,-1.5339211225509644
1772619583340611000,7.621611083984375,-0.5829340219497681,0.3537043631076813,-2.0536324977874756
1772619583350642000,7.631641845703125,-0.7491623759269714,0.19756245613098145,-2.158337354660034
1772619583360673000,7.641673095703125,-0.8703144192695618,0.09206239134073257,-1.9503693580627441
1772619583370704000,7.651703857421875,-0.9245778322219849,0.0683891549706459,-1.6082805395126343
1772619583380735000,7.66173486328125,-0.9378187656402588,0.06661362946033478,-1.2888177633285522
1772619583390765800,7.671765869140625,-0.9079931974411011,-0.04151572287082672,-1.0864143371582031
1772619583400797000,7.681796875,-0.7963652014732361,-0.25565171241760254,-0.9586076736450195
1772619583410827800,7.691827880859375,-0.5991248488426208,-0.49435845017433167,-0.8339917659759521
1772619583420859000,7.70185888671875,-0.3683057129383087,-0.7177444100379944,-0.6200621128082275
1772619583430889700,7.7118896484375,-0.12503798305988312,-0.8762494921684265,-0.29904547333717346
1772619583440920800,7.7219208984375,0.09092919528484344,-0.8670874238014221,0.08823459595441818
1772619583450952700,7.73195263671875,0.23359628021717072,-0.6993504166603088,0.476469486951828
1772619583460983800,7.74198388671875,0.3091064989566803,-0.4595162570476532,0.8117225766181946
1772619583471015000,7.752014892578125,0.32361018657684326,-0.23123116791248322,1.0682631731033325
1772619583481046000,7.7620458984375,0.2893185317516327,-0.08391361683607101,1.241513967514038
1772619583491076900,7.772076904296875,0.24050816893577576,-0.022376639768481255,1.3443657159805298
1772619583501108000,7.78210791015625,0.20152294635772705,0.0018860897980630398,1.405755639076233
1772619583511138800,7.792138916015625,0.14998091757297516,0.006384680978953838,1.425618290901184
1772619583521170000,7.802169921875,0.08859825879335403,-0.030865218490362167,1.3960990905761719
1772619583531200800,7.81220068359375,0.0050532156601548195,-0.12183603644371033,1.3149746656417847
1772619583541231900,7.82223193359375,-0.08006753772497177,-0.24897374212741852,1.210875391960144
1772619583551263000,7.832262939453125,-0.14884646236896515,-0.36262014508247375,1.1136808395385742
1772619583561293800,7.8422939453125,-0.17498192191123962,-0.38840433955192566,1.0541493892669678
1772619583571325000,7.852324951171875,-0.16880691051483154,-0.31612303853034973,1.037990689277649
1772619583581355800,7.862355712890625,-0.14951948821544647,-0.1943095177412033,1.0612070560455322
1772619583591387600,7.8723876953125,-0.11192101240158081,-0.06856068968772888,1.1044914722442627
1772619583601419000,7.8824189453125,-0.06119658797979355,0.014713423326611519,1.162609577178955
1772619583611449900,7.892449951171875,-0.028388697654008865,0.013171995058655739,1.2007291316986084
1772619583621481000,7.90248095703125,-0.006923087872564793,-0.04943811893463135,1.212544322013855
1772619583631511800,7.91251171875,0.0049722567200660706,-0.16325563192367554,1.2267735004425049
1772619583641543000,7.92254296875,0.014505840837955475,-0.3263950049877167,1.2819139957427979
1772619583651574000,7.932573974609375,0.0394512340426445,-0.4867086112499237,1.4347920417785645
1772619583661604900,7.94260498046875,0.08047722280025482,-0.5352337956428528,1.708513617515564
1772619583671636000,7.952635986328125,0.12105071544647217,-0.4760568141937256,2.0111186504364014
1772619583681666600,7.96266650390625,0.13672848045825958,-0.33166050910949707,2.2164177894592285
1772619583691697700,7.97269775390625,0.13580887019634247,-0.12857720255851746,2.2327775955200195
1772619583701728500,7.982728515625,0.1702888160943985,0.12001051008701324,2.0486817359924316
1772619583711759600,7.992759521484375,0.2456539422273636,0.4869851768016815,1.72516930103302
1772619583721791500,8.00279150390625,0.36905497312545776,0.8504470586776733,1.341253638267517
1772619583731822800,8.01282275390625,0.44099318981170654,1.012306809425354,0.7734827399253845
1772619583741853700,8.022853759765624,0.33822551369667053,0.9436003565788269,-0.08278720825910568
1772619583751884800,8.032884765625,0.02259610779583454,0.5887925028800964,-1.1909945011138916
1772619583761915600,8.04291552734375,-0.45729511976242065,-0.026482103392481804,-2.288205862045288
1772619583771946800,8.05294677734375,-0.9525404572486877,-0.5748485922813416,-2.9385085105895996
1772619583781977600,8.0629775390625,-1.2835737466812134,-0.8007701635360718,-2.903017044067383
1772619583792008700,8.0730087890625,-1.3509912490844727,-0.6041216254234314,-2.304969310760498
1772619583802039600,8.08303955078125,-1.130108118057251,0.0048093367367982864,-1.472038745880127
1772619583812070700,8.093070556640624,-0.7408745884895325,0.7790215015411377,-0.6671206951141357
1772619583822101500,8.1031015625,-0.28320610523223877,1.3713960647583008,-0.07926301658153534
1772619583832132600,8.113132568359376,0.20684665441513062,1.564854621887207,0.19545622169971466
1772619583842163500,8.12316357421875,0.6190941333770752,1.462946891784668,0.20933128893375397
1772619583852194600,8.133194580078126,0.8619974851608276,1.2468830347061157,0.11463600397109985
1772619583862225400,8.143225341796875,0.9492343664169312,1.003793716430664,0.0027097398415207863
1772619583872257800,8.1532578125,0.937674343585968,0.7640343308448792,-0.046284858137369156
1772619583882288600,8.16328857421875,0.8580450415611267,0.5535798668861389,0.02071468159556389
1772619583892319700,8.17331982421875,0.7338768243789673,0.38550975918769836,0.16432185471057892
1772619583902350600,8.1833505859375,0.5487958788871765,0.33897262811660767,0.5046709179878235
1772619583912381700,8.193381591796875,0.3590959906578064,-0.017136232927441597,0.7388871908187866
1772619583922412500,8.20341259765625,0.22765672206878662,-0.38547858595848083,0.7913719415664673
1772619583932443600,8.213443603515625,0.147173210978508,-0.5381163358688354,0.7686989307403564
1772619583942474500,8.223474609375,0.06339363008737564,-0.5073104500770569,0.751399576663971
1772619583952505600,8.233505615234375,0.0781373605132103,-0.4204441010951996,0.708111047744751
1772619583962536400,8.243536376953125,0.13602037727832794,-0.45145902037620544,0.6527961492538452
