time,seconds_elapsed,z,y,x
1772618886423669500,0.07766943359375,0.4636182129800319,-0.06549639012543484,0.21220584974512458
1772618886433700600,0.08770068359375,0.20044716902077198,-0.04521395547734573,0.11036271947519853
1772618886443730700,0.097730712890625,-0.34475744027793404,-0.004196099982969463,-0.11208434650287963
1772618886453761500,0.107761474609375,-0.2990764700770378,-0.0007821633536368608,-0.11564317149561829
1772618886463791600,0.11779150390625,0.12186930686831474,-0.030998693647421895,0.06673648984702303
1772618886473821700,0.12782177734375,0.49440848804116244,-0.06799960511801764,0.21642116588521748
1772618886483852500,0.1378525390625,-0.17681553354263305,-0.030293942911550402,-0.04333379971997346
1772618886493882600,0.147882568359375,-0.3383078257471323,0.0017723799673840402,-0.14696869507776572
1772618886503913700,0.157913818359375,-0.13377192610800265,-0.03903524857610464,-0.03897827595816925
1772618886513943600,0.167943603515625,0.4326502432644367,-0.0651589200656861,0.18392616926543415
1772618886523973600,0.1779736328125,0.13442542158067225,-0.027079876235872505,0.08309220690489746
1772618886534004700,0.188004638671875,-0.3115712099909782,-0.01260073930537328,-0.11008712653736583
1772618886544034800,0.198034912109375,-0.22320845140516757,-0.016450400470849124,-0.10008611226845532
1772618886554065700,0.208065673828125,0.12443535796403885,-0.052778088854998344,0.07181188428201712
1772618886564095700,0.218095703125,0.41717911788821216,-0.07272203053003176,0.19221461659595368
1772618886574126800,0.228126953125,-0.18133797940313814,-0.025344229815993456,-0.05588284993730485
1772618886584156700,0.23815673828125,-0.2914864533394575,-0.02575823571067303,-0.09883278773911297
1772618886594186800,0.248186767578125,-0.10442425107061862,-0.031166378364525734,-0.03229450561162084
1772618886604217900,0.2582177734375,0.37593174622058867,-0.06453896153643728,0.1587413677948527
1772618886614247700,0.26824755859375,0.09399228890538215,-0.04660981201622635,0.06575876282209064
1772618886624278800,0.27827880859375,-0.26924948709011076,-0.0034841705876402554,-0.10074859476517885
1772618886634308600,0.28830859375,-0.19536767379939554,-0.004501731866039336,-0.08138990563219413
1772618886644338700,0.298338623046875,0.09809387900531291,-0.036619748399592936,0.0462670355936978
1772618886654369500,0.30836962890625,0.34891397543549535,-0.04944309921339154,0.16507431540973483
1772618886664399600,0.318399658203125,-0.12943886533975602,-0.03714079486532137,-0.04101151708513498
1772618886674430700,0.3284306640625,-0.2340174301892519,-0.008760686218459159,-0.10497620413126424
1772618886684460500,0.33846044921875,-0.10785890169441699,-0.03115731827523559,-0.02919578154445626
1772618886694490600,0.34849072265625,0.281474177891016,-0.04385963652525097,0.12375441736201755
1772618886704521700,0.358521728515625,0.1352554426640272,-0.03283940787697211,0.06595141301709227
1772618886714551800,0.3685517578125,-0.17841653899848461,-0.01466306039635092,-0.048760514643555505
1772618886724582700,0.378582763671875,-0.18305998089015482,-0.019635989970713853,-0.059611551604233676
1772618886734612700,0.38861279296875,0.010832359659671782,-0.03644152402216568,0.013601404247898607
1772618886744642800,0.398642822265625,0.3193845140904188,-0.05353119051093235,0.13913082279264927
1772618886754673700,0.408673583984375,-0.04117138382196426,-0.032377690383046866,0.0009757314306683837
1772618886764703700,0.418703857421875,-0.1896884591192007,-0.02111238266620785,-0.06572233523526229
1772618886774734800,0.42873486328125,-0.12174421918392181,-0.022508312270324675,-0.039143723052414134
1772618886784764700,0.4387646484375,0.12594576252698897,-0.035640491571277376,0.052445642030239104
1772618886794794500,0.44879443359375,0.23501287096738813,-0.043349147986155,0.09966953995735384
1772618886804825900,0.458825927734375,-0.11915420269072055,-0.030098621268849816,-0.03055908752060495
1772618886814855700,0.468855712890625,-0.1656412285774946,-0.034258499160967765,-0.05640853604553267
1772618886824886500,0.478886474609375,-0.08330079902112483,-0.027998872510623184,-0.025144067601393906
1772618886834916600,0.48891650390625,0.17759937739670276,-0.040123719666246324,0.0876853981803637
1772618886844947500,0.498947509765625,0.12727788791358471,-0.060000441323965786,0.07373636780488305
1772618886854977500,0.5089775390625,-0.13473521818220616,-0.03928991745691746,-0.020779561382113024
1772618886865007600,0.519007568359375,-0.154892455548048,-0.016252466745954007,-0.05410505400928668
1772618886875038700,0.529038818359375,-0.05921089838147163,-0.030695838243328034,-0.01649947291011922
1772618886885068500,0.539068603515625,0.19406652807295321,-0.0420161640830338,0.0950270661800634
1772618886895099600,0.549099609375,0.0690635993540287,-0.03601325214011594,0.026234456653986125
1772618886905129700,0.559129638671875,-0.10811901393532752,-0.02976257598120719,-0.031903360002720725
1772618886915159800,0.569159912109375,-0.13500117564201355,-0.02321003079889342,-0.04212567060580477
1772618886925190700,0.579190673828125,-0.02882277438044548,-0.023985600014962253,-0.0011559285694733262
1772618886935220700,0.589220703125,0.17896365148723126,-0.0386461031280458,0.08305298000620677
1772618886945251600,0.59925146484375,0.04900865331888198,-0.032140630224160846,0.04872864906741306
1772618886955281700,0.60928173828125,-0.09584931494891644,-0.013808288464229553,-0.031912228295765815
1772618886965311700,0.619311767578125,-0.12990706737339497,-0.030249592313170433,-0.0461313534500543
1772618886975342800,0.6293427734375,-0.023725743502378462,-0.026678656757529822,-0.004258232833212241
1772618886985372700,0.63937255859375,0.17507190474569798,-0.039019740479718894,0.0766897651172243
1772618886995403800,0.64940380859375,0.06456219628155231,-0.043791411860939114,0.033490556128928435
1772618887005434400,0.659434326171875,-0.10707739592790604,-0.02813007940854877,-0.029440696216234935
1772618887015464200,0.669464111328125,-0.10161562339067458,-0.022819515377655624,-0.023070631461357696
1772618887025495300,0.679495361328125,-0.03539280042052269,-0.03320637802584096,-0.013875143155362457
1772618887035525400,0.689525390625,0.13525310457646847,-0.04799547595465555,0.06941849547261372
1772618887045556200,0.69955615234375,0.0777121852338314,-0.03645124169858172,0.04141387820779346
1772618887055586300,0.70958642578125,-0.08658581204116345,-0.03444399352939799,-0.01469243262130767
1772618887065617400,0.719617431640625,-0.07168576455116271,-0.027437804561760273,-0.029070648194290696
1772618887075647200,0.729647216796875,-0.03733692022562027,-0.028590098135732114,-0.024095910255331546
1772618887085677300,0.73967724609375,0.10097206479012966,-0.047199302341975266,0.04051718509639613
1772618887095708400,0.74970849609375,0.08577858731150627,-0.032320571634639056,0.05892522244104184
1772618887105738500,0.759738525390625,-0.07806406741142273,-0.02442685924274847,-0.005649285332811996
1772618887115769300,0.769769287109375,-0.08350655072629451,-0.01945701667461544,-0.04407370853419416
1772618887125799400,0.77979931640625,-0.03299626067280769,-0.024541736060380934,-0.028849826784152537
1772618887135829500,0.78982958984375,0.06713233903050422,-0.04330088839763775,0.024829622224206104
1772618887145860400,0.7998603515625,0.1138888295084238,-0.04134476762749254,0.06575117773725651
1772618887155890200,0.80989013671875,-0.04529927740693092,-0.03821383092431351,0.002633298512501642
1772618887165921500,0.819921630859375,-0.07122574582397938,-0.018725798056926576,-0.021009196286369113
1772618887175951400,0.829951416015625,-0.04854395841658115,-0.023915548719745126,-0.01352705123689957
1772618887185981200,0.839981201171875,0.03360416343808174,-0.04104006732618436,0.018034116865182293
1772618887196012300,0.85001220703125,0.1023468602746725,-0.04823430794551968,0.04312570536066778
1772618887206042400,0.86004248046875,-0.01567921516895294,-0.028836145318672058,0.009701647729845718
1772618887216073200,0.8700732421875,-0.07809855420291423,-0.04241279871780425,-0.011045764948334544
1772618887226103300,0.880103271484375,-0.06424421637356281,-0.025903032742533832,-0.021692118782922626
1772618887236134400,0.890134521484375,-0.010998948398232459,-0.026020101517252623,0.02207551947678439
1772618887246164200,0.900164306640625,0.08765724066495895,-0.055051294483989474,0.04878937541185878
1772618887256194300,0.9101943359375,0.03234159615635872,-0.04685001398026943,0.013376774312322958
1772618887266225400,0.920225341796875,-0.05205401236414909,-0.02542065605306998,-0.007061362354131415
1772618887276255500,0.93025537109375,-0.07753916675448418,-0.027074341544229535,-0.01850328701320104
1772618887286286300,0.940286376953125,-0.022063363248109816,-0.039338231844361866,0.0021961218047887084
1772618887296316400,0.95031640625,0.05741174000501632,-0.03845313783921301,0.025680457766726613
1772618887306346500,0.960346435546875,0.05431845016479492,-0.029370380059536544,0.04350062135397456
1772618887316377300,0.97037744140625,-0.02436754853725433,-0.04470883723311126,0.0000926923852879554
1772618887326407400,0.980407470703125,-0.06075403617024421,-0.035758893786557014,-0.010388689279090613
1772618887336438500,0.9904384765625,-0.04419102390408516,-0.025279201755765823,-0.022051435348298398
1772618887346468400,1.00046826171875,0.018338205245137212,-0.022004089075233785,-0.0013136581481434403
1772618887356498200,1.010498291015625,0.06116378601491451,-0.027076022044662383,0.03752173874061555
1772618887366529300,1.020529296875,0.010177695143222809,-0.03896687778132036,0.0021461725826840846
1772618887376559400,1.030559326171875,-0.019743395867943762,-0.032897713935468344,-0.0038730603073723613
1772618887386590200,1.040590087890625,-0.05524257927238941,-0.02486877605766058,-0.031235945602552963
1772618887396620300,1.050620361328125,-0.02564648243188858,-0.019527378497086464,-0.0027091950266156344
1772618887406651100,1.060651123046875,0.037056934240460394,-0.025075477610900995,0.024783974717883392
1772618887416681200,1.07068115234375,0.04622165294885635,-0.04692879657121375,0.03941166240675375
1772618887426711300,1.080711181640625,0.009590250644087792,-0.03441336092911661,0.014512189816730097
1772618887436742400,1.090742431640625,-0.03950023573935032,-0.03144346000654623,-0.012740714031644165
1772618887446772200,1.100772216796875,-0.036245617857575414,-0.019272746148891746,-0.0013713431521318851
1772618887456803300,1.11080322265625,0.009217910200357437,-0.02433079672344029,0.022866523724002764
1772618887466833400,1.12083349609375,0.05232639956474304,-0.04044767265729606,0.029568386849667876
1772618887476863500,1.130863525390625,0.02123275764286518,-0.026377792381122707,0.015476769665721804
1772618887486894300,1.140894287109375,-0.015562310791015624,-0.02660876985909417,-0.0088993640367873
1772618887496924400,1.15092431640625,-0.035333179187774656,-0.023032281345501542,-0.0033109055131208148
1772618887506955300,1.160955322265625,-0.04015373121201992,-0.02125679610557854,-0.00787842349121347
1772618887516985300,1.1709853515625,-0.0023106150299310683,-0.04172273409441113,0.0010781323592178524
1772618887527015400,1.181015380859375,0.025690321573615074,-0.03151577632408589,0.012061481329519301
1772618887537046500,1.191046630859375,0.034247137516736983,-0.03271804651962593,0.025114521846501155
1772618887547076400,1.201076416015625,-0.014827566775679587,-0.02023070446085185,0.0003815375303383916
1772618887557107500,1.211107421875,-0.05001227740347385,-0.03756935900831595,0.0009698679454624653
1772618887567137300,1.22113720703125,-0.016519173124432563,-0.043468171255942434,-0.010328282595053315
1772618887577168100,1.231168212890625,0.011160276439785956,-0.03855113658728078,0.0148421615566127
1772618887587198200,1.2411982421875,0.020011106893420217,-0.03959841715050861,0.024303881317051128
1772618887597228300,1.251228271484375,0.013150573474168776,-0.03802957866489887,0.027296834321646018
1772618887607259400,1.26125927734375,-0.00809445912837982,-0.020703674001153558,0.0027387955804355443
1772618887617289200,1.271289306640625,-0.03010930705964565,-0.0326020737234503,-0.003950609922455624
1772618887627320300,1.2813203125,-0.023845570489764212,-0.030398152204696088,-0.004891845428477972
1772618887637350400,1.291350341796875,0.009068857118487358,-0.02131917555099353,0.028257824840908868
1772618887647381200,1.30138134765625,0.014324877950549125,-0.04364624950289726,0.014251593518629669
1772618887657411300,1.311411376953125,0.013897007927298545,-0.03417233698116615,0.024689309571217743
1772618887667441400,1.32144140625,-0.0253057061702013,-0.04548665320519358,-0.001489252177067101
1772618887677472300,1.33147216796875,-0.022930209210515022,-0.048778187297563995,-0.008826828523539006
1772618887687502300,1.34150244140625,-0.0011029928058385848,-0.03231786822089925,0.0030296226200181987
1772618887697533400,1.351533447265625,0.010714870759844779,-0.04095755840819329,0.013370189307909458
1772618887707563500,1.3615634765625,0.014921674799919127,-0.04771121565317735,0.007656579167768358
1772618887717593300,1.37159326171875,0.018228315129876136,-0.035054362246394154,0.0031859182934276756
1772618887727624400,1.38162451171875,-0.040132103902101514,-0.03662488123243674,-0.002216397407837212
1772618887737654500,1.391654541015625,-0.016806173372268675,-0.035455033735465255,0.0010072408137843012
1772618887747685400,1.401685302734375,-0.007545593073964118,-0.028946912216767668,0.011081329452060163
1772618887757715200,1.411715087890625,-0.00485328525006771,-0.04052278372012078,0.006666481285030022
1772618887767745300,1.421745361328125,0.015506196689605713,-0.026333679244760422,0.011761767730582505
1772618887777776000,1.431776123046875,-0.000045008185505867,-0.040540629904065276,0.021915524875791743
1772618887787806200,1.44180615234375,-0.021447277176380158,-0.022404961493704467,-0.002821103569027036
1772618887797837300,1.45183740234375,-0.01846855362653732,-0.031345716986805196,-0.014065167568437755
1772618887807867400,1.461867431640625,-0.014593173497915267,-0.04401150261871516,-0.00610681984196417
1772618887817898200,1.471898193359375,0.0015647650986909865,-0.03644510421874001,-0.006818383911112323
1772618887827928300,1.48192822265625,0.012798691296577453,-0.032460528094600885,0.016678281809436157
1772618887837958400,1.49195849609375,-0.006497545325756073,-0.030077341018803414,0.025320574945770204
1772618887847989200,1.5019892578125,-0.02191080303490162,-0.02761538961837068,0.013114972437825053
1772618887858019300,1.512019287109375,-0.017290742018818854,-0.02008559690173715,0.008044254177948459
1772618887868050400,1.522050537109375,-0.006529694029688835,-0.022445256971474734,-0.0007177015489898622
1772618887878080300,1.532080322265625,-0.015512626430392265,-0.028690179243031886,0.006406679571373388
1772618887888110300,1.5421103515625,0.012922609937191009,-0.03549598680036142,0.017350381517875938
1772618887898141400,1.552141357421875,0.002301262679696083,-0.034256855193153024,0.013740675721270962
1772618887908171500,1.562171630859375,-0.006531447595357894,-0.030630901514645665,0.008908643321786076
1772618887918202400,1.572202392578125,-0.02135784532725811,-0.020402700026892123,0.006988671577256173
1772618887928232400,1.582232421875,-0.017934885141253472,-0.0246633714123629,0.008280455820308997
1772618887938262300,1.59226220703125,0.013034253618121147,-0.0189277869024314,0.002815377081139013
1772618887948293400,1.60229345703125,0.006754150435328483,-0.04137786617949605,0.0028558460888452827
1772618887958323200,1.6123232421875,0.007206570377945899,-0.025101434036064893,0.009515550573216751
1772618887968354300,1.622354248046875,-0.014496142864227294,-0.02003711811751127,0.005474997344985604
1772618887978384400,1.63238427734375,-0.019294483056664466,-0.028616237223986533,0.008272692638961597
1772618887988415200,1.642415283203125,-0.0013490765213966369,-0.026251279924623668,0.0016934786454308778
1772618887998445300,1.6524453125,-0.0070411506831645964,-0.028784159403108057,0.015480587324313818
1772618888008475100,1.66247509765625,0.0025350714355707165,-0.03852112504150718,0.007983765295520424
1772618888018506200,1.67250634765625,-0.003893500307202339,-0.01570898925270885,0.015609054275881499
1772618888028536000,1.6825361328125,-0.015866846695542336,-0.010009736431483179,0.01542693917462602
1772618888038567200,1.692567138671875,-0.014676175606250763,-0.032909057313390076,0.009791810231329873
1772618888048597000,1.702596923828125,-0.014088731107115745,-0.026825682279095053,0.004817930808896199
1772618888058627000,1.712626953125,-0.011402268502116203,-0.0308599975627847,0.009524227070016785
1772618888068658200,1.722658203125,-0.000027472528815269467,-0.025587189992703496,0.005667871302273124
1772618888078688300,1.732688232421875,0.013294365859031676,-0.02618258033627644,0.01610635453984141
1772618888088719000,1.742718994140625,-0.0019698387682437896,-0.03176459998600185,-0.011128849255060776
1772618888098749200,1.752749267578125,-0.021425065344572065,-0.03269563375841826,-0.004261593834077939
1772618888108780000,1.762780029296875,-0.005572831696271896,-0.054043797941878434,0.014498544883867724
1772618888118810000,1.77281005859375,-0.007825579059123993,-0.02490192940859124,0.006263855300890281
1772618888128840200,1.782840087890625,-0.0019908815562725067,-0.02846992408847436,0.015655752094974742
1772618888138871300,1.792871337890625,0.009983633875846862,-0.03641670010816306,0.006688464787974953
1772618888148901000,1.802901123046875,-0.005126841494441032,-0.03594595905756578,-0.0009979889282491058
1772618888158932200,1.81293212890625,-0.00019523031115531922,-0.03573332095388323,0.010165876841265707
1772618888168962300,1.82296240234375,-0.022501754665374754,-0.01994123826129362,-0.01435083437571302
1772618888178992400,1.832992431640625,-0.005301613539457321,-0.02510130617190152,-0.007846329586207866
1772618888189023200,1.843023193359375,-0.005607318487763404,-0.029775983452051877,0.002844329180987552
1772618888199053300,1.85305322265625,-0.004259995532035828,-0.03448264503935352,0.0007045406733173877
1772618888209084200,1.863084228515625,0.0023240590333938596,-0.04035772935152054,0.005109461101377382
1772618888219114000,1.873114013671875,-0.003515314644575119,-0.029785755927395074,0.006171546508092433
1772618888229145300,1.883145263671875,-0.0023287352085113525,-0.018079462977405637,-0.003932681540120393
1772618888239175200,1.893175048828125,-0.00967091466486454,-0.03308050489015877,0.01101765309870243
1772618888249205000,1.903205078125,0.0018500117808580398,-0.009852152983285485,0.008607842877460643
1772618888259236000,1.913236083984375,-0.004282791885733604,-0.01563342153215781,-0.00705589159457013
1772618888269266200,1.92326611328125,0.0028968904852867123,-0.028144199265446514,0.0027090123635251074
1772618888279297000,1.933297119140625,-0.008927987343072891,-0.022718137362413106,0.009018451238656416
1772618888289327000,1.9433271484375,-0.00175415019094944,-0.023736337961629033,0.01645206270497292
1772618888299357200,1.953357177734375,-0.001312251642346382,-0.033203656345792115,0.004115463361656293
1772618888309388300,1.96338818359375,-0.008048281899094581,-0.002738448520563543,-0.0036985987896099685
1772618888319418000,1.973418212890625,0.017085574835538863,-0.018678871908970177,-0.005984417305001989
1772618888329449200,1.98344921875,0.0009252981513738632,-0.021943116135615854,0.011953563975635914
1772618888339479300,1.993479248046875,-0.014486205992102623,-0.02812954968558624,0.011341788752842695
1772618888349510100,2.00351025390625,0.00002396539747714996,-0.024998028460517525,-0.006181903505325317
1772618888359540200,2.013540283203125,0.00016425065100193021,-0.011080416136607527,-0.01023421110343188
1772618888369570300,2.0235703125,-0.012113047119975089,-0.024763982242625205,0.02036624960717745
1772618888379601200,2.03360107421875,-0.0028390228182077408,-0.026194033312052487,-0.01000903317858465
1772618888389631200,2.04363134765625,-0.002387187397480011,-0.027087767281383273,0.013636950485315174
1772618888399662300,2.053662353515625,0.0019546411991119383,-0.030948753558471796,0.004327736139157786
1772618888409692200,2.063692138671875,-0.0019417817175388335,-0.02657541557876393,-0.0027007285923697053
1772618888419722000,2.073721923828125,-0.005838204634189605,-0.024056893419194966,-0.005011014828737825
1772618888429753000,2.083753173828125,-0.0006038111120462417,-0.008732026379555464,0.005459617112763226
1772618888439783200,2.093783203125,0.005232639956474304,-0.01756709300847724,-0.006456318266224116
1772618888449814000,2.10381396484375,0.0017874679386615752,-0.030890794559847563,-0.005035327286086976
1772618888459844000,2.113843994140625,-0.009438274952769278,-0.024731249016802757,0.0063150466320104895
1772618888469875200,2.123875244140625,-0.0018126023799180982,-0.008619999106135218,-0.004230851635942235
1772618888479905000,2.133905029296875,-0.0030167174726724623,-0.009179222157783806,0.001175336522841826
1772618888489935000,2.14393505859375,0.0071533788859844205,-0.00975718644252047,0.002375149899814278
1772618888499966200,2.15396630859375,-0.001975099465250969,-0.016537402900867162,-0.0015474760371726006
1772618888509996300,2.163996337890625,0.0026654198169708252,-0.018532631838694212,0.006210371547983959
1772618888520027100,2.174027099609375,0.003567337092757225,-0.021015132836811244,0.010431651637982577
1772618888530057200,2.18405712890625,-0.0157376673579216,-0.02820398489497602,0.019875634812330827
1772618888540088000,2.194088134765625,-0.005416764351725578,-0.0168282573399134,0.005415485710091888
1772618888550118100,2.2041181640625,-0.003173369339108467,-0.031339214180782435,0.0018725524062290786
1772618888560148200,2.214148193359375,0.0014624737679958342,-0.018531882920023054,-0.01441361567992717
1772618888570179300,2.224179443359375,0.00685059654712677,-0.007341357472445816,0.0025325506849214435
1772618888580209200,2.234209228515625,-0.01903846246898174,-0.017075619697105138,0.007011002140073106
1772618888590240300,2.244240234375,-0.012310615518689155,-0.010249974928144365,0.007263460797490551
1772618888600270300,2.254270263671875,-0.009921090033650397,-0.026221286645159124,0.01197606806838885
1772618888610300200,2.264300048828125,-0.006783961051702499,-0.025626572155021128,0.013505944516789168
1772618888620331300,2.274331298828125,-0.004994155025482177,-0.015572667788248508,0.011515601816633716
1772618888630361000,2.284361083984375,-0.00454699577987194,-0.02083356572482735,-0.00004947429806925356
1772618888640392200,2.29439208984375,-0.00694295100569725,-0.03626972938552499,0.0027784243379253893
1772618888650422000,2.304422119140625,-0.009787819042801857,-0.028644002013746648,0.010379565257718786
1772618888660453000,2.314453125,0.0011345569878816605,-0.035170627303514626,0.007998862399952485
1772618888670483200,2.324483154296875,-0.012332242828607558,-0.00977178122345358,-0.013612656294275074
1772618888680513000,2.334512939453125,-0.016677578556537627,-0.015576065321732311,0.0042002647014334794
1772618888690544000,2.344544189453125,0.0009773205995559692,-0.02070694367047399,0.006122136142104864
1772618888700574200,2.35457421875,-0.00815291131734848,-0.02701784385032952,0.010768144450196996
1772618888710605000,2.36460498046875,-0.011446107643842697,-0.024116587717179207,0.010369701450830325
1772618888720635100,2.37463525390625,-0.0005266542226076126,-0.02388707154393196,0.009253365106228739
1772618888730666200,2.384666259765625,0.004402034351229668,-0.014391257717646658,-0.01154716599867679
1772618888740696000,2.394696044921875,0.002297171026468277,-0.021662947487365452,0.0015646007019095123
1772618888750726100,2.40472607421875,-0.0032429274439811705,-0.01796190101234242,0.009065879710111767
1772618888760757200,2.41475732421875,0.000796118813753128,-0.014863715801294893,0.004855851666489616
1772618888770787300,2.424787353515625,-0.006386486166715622,-0.010774382394738494,0.005541641973564401
1772618888780818200,2.434818115234375,-0.004599018228054046,-0.01008663759259507,-0.018255915522854774
1772618888790848300,2.44484814453125,0.0021288287222385404,-0.006568035012390464,-0.00040416035410016773
1772618888800878300,2.45487841796875,0.008701777371764183,-0.01647763553764671,0.0004828059477265924
1772618888810909200,2.4649091796875,-0.007310615274310111,-0.012211502525769174,-0.006211166132427752
1772618888820939000,2.47493896484375,-0.010303367349505424,-0.021745182410720734,-0.0010070307512301951
1772618888830970400,2.484970458984375,0.0040653497427701945,-0.009128332220762968,-0.001052888320107013
1772618888841000200,2.495000244140625,0.0007756605476140976,-0.012203757610730826,0.013050720695732161
1772618888851031000,2.505031005859375,-0.003713467565178871,-0.024073625358287245,0.0027615097357425837
1772618888861061000,2.51506103515625,0.0003267477363348007,-0.030963001279532908,-0.006666298621939495
1772618888871091200,2.52509130859375,-0.010298106652498244,-0.01600824619391933,-0.0044858949760906396
1772618888881122000,2.5351220703125,0.003619359540939331,-0.01735962427025661,0.0026739958490710706
1772618888891152100,2.545152099609375,-0.007449731484055519,-0.016711791353393346,-0.005956077126506715
1772618888901183200,2.555183349609375,-0.003859598037600517,-0.018296521527878938,0.0036237982540391384
1772618888911213000,2.565213134765625,0.008560323074460028,-0.01901077074445784,-0.013986165781784802
1772618888921244200,2.575244140625,-0.011045710149407386,-0.019830142569635063,0.018154217847203835
1772618888931274200,2.585274169921875,-0.004164718464016914,-0.025767423664126543,0.01218076032763347
1772618888941304300,2.59530419921875,-0.01464051977097988,-0.013970274092908947,-0.0036621027041226625
1772618888951335200,2.605335205078125,0.004515431597828865,-0.005333652645535767,0.00815321271144785
1772618888961365200,2.615365234375,-0.0052139352560043335,-0.028409206877183166,0.022513043244369327
1772618888971396000,2.62539599609375,-0.006115268009901046,-0.012820702198985963,0.003506939541874453
1772618888981426200,2.63542626953125,-0.00926174934208393,-0.013897537650261074,-0.014722535498626529
1772618888991456300,2.645456298828125,-0.0032779987573623654,-0.02748029199661687,0.0032968039225321263
1772618889001487400,2.6554873046875,-0.010313888743519782,-0.01902825160222128,0.005714733518147841
1772618889011517000,2.665516845703125,-0.0028390228182077408,-0.01257657297849655,-0.01420451210704632
1772618889021548000,2.675548095703125,0.006738368344306946,-0.001905870153941214,-0.017024510564375667
1772618889031578000,2.685578125,-0.008973580050468444,-0.007186915829405188,0.0061887716375291345
1772618889041609000,2.69560888671875,-0.013168109130859374,-0.017776607573311776,0.00028521928270347415
1772618889051639000,2.70563916015625,0.010474632263183592,-0.01586721202172339,-0.0009558211538009345
1772618889061669000,2.715669189453125,0.005537760382890701,-0.0066767012849450105,-0.0031341241741087286
1772618889071700200,2.7257001953125,-0.010029811105132102,-0.02080085076531395,-0.008371485971473157
1772618889081730000,2.73572998046875,-0.006141571494936942,-0.008562332368455827,-0.006962075831275433
1772618889091761200,2.74576123046875,-0.00958382090330124,-0.020443086836207658,-0.0020276790358591825
1772618889101791200,2.755791259765625,-0.01586743121743202,-0.02614199259756133,0.009700871411710978
1772618889111822000,2.765822021484375,-0.006140986973047256,-0.014194767031166702,0.0005621273947879671
1772618889121852200,2.77585205078125,0.0005915361523628235,-0.014654383899550883,0.014486196858948096
1772618889131882000,2.785882080078125,-0.004648702588677406,-0.013518493471108376,-0.0001736943327821791
1772618889141912800,2.795912841796875,-0.009888941329717635,-0.029880357141979036,-0.009337700655125082
1772618889151943000,2.80594287109375,-0.007945990568399428,-0.0049146417821757495,-0.012883720965217798
1772618889161974000,2.81597412109375,-0.013632219511270522,-0.014989826398994772,0.006901358619984239
1772618889172004000,2.826004150390625,-0.008249941951036453,-0.012540570083353667,-0.0035750728746410457
1772618889182035000,2.836034912109375,-0.0031646015107631683,-0.010492916838545351,-0.0035921610067598518
1772618889192065000,2.84606494140625,0.003119593325257301,-0.025511549206916243,-0.006400377694750204
1772618889202095000,2.85609521484375,-0.0007709843724966049,-0.016355561794247478,-0.0027640761521644888
1772618889212126000,2.8661259765625,0.0019248305827379226,-0.008521671564504504,0.008798387880343943
1772618889222156000,2.876156005859375,0.0010293430477380753,-0.01786366480225697,0.0019764877047389745
1772618889232187100,2.886187255859375,-0.0043599487751722335,-0.010585983683168888,0.006637109060073271
1772618889242217000,2.896217041015625,0.003122515934705734,-0.019461711116041988,0.01166546774925664
1772618889252248000,2.906248046875,0.009108020085096358,-0.0006467917372472584,0.01997113107605837
1772618889262278100,2.916278076171875,-0.008543956461548805,-0.002845964015647769,0.0020915106528438627
1772618889272308200,2.92630810546875,0.005973813712596893,-0.01410942683527246,0.0003452789068687707
1772618889282339000,2.936339111328125,-0.006143909582495689,-0.001959207776375115,0.004229490795917809
1772618889292369200,2.946369140625,0.0016366612911224365,-0.014295396127738058,0.0070082621937152
1772618889302400000,2.95639990234375,-0.0025549451798200606,-0.007214899814873933,0.013114899372588843
1772618889312430000,2.96643017578125,-0.005847556984424591,-0.011221961765456943,-0.0010897679980844258
1772618889322461200,2.976461181640625,-0.0070458268582820885,-0.016339688371680677,0.015583837636234239
1772618889332491300,2.9864912109375,-0.008691840499639511,-0.01368323731245473,-0.0027580026044044643
1772618889342520800,2.996520751953125,-0.0025549451798200606,-0.023194942827615885,-0.0013978019007947296
1772618889352552000,3.006552001953125,-0.01662087993323803,-0.017709533686470238,-0.0011946622778195887
1772618889362582000,3.01658203125,-0.015274141499400137,-0.0012805595961399377,-0.00023336123130284248
1772618889372612900,3.02661279296875,-0.001661211210489273,-0.01335513786925003,0.0002670534383505583
1772618889382643000,3.036642822265625,0.007465513575077056,-0.01983403329346329,0.006920099853072315
1772618889392674000,3.046674072265625,-0.0083960724234581,-0.018178283709380776,-0.0014223061543889343
1772618889402704100,3.0567041015625,0.007759528085589409,-0.0180593152385205,-0.009895681597758084
1772618889412734000,3.06673388671875,-0.008255787169933318,-0.019168719518836586,0.005753028835076839
1772618889422765000,3.07676513671875,0.000571077886223793,-0.026094847253896294,0.005220173200545832
1772618889432795100,3.086795166015625,0.004613631275296211,-0.01784488703655079,0.00981608615606092
1772618889442826000,3.096825927734375,-0.011701543709635734,-0.010094145045615732,0.01713509479938075
1772618889452856000,3.10685595703125,-0.011548983496427535,-0.009082447252422571,0.005971046366775408
1772618889462887200,3.11688720703125,0.0022176760494709014,-0.012069408907648176,0.004313862877432257
1772618889472917000,3.1269169921875,0.0010229133069515229,-0.015615063891559838,0.004499110650690272
1772618889482947000,3.136947021484375,0.0005751695394515991,-0.008879490292537958,-0.01740482425200753
1772618889492978200,3.146978271484375,0.004161795854568481,0.0035264570930972692,0.0025250797645188865
1772618889503008000,3.157008056640625,0.002212415352463722,-0.006334025327116251,-0.002775218600686639
1772618889513039000,3.1670390625,0.001613280415534973,-0.007272548286244272,-0.01113427434884943
1772618889523069200,3.177069091796875,-0.0016816694766283035,-0.009189213828835635,0.016435431230580434
1772618889533100000,3.18710009765625,0.00011398176848888397,-0.013722710806317626,0.009620563583960757
1772618889543130000,3.197130126953125,-0.017097849795222282,-0.013249412472452968,-0.004556603858433664
1772618889553160000,3.207159912109375,-0.01530278307199478,-0.015446794652566313,-0.0036225378787145017
1772618889563191000,3.21719091796875,-0.0051245034068822855,-0.006541201804392039,0.014006742778932674
1772618889573220900,3.227220947265625,-0.014254735323786735,-0.01408336081225425,0.022208479940379038
1772618889583252000,3.237251953125,-0.01485270121693611,-0.012279708923771976,0.010008101596822961
1772618889593282000,3.247281982421875,-0.00991699838042259,-0.010240476447436957,0.013149559694016351
1772618889603312000,3.25731201171875,-0.015154314512014388,-0.010040478629618883,-0.006502595960209146
1772618889613343000,3.267343017578125,-0.005272971966862678,-0.014142086995858697,0.0077519475673325355
1772618889623373000,3.277373046875,-0.006469488275051116,-0.023126827761158347,0.0006529292170889675
1772618889633404000,3.28740380859375,-0.0031762919485569,-0.014159549587313086,0.005355709213716909
1772618889643434000,3.29743408203125,0.0013128361642360687,-0.004626618621032684,0.0027176066619344053
1772618889653465000,3.307465087890625,-0.010212766456604003,-0.020802293803729114,-0.010949921624734998
1772618889663495200,3.3174951171875,0.004451134189963341,-0.008264244471024721,0.002959023335529491
1772618889673526000,3.327526123046875,0.010135609567165374,0.00427000546939671,-0.010441113586071879
1772618889683556000,3.33755615234375,-0.006474748972058296,-0.014267320810724049,-0.002095401376672089
1772618889693586200,3.347586181640625,0.006837737065553665,-0.01491352802608162,-0.004433845128444955
1772618889703617000,3.357616943359375,-0.006933598655462264,-0.010192910978663712,0.012363405151851475
1772618889713647000,3.367647216796875,-0.010674538749456406,-0.013915566497296094,0.0038422359108459202
1772618889723678200,3.37767822265625,-0.015613748717308043,-0.011900646478310227,-0.0019489603769965468
1772618889733708000,3.3877080078125,-0.004393851044774055,-0.016228410016931594,0.0023406905077863484
1772618889743739100,3.3977392578125,-0.00020458266139030456,-0.01104026678930968,-0.00260725988894701
1772618889753769200,3.407769287109375,-0.010229133069515228,-0.013122991347499191,-0.007095867411931976
1772618889763799000,3.417799072265625,0.011314590218663215,-0.009378909448347985,0.0033373825280927118
1772618889773830000,3.427829833984375,0.007573650124669075,-0.010385584006551653,-0.005833820720016956
1772618889783860000,3.43785986328125,0.001287117201089859,-0.010729264611378311,-0.00399854985056445
1772618889793891000,3.44789111328125,-0.003203764477372169,-0.00552789657600224,-0.002415089184558019
1772618889803921000,3.4579208984375,-0.010084171640872955,-0.005481682814098894,0.005434665334597229
1772618889813952000,3.467951904296875,-0.009635843351483344,-0.02009602696420625,0.0023060758521314707
1772618889823982000,3.477982177734375,-0.007692308068275451,-0.015715766053367407,-0.001357643420342356
1772618889834012000,3.488011962890625,-0.003355740168690681,-0.025041995466407386,0.006821553115732968
1772618889844043000,3.49804296875,0.0030798458367586132,-0.016444847512897102,0.0025712204611860216
1772618889854073000,3.508072998046875,-0.0015559972703456878,-0.00470814115833491,0.004307442269800231
1772618889864104000,3.51810400390625,-0.0018500117808580398,-0.01587276497967541,0.007002563105290755
1772618889874134000,3.528134033203125,-0.012774141377210616,-0.008831723894365132,-0.0030694614400621502
1772618889884164000,3.5381640625,-0.0055921209186315535,-0.0033903000254184006,0.0014608024007175117
1772618889894195200,3.5481953125,0.004135492369532585,0.007252528411522507,0.0010321743256412445
1772618889904225000,3.55822509765625,0.006826046627759933,-0.01832258755089715,0.002894753327127546
1772618889914256100,3.568256103515625,0.01655015278458595,-0.009559088320843874,-0.008777409024396911
1772618889924286200,3.5782861328125,0.00921557211279869,-0.021688337656948713,-0.01110379701219499
1772618889934317000,3.588317138671875,-0.022205986589193344,-0.0020300627891905606,-0.0004821940263733267
1772618889944347100,3.59834716796875,-0.020261282262206075,-0.019708598549198358,0.0031691680880263444
1772618889954378200,3.608378173828125,0.00891629690527916,-0.014383275340590624,-0.001462702096858993
1772618889964408000,3.618407958984375,-0.0017085574835538863,-0.012369798360019921,-0.014202292750496417
1772618889974438000,3.62843798828125,0.002485387074947357,-0.018088760528713464,-0.004331362001504749
1772618889984469000,3.638468994140625,-0.0008078092515468597,-0.019113427401334045,0.008312239198060706
1772618889994499000,3.6484990234375,0.00263034850358963,-0.013262454617116599,-0.0056183696047402915
1772618890004530000,3.658530029296875,-0.0018605331748723982,-0.007213475042767823,0.0012452599538955837
1772618890014559200,3.668559326171875,-0.008738602250814437,-0.01116131761940196,-0.0034397560571786012
1772618890024590300,3.67859033203125,-0.009336568143963813,-0.012397216089908033,0.00007990596895106137
1772618890034620200,3.6886201171875,0.0008382043898105621,-0.013593750664405524,-0.0038698819695971902
1772618890044650200,3.698650146484375,0.007274374917149543,-0.018110844496358185,-0.008247850458649918
1772618890054681300,3.708681396484375,-0.0008083937734365463,-0.015313907254207879,-0.004474633796559647
1772618890064711400,3.71871142578125,-0.003202595433592796,-0.0038085985027253625,0.00475502164051868
1772618890074742300,3.7287421875,-0.013527590093016623,-0.01501161810569465,0.0020918759790249167
1772618890084772400,3.7387724609375,-0.015175941821932791,-0.0035294893004000185,0.005980773176345974
1772618890094803500,3.748803466796875,0.00936111806333065,0.00274909777874127,-0.006169847741350531
1772618890104833300,3.758833251953125,-0.0053010290175676345,-0.018145568749867377,-0.0020987989101558923
1772618890114863400,3.76886328125,-0.01158405480980873,-0.017459504448156804,0.0001799779430963099
1772618890124894500,3.77889453125,-0.003954290583729743,-0.013619542692787945,-0.0029081516648177055
1772618890134924300,3.78892431640625,0.006668225717544555,-0.023713760803639888,0.01551952196205966
1772618890144955400,3.798955322265625,0.002777063497900963,-0.009694332073070109,0.0002449786038603634
1772618890154985200,3.808985107421875,-0.02266366722881794,-0.00782921405462548,0.012138455555867404
1772618890165016300,3.819016357421875,-0.0021639000356197357,-0.004535049613751471,0.003557409353787079
1772618890175046100,3.829046142578125,-0.011884499061107634,-0.01252864218354225,-0.0023359047348145393
1772618890185077200,3.8390771484375,-0.015322656816244125,-0.015668730307556687,0.001432361757522449
1772618890195107300,3.849107421875,-0.009335983622074127,-0.012507416732423006,-0.01548391179256141
1772618890205137200,3.85913720703125,-0.0002098433583974838,-0.015750179779622703,-0.012254574482515454
1772618890215168300,3.869168212890625,-0.003653261810541153,-0.010450082343816756,0.00400766473878175
1772618890225198300,3.8791982421875,-0.00021568857729434965,-0.0117617311979644,0.010766144289355725
1772618890235229200,3.889229248046875,-0.0035100539475679394,-0.0060044097802601755,0.002031761555932462
1772618890245259300,3.89925927734375,0.00861176100075245,-0.013526439315546304,0.0029223445869516577
1772618890255290400,3.909290283203125,0.0020247838258743286,-0.009653086747229098,-0.003654841846274212
1772618890265320200,3.9193203125,0.0027706337571144104,-0.019106340073421595,0.0019257164987269788
1772618890275350300,3.929350341796875,-0.012191373053193092,-0.008092851693183183,0.015016339946584776
1772618890285381400,3.93938134765625,-0.0047118309527635575,-0.02321003079889342,0.0005769687708932906
1772618890295411500,3.949411376953125,0.006062661039829254,-0.006687259211577474,0.016931745113851503
1772618890305442300,3.9594423828125,-0.001270166066288948,-0.016889157214295118,0.007649774967646226
1772618890315472400,3.969472412109375,0.0021720833420753476,-0.005043346195761114,0.0005753796020057052
1772618890325503200,3.979503173828125,-0.0018698855251073835,-0.0072381162936799226,-0.0024815968158189206
1772618890335533300,3.989533203125,0.0014227262794971466,0.006326335211005061,-0.00026257819263264537
1772618890345563400,3.9995634765625,-0.0035182372540235518,-0.01643881963090971,0.004490077960863709
1772618890355594500,4.009594482421875,0.004561608827114105,-0.017921295007318257,-0.0015028788436204194
1772618890365624000,4.0196240234375,0.002763619494438171,-0.024223427358828483,0.008000497234612703
1772618890375655400,4.029655517578125,0.017126491367816923,-0.02383919554790482,0.011666061404300853
1772618890385685200,4.039685302734375,-0.002179097604751587,-0.014643570244591682,0.007969471908686682
1772618890395716000,4.049716064453125,-0.01265372986793518,-0.013161642857454716,-0.0020489775522146373
1772618890405746200,4.05974609375,0.0050040918976068495,-0.02149928135825321,0.0018204477596562355
1772618890415776300,4.0697763671875,0.008894085073471069,-0.015217369810864328,0.0047906592094805085
1772618890425807400,4.079807373046875,-0.016692191603779792,-0.018310202993359417,0.00787750104260631
1772618890435837200,4.089837158203125,0.003661445116996765,-0.02097244447255507,-0.0006705379390157759
1772618890445868300,4.099868408203125,-0.00023380875587463378,-0.017109741162415593,0.0018487148729152976
1772618890455898400,4.1098984375,-0.011162030005455017,-0.025191212945058942,-0.014722946490580216
1772618890465929200,4.11992919921875,-0.007272036829590797,-0.0057615044024772934,-0.001984734943276271
1772618890475959300,4.129959228515625,-0.0021866963893175124,-0.016538900738209485,-0.008311261950526385
1772618890485989400,4.1399892578125,-0.0038368016839027404,-0.015638134239893405,0.011677368249604478
1772618890496020200,4.150020263671875,-0.00623100334405899,-0.00636189971473068,0.019182190921762956
1772618890506050300,4.16005029296875,-0.001443184545636177,-0.021231040609814227,-0.002062220626277849
1772618890516081400,4.170081298828125,-0.011168459746241569,-0.011831910357344894,0.0048389187979977575
1772618890526111500,4.180111572265625,-0.009520692539215087,-0.016112510285992174,0.003151997757516801
1772618890536142300,4.190142333984375,0.001107084459066391,-0.016809333443734795,-0.0011906984887551516
1772618890546172400,4.20017236328125,-0.0012830255478620527,-0.014138378935121,0.008679976531909777
1772618890556203300,4.210203369140625,-0.009360533541440964,-0.012733681502658873,0.00355923598469235
1772618890566233300,4.2202333984375,0.0069482117027044295,-0.014830580716673284,-0.00930369792082347
1772618890576263200,4.23026318359375,0.0005126256972551345,-0.002046776461973786,0.01240708902995102
1772618890586294500,4.24029443359375,0.00005728314518928528,-0.0003195142779499292,-0.009854536736616864
1772618890596324000,4.250323974609375,0.0010994856745004653,-0.013443966930173336,-0.0028733178134541957
1772618890606355200,4.260355224609375,0.006035188511013984,-0.005766454572230577,-0.007198624533507973
1772618890616385300,4.27038525390625,-0.015666355687379837,-0.009648026979621499,-0.0005414042671676725
1772618890626416000,4.280416015625,-0.0023491934746503827,-0.013267715314123778,0.01686939306790009
1772618890636446200,4.2904462890625,-0.0010018705189228057,-0.011065090703312307,0.006505153243476524
1772618890646477300,4.300477294921875,-0.0022001403927803037,-0.015667890057340265,0.005552373430132865
1772618890656507100,4.310507080078125,0.005880290210247039,-0.005347187980543822,0.006711169810127466
1772618890666537200,4.320537109375,-0.00923427681326866,0.002022445738315582,-0.0033466252804733813
1772618890676568300,4.330568359375,-0.0063935004293918605,-0.016295246441755444,-0.0211653914950788
1772618890686598400,4.340598388671875,-0.004894201782345771,-0.02312593271201476,0.016589662811066955
1772618890696629200,4.350629150390625,-0.0020469956576824187,0.00846460761502385,0.004452376298978924
1772618890706659300,4.360659423828125,-0.008484335228800773,0.001405629014223814,0.0023371194443665443
1772618890716690200,4.370690185546875,0.001841243952512741,-0.019283614602778106,0.006219038911629468
1772618890726720300,4.38072021484375,-0.0017529811471700667,-0.0038785036674700677,0.003520675806282088
1772618890736750300,4.390750244140625,-0.0008557400465011596,-0.01848952334932983,0.0042187410730402915
1772618890746781400,4.400781494140625,-0.004295651367306709,-0.01136180862756446,0.013529371058149263
1772618890756811300,4.410811279296875,-0.001603343543410301,-0.011434526803903281,0.008042080487171187
1772618890766842400,4.42084228515625,0.0010907178461551665,-0.0027667612995952366,0.007949598164437337
1772618890776872400,4.43087255859375,-0.012075637719035148,-0.003777162184845656,-0.003930179055780172
1772618890786903300,4.4409033203125,-0.007133505141735077,-0.012303162864595651,0.000007662716647610067
1772618890796933400,4.450933349609375,-0.016411621096730233,-0.014525405491329729,0.003031869376031682
1772618890806963200,4.460963134765625,-0.003994622594118118,-0.011985018559824675,-0.002659236671356484
1772618890816994300,4.470994384765625,-0.008633972832560538,-0.015707418350130318,-0.0011625044407323002
1772618890827024100,4.481024169921875,-0.008783025914430618,-0.02360292084030807,0.0019642310113646088
1772618890837055200,4.49105517578125,-0.009531213933229445,-0.021800839854404327,-0.009087717082584277
1772618890847085300,4.501085205078125,-0.0047404725253582,-0.007035159333795308,0.00612757950220257
1772618890857116200,4.5111162109375,-0.014914076015353201,-0.0032242227435111998,-0.0067414370842278
1772618890867146200,4.521146240234375,-0.016116437542438505,-0.02413361191721633,0.0011200352721847592
1772618890877177300,4.53117724609375,-0.006693360158801079,-0.021013123542815447,-0.0035109398635569957
1772618890887207200,4.541207275390625,-0.003850830209255218,-0.016636278431769458,0.0032736970415804534
1772618890897237200,4.5512373046875,-0.01702127742767334,-0.015443744178954512,0.006802912347344681
1772618890907268400,4.561268310546875,-0.010138532176613807,-0.02313292870838195,0.0018580580899957566
1772618890917298400,4.57129833984375,-0.0002601122409105301,-0.0032671303034760056,0.00887121565453708
1772618890927329300,4.581329345703125,0.006621463966369629,-0.012012856414820998,0.0032442243519239127
1772618890937359400,4.591359375,-0.019416063609719276,-0.015423377244360744,0.01208665230339393
1772618890947390200,4.60139013671875,-0.006100654962658882,-0.01340814669812098,-0.010431021450320259
1772618890957420300,4.611420166015625,-0.009693711018562316,0.005241316453274339,-0.0037126821138896045
1772618890967451400,4.621451416015625,-0.0014618892461061477,0.000450520246475935,-0.009492635488510131
1772618890977481500,4.6314814453125,0.000481061515212059,-0.010774455459974706,0.011533347535878419
1772618890987511300,4.64151123046875,-0.02301964105963707,-0.010525029009860009,-0.004436913868365809
1772618890997542400,4.65154248046875,-0.008657353708148002,-0.002261643055360764,-0.0038622009866405276
1772618891007573000,4.661572998046875,-0.004916413614153862,0.0031196663904935118,-0.004216558249108493
1772618891017603800,4.671603759765625,-0.01913257049322128,-0.019503650561627,0.006180223004892468
1772618891027634000,4.681634033203125,-0.013145897299051284,-0.01507993410155177,0.007033898958470672
1772618891037664800,4.691664794921875,-0.00835807850062847,-0.00577376109585166,0.012736841574124991
1772618891047694800,4.70169482421875,-0.0019184008419513702,-0.0008771664270199835,0.012793695461051538
1772618891057725000,4.711724853515625,-0.0013157587736845017,-0.005863996662572026,0.008298064542235806
1772618891067756000,4.721756103515625,-0.009096329647302627,-0.009916432124841957,0.0027831096461974083
1772618891077785900,4.731785888671875,-0.0004161795854568481,-0.020842059558536855,0.013838108213758095
1772618891087817000,4.74181689453125,0.006615034225583076,-0.019060089778900145,-0.00368362041618675
1772618891097847000,4.751846923828125,-0.0005687397986650467,-0.019501549936085938,0.013995061474293469
1772618891107878000,4.7618779296875,-0.00431084893643856,0.0008395378303714096,-0.003196969410404563
1772618891117908000,4.771907958984375,-0.015081833797693251,0.000878372003417462,-0.007955726511124521
1772618891127939000,4.78193896484375,-0.011045710149407386,-0.020988190030958503,-0.009436978044826537
1772618891137969000,4.791968994140625,0.002125321590900421,-0.017692144160252065,-0.008117913069203496
1772618891147998700,4.801998779296875,-0.002063362270593643,-0.004433799462672323,-0.001965235658362508
1772618891158030000,4.812030029296875,0.004670914420485496,-0.005879468226339668,0.003370645476877689
1772618891168060000,4.822059814453125,-0.002511106038093567,-0.004395969936624169,0.01554919558111578
1772618891178090800,4.8320908203125,-0.004156535157561302,-0.020121252737008034,0.015380853276886045
1772618891188120800,4.842120849609375,0.003775426885485649,-0.012717534085456282,-0.0008016900380142033
1772618891198152000,4.85215185546875,0.005721300256252289,-0.017024291368667035,-0.002477148969564587
1772618891208181800,4.862181640625,-0.0017605799317359924,-0.02704109686175361,-0.004847823623660951
1772618891218212900,4.872212890625,0.004969020584225654,-0.017718283248506484,0.006713124305196106
1772618891228243000,4.882242919921875,0.0034703064590692516,-0.006568363805953413,0.004394572563981637
1772618891238273000,4.89227294921875,-0.011344985356926917,-0.01205141659323126,0.007703423117334023
1772618891248303900,4.902303955078125,-0.004011573728919029,-0.010795059856586157,0.003131137632578611
1772618891258334000,4.912333984375,-0.017030629777908323,-0.006709416244458407,0.0018275807533413172
1772618891268364800,4.92236474609375,-0.004458732974529266,-0.007838438540697098,-0.0021885047539137305
1772618891278395000,4.932394775390625,-0.013883563923835754,-0.01811316431760788,-0.008905793777573853
1772618891288426000,4.942426025390625,0.0054226095706224435,-0.01779978751949966,0.02249730681912042
1772618891298456000,4.9524560546875,-0.0010100538253784179,-0.014755707115866244,0.0073565093758050345
1772618891308487000,4.96248681640625,-0.006397592082619667,-0.00974619012447074,0.00535159929418005
1772618891318517000,4.97251708984375,-0.010883213064074516,-0.014804405095800756,0.003977927187643945
1772618891328547000,4.982547119140625,-0.001603343543410301,-0.013486271701939404,0.010981759801413863
1772618891338578000,4.992577880859375,-0.0039987142473459246,-0.007098379029426723,0.008455127400625496
1772618891348608000,5.00260791015625,-0.014022095611691474,-0.002184303502831608,0.006682409506523981
1772618891358639000,5.01263916015625,-0.012376666492223739,-0.007884177378565073,0.009901992607535794
1772618891368669000,5.0226689453125,0.005428454789519309,-0.014553133748471735,0.0007238755614496767
1772618891378700000,5.032699951171875,0.002883446481823921,-0.013000497478991745,0.009435936865210532
1772618891388729900,5.042729736328125,-0.002503507253527641,-0.002697952113393694,0.013864009839994832
1772618891398760000,5.052760009765625,-0.010136194089055061,-0.0042108774269931015,-0.005342119079781696
1772618891408790800,5.062790771484375,-0.015974398723244666,-0.002382401624508202,0.0027252693785820153
1772618891418820900,5.07282080078125,-0.0035550621330738066,-0.014790358304139226,0.012129769925912842
1772618891428852000,5.08285205078125,-0.010140870264172553,-0.0036898309612646697,0.0031912429225165397
1772618891438881800,5.0928818359375,-0.002957096239924431,-0.007309939420875162,0.007878514822758734
1772618891448913000,5.102912841796875,0.003474398112297058,-0.010928714439924806,0.010259509941469878
1772618891458943000,5.11294287109375,-0.012686463093757629,-0.010576028544735163,-0.0012941497300751506
1772618891468973800,5.122973876953125,-0.0013134206861257552,-0.00012525208117440342,-0.0018674652391579
1772618891479004000,5.13300390625,0.0012310030996799469,-0.016430837253853678,0.010165904240729287
1772618891489034000,5.143033935546875,-0.006401683735847472,-0.01985248226560652,-0.001868597750319168
1772618891499064800,5.15306494140625,0.004674421551823616,-0.002005695532914251,0.006538827184215188
1772618891509095000,5.163094970703125,-0.0017640870630741118,-0.009310830914508551,-0.0006380787078291177
1772618891519126000,5.1731259765625,-0.009395604854822158,-0.019754867110028863,-0.004163257159292698
1772618891529156000,5.183156005859375,-0.007153963407874107,-0.003949687473848462,-0.007364190358761698
1772618891539187000,5.19318701171875,0.009153612792491913,-0.012066650694981217,-0.003372435575164854
1772618891549217000,5.203217041015625,0.007356207981705666,-0.001676226116530597,-0.016860561307473106
1772618891559248000,5.213247802734375,-0.005810147583484649,-0.003700315822660923,0.011524497509142383
1772618891569278000,5.22327783203125,-0.005062544086575508,-0.0024967304528690872,0.0047824211040977385
1772618891579308000,5.23330810546875,-0.00955284124314785,-0.012131770086754113,0.0043980157632380725
1772618891589339100,5.243339111328125,-0.009400281029939651,-0.017326379587780685,0.006086617304151877
1772618891599368700,5.25336865234375,0.00661094257235527,-0.01837687502140179,-0.0040966947291046375
1772618891609400000,5.263400146484375,-0.00940203459560871,-0.007076605589035898,0.003998641182109713
1772618891619430000,5.273429931640625,-0.009551672199368475,-0.00538032306516543,0.006951070380071178
1772618891629460700,5.283460693359375,-0.008504208973050117,-0.0066972143500112,0.016460602204455062
1772618891639490800,5.29349072265625,-0.008802315136790275,-0.0016977255622856319,0.017450553956720977
1772618891649522000,5.30352197265625,-0.0005745850175619125,-0.005012896258570254,0.016857309904461725
1772618891659552800,5.313552734375,0.0034592005431652068,-0.018546368103101847,0.001799468903709203
1772618891669582800,5.323582763671875,0.0012122983992099762,-0.013072229274641722,0.00956654097493738
1772618891679613000,5.333613037109375,0.0009159458011388778,-0.008853807862009852,-0.0013632785766851156
1772618891689643800,5.343643798828125,0.010646481698751448,-0.010963055100943893,0.005845228030020371
1772618891699673900,5.353673828125,-0.0026718495577573776,-0.0187215785395354,-0.007885958343697711
1772618891709705000,5.363705078125,-0.0049158290922641755,0.00038457887079566713,0.004325279320590198
1772618891719734800,5.37373486328125,-0.008803484180569648,-0.0009245857653208076,0.013599760280083865
1772618891729766000,5.383765869140625,-0.003269230929017067,-0.005763276234455406,0.014810241181543097
1772618891739796000,5.3937958984375,-0.026612112593650816,-0.012204342132620513,0.01782487629498355
1772618891749826800,5.403826904296875,-0.0023749124377965927,-0.01266405033254996,0.009543415827676652
1772618891759857000,5.41385693359375,0.0004652794241905212,-0.025822222591284662,0.0001624148869421333
1772618891769887000,5.423886962890625,0.0068967737764120095,-0.015540866144187747,0.010724378373706713
1772618891779918000,5.43391796875,-0.006720248165726661,-0.011009396727010607,-0.003839569029724225
1772618891789948000,5.443947998046875,-0.013003858479857444,-0.002565156046580523,0.007179892433574423
1772618891799979000,5.45397900390625,-0.002979308071732521,-0.015265008344873786,0.009784549373481423
1772618891810009000,5.464009033203125,0.0010609072297811507,-0.020809563794732092,-0.007128956830780952
1772618891820040000,5.4740400390625,-0.005375263297557831,0.0012724493549205363,-0.003686835286580026
1772618891830070000,5.484070068359375,-0.024380992540717124,-0.00943003684738651,0.0064554597496986384
1772618891840101000,5.49410107421875,-0.01480477042198181,0.0013252024554647505,-0.005776683705300092
1772618891850131000,5.504130859375,0.006743629041314125,-0.00006201411923393607,0.004404235441470518
1772618891860160800,5.514160888671875,-0.028123101678490636,-0.006301054639276117,0.00795227417871356
1772618891870191900,5.52419189453125,-0.013759645283222198,-0.007844137629121542,-0.005708696503005922
1772618891880222000,5.534221923828125,0.001952303111553192,-0.009336641209200023,-0.0002082998552825302
1772618891890252800,5.544252685546875,-0.00912146408855915,-0.009175733292754739,0.0012882223127875477
1772618891900283000,5.554282958984375,-0.014205635485053061,-0.009174399852193892,0.01114794668117538
1772618891910313700,5.564313720703125,-0.01555120487511158,-0.017777484356146303,0.006177199930744245
1772618891920343800,5.57434375,0.007046411380171776,0.004664429880771786,0.004568139032600447
1772618891930375000,5.584375,-0.016295885762572286,0.004526811508368701,0.004353034977195784
1772618891940405000,5.594405029296875,0.007946575090289116,-0.007513170375395566,-0.014999964200519024
1772618891950434800,5.604434814453125,-0.014199790266156196,-0.008293835891690105,0.011739108374202624
1772618891960466000,5.6144658203125,0.0019616554617881772,-0.0019032763380557296,0.002524467843165621
1772618891970496000,5.62449609375,-0.014050737184286117,-0.009196757814474403,0.00847730269981548
1772618891980526800,5.63452685546875,0.0018126023799180982,-0.020185111753456293,0.004173678088607267
1772618891990557000,5.644556884765625,0.008397241467237472,-0.006351487918570637,-0.0031283520204480734
1772618892000588000,5.654588134765625,-0.014651041164994239,-0.012428688940405845,-0.00591860379348509
1772618892010617900,5.664617919921875,0.002858312040567398,-0.010700549973547458,-0.003066639295313507
1772618892020649000,5.67464892578125,-0.003876549172401428,-0.014423990943469106,-0.0020991916358005253
1772618892030678000,5.684677978515625,-0.004176408901810646,-0.01173783886572346,-0.019060783898644146
1772618892040709000,5.694709228515625,-0.0037251580029726027,-0.00684445906728506,-0.009068162998743355
1772618892050738700,5.70473876953125,-0.007464344531297683,-0.006430836765095592,-0.000888153611915186
1772618892060770000,5.71477001953125,0.007495908713340759,-0.012818893834389746,0.0038435145524796095
1772618892070800000,5.7247998046875,-0.007020692417025565,-0.010217150370776652,0.0007037552220281213
1772618892080830700,5.734830810546875,0.00315232655107975,0.004313040893524885,0.0047106436426751315
1772618892090860800,5.74486083984375,-0.0022328736186027526,-0.011596512432582676,0.005078928965795785
1772618892100892000,5.754891845703125,-0.010611410385370255,-0.005912037055380642,-0.002445630453294143
1772618892110922000,5.764921875,-0.008663198927044868,-0.012837671600095926,0.00315280147511512
1772618892120951800,5.774951904296875,-0.006269581788778305,-0.014601923059951514,0.008272208581771702
1772618892130983000,5.78498291015625,0.0013619360029697416,0.00006911971345543861,-0.013571036509098484
1772618892141013000,5.795012939453125,-0.005966799449920654,-0.011267938065342605,-0.00925742022683844
1772618892151043800,5.8050439453125,-0.002527472651004791,-0.008092979557346553,-0.0020614625744521616
1772618892161074000,5.815073974609375,-0.00566635519862175,-0.0026229871810413896,-0.0171774635032285
1772618892171105000,5.82510498046875,-0.009109189128875731,-0.008853698264155536,-0.012983601143117994
1772618892181134800,5.835134765625,-0.0098556235820055,-0.013337985805049538,0.00122829055278562
1772618892191166000,5.845166015625,-0.018384382474422454,-0.013007566540595143,-0.005497410106193274
1772618892201196000,5.855196044921875,-0.005365910947322845,-0.00790374059556052,0.008745589114027097
1772618892211227000,5.865226806640625,-0.006412205129861831,-0.012631792030762881,-0.007053206447139382
1772618892221257000,5.875257080078125,0.0028700024783611298,-0.011921835396811365,0.00195769167272374
1772618892231287000,5.885287109375,0.002272036585211754,-0.00878202126743272,0.0034828006144613025
1772618892241318000,5.89531787109375,0.014541735571622848,-0.016077932162955402,0.017011011761985717
1772618892251348000,5.905347900390625,-0.003711713999509811,-0.01949838986461982,0.005130567821487784
1772618892261379000,5.915379150390625,-0.00864741683602333,-0.008076138020399958,0.003607870032545179
1772618892271409200,5.9254091796875,-0.020021628287434576,-0.009697272948827594,0.010411038108216598
1772618892281440000,5.93543994140625,0.0018219547301530836,-0.0058376201122999185,-0.010778967238310724
1772618892291469800,5.9454697265625,0.0028729250878095627,-0.0037037498887628317,-0.005756663830578327
1772618892301501000,5.9555009765625,-0.011494038438796997,-0.0017326872778125105,0.017324826951511205
1772618892311530800,5.96553076171875,-0.007453238615393638,-0.007583075540140271,0.011673769786721095
1772618892321560800,5.975560791015625,-0.00011807342171669006,-0.00447597637027502,-0.004133766203327104
1772618892331592000,5.985592041015625,-0.007001403194665908,-0.009806194949708878,-0.002673758387053385
1772618892341621800,5.995621826171875,-0.009397942942380905,-0.00014344532499089836,0.010504698607884347
1772618892351652900,6.00565283203125,-0.013441080853343008,-0.022434808642696587,0.001110271929996088
1772618892361683000,6.015682861328125,-0.010448913300037383,-0.015045776103623211,0.012728265542024745
1772618892371713800,6.0257138671875,0.004967851540446281,-0.0036661212921142577,0.017110837140958755
1772618892381743900,6.035743896484375,-0.0146352590739727,-0.005759933499898761,0.008117693873494864
1772618892391775000,6.04577490234375,-0.017477789023518563,-0.0021643018944188953,-0.008579137372784316
1772618892401804800,6.0558046875,-0.004161795854568481,-0.021991119995806364,0.004716653258353472
1772618892411835000,6.0658349609375,-0.0005699088424444198,-0.011271920120716095,-0.009255812791641801
1772618892421866000,6.075865966796875,-0.009095160603523254,-0.0018850648279301822,0.009866263707028701
1772618892431896000,6.08589599609375,-0.0138859020113945,-0.011343706715293228,-0.009387101887958124
1772618892441927000,6.095927001953125,-0.006257891350984573,-0.011348346357792615,-0.007339640439394861
1772618892451957000,6.10595703125,-0.015533669218420981,-0.00907461100583896,0.0048722822114825245
1772618892461988000,6.115988037109375,-0.009546411502361298,-0.011689926337078212,0.00008593385093845427
1772618892472018000,6.126017822265625,-0.009843348622322083,-0.006677048344817012,0.005836980791483074
1772618892482049000,6.136049072265625,-0.009694295540452003,-0.012310414589289576,0.007413682923140004
1772618892492079000,6.1460791015625,-0.012238719326257705,-0.006164020788762718,0.001798692585574463
1772618892502110000,6.15610986328125,0.001827215427160263,-0.01785104278270155,0.0023857078264467417
1772618892512140000,6.16614013671875,0.0027256255716085432,-0.007532861456554383,0.008115629780571907
1772618892522169900,6.176169921875,-0.0023626374781131744,-0.01283546137670055,-0.002080980125674978
1772618892532200700,6.18620068359375,0.005117489144206047,-0.003480846119392663,0.009893553572753443
1772618892542230800,6.196230712890625,0.006911971345543861,-0.006860295957233756,-0.008461319679394364
1772618892552262000,6.206261962890625,-0.002664250773191452,-0.020979349137376993,0.0013120050471741706
1772618892562292000,6.2162919921875,0.003322422420978546,-0.012553301700763403,0.0034478571652434764
1772618892572322800,6.22632275390625,-0.007900397861003876,-0.013178520927019417,0.004277074531000107
1772618892582353000,6.236352783203125,-0.007303016489744186,-0.006532598372828215,0.0232991612539161
1772618892592383700,6.2463837890625,-0.0061047466158866874,-0.007323675685282796,0.007141478385636582
1772618892602413800,6.256413818359375,-0.006403437301516533,-0.024255850057397037,0.0028328670720569786
1772618892612445000,6.26644482421875,-0.015233224967122077,-0.01820456892810762,0.001793879413139075
1772618892622475000,6.27647509765625,-0.015231471401453017,-0.010177585545368493,-0.006681377460062503
1772618892632504800,6.2865048828125,0.009762100079655646,-0.021464264843799173,0.013012260982021689
1772618892642536000,6.296535888671875,-0.008345219019055366,-0.014613065508473664,0.012547611745493487
1772618892652566000,6.30656591796875,-0.0010129764348268508,-0.006272851458098739,-0.0014686843130737543
1772618892662596900,6.316596923828125,-0.001762333497405052,-0.004707355707045644,0.00407983492584899
1772618892672627000,6.326626953125,-0.01642564962208271,-0.007600081473868339,0.005746133303409442
1772618892682658000,6.336657958984375,-0.006254384219646454,-0.024056893419194966,0.005855356698390096
1772618892692688000,6.34668798828125,-0.0035609073519706725,0.004764894580561668,0.0031192827980034052
1772618892702719000,6.356718994140625,-0.01014671548306942,-0.0005613236771896481,0.0015996354826726018
1772618892712749000,6.3667490234375,0.005565817433595657,-0.010705993333645164,0.002817395508289337
1772618892722779100,6.376779052734375,0.007062193471193313,-0.000833619546238333,0.01160373675781302
1772618892732810000,6.38681005859375,-0.0028150574207305907,-0.010758161912299693,0.011562089573172852
1772618892742839800,6.39683984375,-0.006106500181555748,-0.004106010546721518,0.0056630946624558415
1772618892752871000,6.406870849609375,-0.0019224924951791761,-0.004440466665476561,-0.0008820435315370559
1772618892762900700,6.416900634765625,-0.007756605476140975,0.008429627633187919,-0.0056583636884111905
1772618892772931800,6.426931884765625,-0.0026677579045295712,-0.006741601481009274,-0.010484276874363421
1772618892782962000,6.4369619140625,-0.01089957967698574,-0.01367770262081176,0.0003648512570187449
1772618892792992800,6.44699267578125,-0.0004296235889196396,-0.010031929996982216,0.015036323288688435
1772618892803022800,6.45702294921875,0.005404489392042159,-0.0011394706250168383,0.012450809440668672
1772618892813054000,6.467053955078125,-0.006265490135550498,-0.013148125788755714,-0.0004590597459580749
1772618892823083800,6.477083740234375,0.004058920001983642,-0.011140841086953878,0.009336833005445078
1772618892833113900,6.48711376953125,-0.0118032505184412,-0.0022939744223840534,0.00019799765697680412
1772618892843145000,6.49714501953125,-0.01629354767501354,-0.01032636463260278,0.007514558614883571
1772618892853175000,6.507175048828125,-0.010906009417772292,-0.008258947241399436,0.008985106091480701
1772618892863206000,6.517205810546875,-0.0005810147583484649,-0.007217055239342153,0.017678818887798115
1772618892873236000,6.527236083984375,-0.004321370330452919,-0.008397588527109473,0.012807249062368645
1772618892883266800,6.537266845703125,0.0036088381469249723,-0.007843954966031014,-0.0040963294029235835
1772618892893297000,6.547296875,-0.0016308160722255706,-0.011336509789526461,0.01866491644885391
1772618892903328000,6.557327880859375,-0.0032756606698036194,-0.006036960342992097,0.018113876703660933
1772618892913358000,6.567358154296875,-0.013303718209266662,-0.014477566027920693,-0.006156056678015738
1772618892923389000,6.577388916015625,-0.018541034340858457,-0.002439100247807801,0.009376260833535342
1772618892933419000,6.5874189453125,-0.005219195953011513,-0.0056049986665137105,-0.0063260429500602185
1772618892943449000,6.597448974609375,0.0012134674429893494,-0.015148578890971839,0.006286934782378375
1772618892953480000,6.60747998046875,-0.006268997266888618,-0.01930125985732302,0.004801271935040131
1772618892963510000,6.617510009765625,-0.014048983618617056,0.0013566935722716153,-0.0034551819551736115
1772618892973541000,6.627541015625,0.002260346147418022,0.0011420096419751643,-0.020440365156158803
1772618892983570700,6.63757080078125,0.0010638298392295837,-0.01244688218422234,0.005714295126730576
1772618892993602000,6.64760205078125,-0.020634791749715803,0.004638674385007471,0.010146368423197417
1772618893003631900,6.6576318359375,-0.013607085070014,0.00024732582457363605,0.0019122450958006082
1772618893013663000,6.6676630859375,-0.005527823510766029,-0.004943392952624708,0.016606632212176918
1772618893023693000,6.677693115234375,0.0022509937971830368,-0.014854235586896539,0.0038935733724385496
1772618893033724200,6.68772412109375,0.0009030863195657729,-0.024798816093988714,-0.004112111493945122
1772618893043754000,6.69775390625,-0.010317395874857901,-0.016394852625019846,0.013171543196961283
1772618893053784000,6.7077841796875,-0.004633505019545555,-0.002389781213365495,-0.007069874454149976
1772618893063815200,6.717815185546875,0.0012035305708646773,-0.005085468304436654,0.0008689374547917395
1772618893073845200,6.72784521484375,0.005843465331196784,-0.0060408328005112704,0.0015794877437874675
1772618893083876000,6.7378759765625,-0.004927519530057906,-0.0004655534188263118,-0.004366296317568049
1772618893093906200,6.74790625,-0.0019318448454141615,-0.025864636960905043,-0.003989900753227993
1772618893103937000,6.75793701171875,0.0006102408528327941,-0.024331947500910608,-0.009419022263027727
1772618893113967000,6.767967041015625,0.0012099603116512297,-0.005189860260672867,0.00828971683899872
1772618893123998200,6.777998291015625,-0.008668459624052048,-0.016531320219952614,0.004683874366758391
1772618893134028300,6.7880283203125,-0.0023848493099212645,-0.01464612752785906,0.0019574907433241606
1772618893144059100,6.79805908203125,-0.0022340426623821256,-0.018743187583144753,0.007622914360184222
1772618893154089000,6.8080888671875,0.014225509229302406,0.002129011385329068,-0.004373566308571025
1772618893164119000,6.818119140625,-0.0032797523230314253,-0.011547777920030056,-0.00895701250815764
1772618893174150000,6.82814990234375,-0.022128245177865026,-0.008223638466000556,0.004820451559545472
1772618893184180000,6.838179931640625,-0.00746317548751831,0.0017273352492600679,0.006993923141108825
1772618893194211000,6.848211181640625,-0.02542202602624893,-0.024644100456312296,0.024808488104632122
1772618893204241200,6.8582412109375,-0.004321370330452919,-0.015164817639719694,0.005783022114541381
1772618893214272000,6.86827197265625,-0.011650690305233,-0.01500350786447525,-0.004701136028813198
1772618893224302000,6.878302001953125,-0.007308861708641052,-0.014186949050892144,0.0043349147986155
1772618893234333000,6.8883330078125,-0.0004278700232505798,-0.00737898606909439,0.0012693075497634708
1772618893244363000,6.898363037109375,-0.0010246668726205826,-0.01208922785297036,0.005429413770744577
1772618893254394000,6.90839404296875,0.0001695113480091095,0.0033628822955302892,0.013340479156235232
1772618893264424200,6.918424072265625,-0.005368249034881592,-0.01362889504302293,-0.005821445295633748
1772618893274454000,6.9284541015625,0.007344517543911934,-0.008616291045397519,0.0005202244818210602
1772618893284485000,6.938485107421875,0.0037567221850156782,-0.002109302037861198,-0.002928527732565999
1772618893294515200,6.94851513671875,0.010641805523633956,-0.011658800546452403,0.006149042415339499
1772618893304546000,6.958546142578125,-0.00027881694138050077,-0.011604147749766707,-0.004193716229638085
1772618893314576100,6.968576171875,0.003162263423204422,-0.005258760778419673,0.0006401519339065999
1772618893324607200,6.978607177734375,-0.007615151178836822,0.005395611965842545,0.005646490587526932
1772618893334637000,6.988636962890625,0.0016629647761583328,0.0011846432073041797,0.014643369315192103
1772618893344668200,6.998668212890625,-0.006866378638148307,-0.029894257803168147,0.0204266745575238
1772618893354698200,7.0086982421875,-0.006121697750687599,-0.017926464372780174,0.015055968704074621
1772618893364729000,7.01872900390625,-0.0004348842859268188,-0.00764267850657925,0.00034222843325696885
1772618893374759200,7.02875927734375,-0.020634207227826117,-0.004475355315767229,-0.00022762561026029286
1772618893384789000,7.0387890625,0.0007622165441513061,-0.0022846951373852787,0.008207518448261543
1772618893394820000,7.048820068359375,-0.00941606312096119,-0.00886904196375981,0.001489845832111314
1772618893404850000,7.058849853515625,-0.014055413359403609,-0.007497497882228344,0.013746959331585094
1772618893414881000,7.068881103515625,-0.011509236007928848,-0.014917564880382268,0.017680517654540016
1772618893424911000,7.0789111328125,-0.009709493109583854,-0.015857585676852613,0.008817393974913284
1772618893434942000,7.08894189453125,-0.008211948028206824,-0.01130686356993392,-0.0030695162389893084
1772618893444972000,7.098971923828125,-0.008659107273817062,-0.01794157061036676,0.018970639663469045
1772618893455003100,7.109003173828125,0.00032031799554824825,-0.004584405180811882,-0.00013192841713316738
1772618893465033000,7.119032958984375,-0.00850713158249855,-0.0011691533772274852,0.008412037177570164
1772618893475064000,7.12906396484375,0.002712181568145752,-0.0016308343385346234,0.009415414666989818
1772618893485094100,7.13909423828125,0.011533785927295684,-0.020629165726527572,-0.011966304726200177
1772618893495124200,7.149124267578125,-0.006576455780863762,-0.00933282355060801,-0.01006985998773016
1772618893505155000,7.159155029296875,-0.012713935622572899,-0.012514175266772508,0.019300565737579017
1772618893515185200,7.16918505859375,-0.007476034969091415,0.007308587714005261,0.0066064855929464095
1772618893525216000,7.179216064453125,0.010179448708891868,-0.012714976802188903,-0.02572043358408846
1772618893535246000,7.18924609375,0.0073369187593460075,-0.013611779511440545,0.006410871689300984
1772618893545277200,7.199277099609375,-0.0023866028755903245,-0.0062471872938796875,0.002367596781020984
1772618893555307300,7.209307373046875,-0.004482698372006416,0.0003954473246820271,-0.01136451204130426
1772618893565338000,7.219338134765625,0.00748714088499546,-0.012688070528954267,-0.0012717826346401125
1772618893575368200,7.2293681640625,-0.0037350948750972746,-0.004109974335785955,0.011459314185287802
1772618893585399000,7.23939892578125,-0.006578793868422508,-0.004510079569276422,0.020500516111869364
1772618893595429000,7.24942919921875,-0.012263269245624542,-0.0026436646428890523,0.011231277583073823
1772618893605460200,7.259460205078125,0.0022533318847417832,-0.013320833740849048,0.004559307272173464
1772618893615490300,7.269490234375,-0.0013385551273822783,-0.015973832467664033,0.005033975579217076
1772618893625519900,7.279519775390625,-0.008818681749701499,0.00007485533449798821,-0.002380985985556617
1772618893635551000,7.289551025390625,-0.0044768531531095505,0.0008418759179301559,0.021814512186730278
1772618893645581000,7.2995810546875,-0.006122866794466972,-0.019826032650098205,0.008863790399907156
1772618893655612000,7.30961181640625,-0.01734276446700096,-0.018161113378871233,0.007369962512422353
1772618893665642000,7.31964208984375,0.003006196078658104,-0.005692987477220595,0.007281526177143677
1772618893675673000,7.329673095703125,-0.011809680259227752,-0.007495159794669598,-0.004287879052804783
1772618893685703000,7.339702880859375,-0.011363105535507201,0.006201521521247923,0.007337969072116538
1772618893695734000,7.349734130859375,-0.0028349311649799344,-0.0018825440772809088,0.008593394226999953
1772618893705764000,7.35976416015625,0.005094108268618583,0.0004174216944724321,0.015106794709013775
1772618893715795000,7.369794921875,-0.0028396073400974273,-0.008955039746779948,0.01146287611555308
1772618893725825000,7.379824951171875,-0.003889408653974533,-0.007113266071304678,0.01896895002988167
1772618893735855000,7.389855224609375,-0.0005997194588184357,-0.010174169745575636,0.000848917580069974
1772618893745886200,7.39988623046875,-0.0071843585461378095,-0.00247123068543151,-0.003079791037831455
1772618893755916000,7.409916015625,-0.010180033230781555,-0.02179782591341063,0.005125206659780815
1772618893765947100,7.419947021484375,0.004783727145195007,-0.01946545570939779,0.002100899535696953
1772618893775977200,7.429977294921875,-0.00823649794757366,-0.012264821881894022,-0.0023281689529307185
1772618893786008000,7.440008056640625,0.003735679396986961,-0.01964698628876358,0.002272895101737231
1772618893796038100,7.4500380859375,-0.015801380243897437,0.007173124766070395,-0.005227607588330283
1772618893806069200,7.4600693359375,-0.11683540435433387,-0.005991678162850439,-0.029040883243689312
1772618893816099000,7.47009912109375,0.2604728909164667,-0.027213183759339152,0.10928800291577354
1772618893826130200,7.480130126953125,-0.20120938556492327,0.012292531872726976,-0.06693372945217416
1772618893836160300,7.49016015625,0.0828799432605505,-0.00125769017720595,0.03693656839695759
1772618893846191000,7.500191162109375,0.12472820343077182,-0.015090418962948023,0.05736763600180857
1772618893856221200,7.51022119140625,-0.10465805982649326,0.003283789177332073,-0.02892837191307917
1772618893866251000,7.5202509765625,-0.10907938340008258,0.005317486962024122,-0.056765505390195176
