time,seconds_elapsed,z,y,x
1772618886423669500,0.07766943359375,0.006118010729551315,-0.2253851592540741,-0.05208711698651314
1772618886433700600,0.08770068359375,0.0009573325514793396,-0.056510038673877716,-0.014754422008991241
1772618886443730700,0.097730712890625,-0.0037639192305505276,0.17197667062282562,0.04175519198179245
1772618886453761500,0.107761474609375,-0.0077429525554180145,0.18406882882118225,0.03548741713166237
1772618886463791600,0.11779150390625,0.00636620819568634,-0.19381560385227203,-0.0375569686293602
1772618886473821700,0.12782177734375,0.00458777230232954,-0.14922213554382324,-0.03675204887986183
1772618886483852500,0.1378525390625,-0.001196879893541336,0.07008730620145798,0.017679234966635704
1772618886493882600,0.147882568359375,-0.0023371740244328976,0.20376421511173248,0.04600480943918228
1772618886503913700,0.157913818359375,0.003125501796603203,-0.02872016280889511,-0.004719355143606663
1772618886513943600,0.167943603515625,0.005272898823022842,-0.1858663111925125,-0.04352080449461937
1772618886523973600,0.1779736328125,0.0034441063180565834,-0.03560623899102211,-0.009230474010109901
1772618886534004700,0.188004638671875,-0.004503041040152311,0.15427200496196747,0.035679418593645096
1772618886544034800,0.198034912109375,-0.003658019471913576,0.14792701601982117,0.031172549352049828
1772618886554065700,0.208065673828125,0.006714643910527229,-0.16990497708320618,-0.034844499081373215
1772618886564095700,0.218095703125,0.004816076252609491,-0.1202242448925972,-0.02555619366466999
1772618886574126800,0.228126953125,-0.0018433379009366035,0.06811784952878952,0.01802109181880951
1772618886584156700,0.23815673828125,-0.004870020318776369,0.1718791276216507,0.038884297013282776
1772618886594186800,0.248186767578125,0.0033023261930793524,-0.0383719839155674,-0.008154121227562428
1772618886604217900,0.2582177734375,0.00380726158618927,-0.1555691659450531,-0.035932756960392
1772618886614247700,0.26824755859375,0.0016038501635193825,-0.026775365695357323,-0.008383173495531082
1772618886624278800,0.27827880859375,-0.0017980718985199928,0.13019055128097534,0.029434513300657272
1772618886634308600,0.28830859375,-0.0027050552889704704,0.13031409680843353,0.02707144059240818
1772618886644338700,0.298338623046875,0.0047797588631510735,-0.14146149158477783,-0.030115948989987373
1772618886654369500,0.30836962890625,0.0007327310740947723,-0.105809286236763,-0.023483000695705414
1772618886664399600,0.318399658203125,-0.0017570583149790764,0.04730862379074097,0.011208401061594486
1772618886674430700,0.3284306640625,-0.0033130464144051075,0.14229519665241241,0.03232121095061302
1772618886684460500,0.33846044921875,0.0008737090975046158,0.0010137064382433891,-0.0011142436414957047
1772618886694490600,0.34849072265625,0.004511493258178234,-0.13443569839000702,-0.030399998649954796
1772618886704521700,0.358521728515625,0.00024377740919589996,-0.04611276090145111,-0.010094461031258106
1772618886714551800,0.3685517578125,-0.000664097722619772,0.09388180822134018,0.02225729450583458
1772618886724582700,0.378582763671875,-0.003890783991664648,0.12686000764369965,0.026690125465393066
1772618886734612700,0.38861279296875,0.0017892098985612392,-0.09057130664587021,-0.021023541688919067
1772618886744642800,0.398642822265625,0.0036006919108331203,-0.10791993886232376,-0.02331945300102234
1772618886754673700,0.408673583984375,0.0004929965361952782,0.0033127726055681705,-0.0003577858442440629
1772618886764703700,0.418703857421875,-0.0009653503075242043,0.10781733691692352,0.024101484566926956
1772618886774734800,0.42873486328125,-0.005109885707497597,0.08029530197381973,0.01493686530739069
1772618886784764700,0.4387646484375,0.0017461564857512712,-0.11026345938444138,-0.026164231821894646
1772618886794794500,0.44879443359375,0.0010002204217016697,-0.07653027027845383,-0.01574905589222908
1772618886804825900,0.458825927734375,-0.000935098621994257,0.036610931158065796,0.011428769677877426
1772618886814855700,0.468855712890625,-0.0023963931016623974,0.10728316009044647,0.023520614951848984
1772618886824886500,0.478886474609375,-0.0007492280565202236,0.02538164146244526,0.004096317104995251
1772618886834916600,0.48891650390625,0.00410589762032032,-0.10251567512750626,-0.022128190845251083
1772618886844947500,0.498947509765625,0.0022795016411691904,-0.051651161164045334,-0.011800985783338547
1772618886854977500,0.5089775390625,0.00002504279837012291,0.048915691673755646,0.011870216578245163
1772618886865007600,0.519007568359375,-0.00109108816832304,0.09896235167980194,0.025230763480067253
1772618886875038700,0.529038818359375,0.0013492528814822435,-0.011445502750575542,-0.0013816929422318935
1772618886885068500,0.539068603515625,0.0006560320034623146,-0.09307990968227386,-0.019472280517220497
1772618886895099600,0.549099609375,0.0008944747969508171,-0.0373111292719841,-0.010954149067401886
1772618886905129700,0.559129638671875,0.0008017965592443943,0.05121314153075218,0.012374342419207096
1772618886915159800,0.569159912109375,-0.0023283064365386963,0.09092321246862411,0.019283104687929153
1772618886925190700,0.579190673828125,-0.0004760776646435261,-0.020086660981178284,-0.004783615004271269
1772618886935220700,0.589220703125,0.004829737823456526,-0.08278200030326843,-0.019624080508947372
1772618886945251600,0.59925146484375,-0.001595670823007822,-0.031296439468860626,-0.007953309454023838
1772618886955281700,0.60928173828125,-0.0010195407085120678,0.04859073460102081,0.010785410180687904
1772618886965311700,0.619311767578125,-0.0011750692501664162,0.08245442807674408,0.020304348319768906
1772618886975342800,0.6293427734375,0.0013857409358024597,-0.016058720648288727,-0.00516681419685483
1772618886985372700,0.63937255859375,0.0037791237700730562,-0.07383626699447632,-0.0165875144302845
1772618886995403800,0.64940380859375,-0.0005553518421947956,-0.03129584342241287,-0.006374668329954147
1772618887005434400,0.659434326171875,-0.0029452727176249027,0.03845234587788582,0.008272184990346432
1772618887015464200,0.669464111328125,-0.0014263833872973919,0.0715777724981308,0.015508566983044147
1772618887025495300,0.679495361328125,0.0030874081421643496,0.0009329020977020264,0.002591703087091446
1772618887035525400,0.689525390625,0.0005332594737410545,-0.06941603869199753,-0.01213423628360033
1772618887045556200,0.69955615234375,0.0011697548907250166,-0.034614115953445435,-0.003380957990884781
1772618887055586300,0.70958642578125,-0.0014430508017539978,0.02857399731874466,0.004234586842358112
1772618887065617400,0.719617431640625,-0.0030659809708595276,0.06306060403585434,0.01462517585605383
1772618887075647200,0.729647216796875,0.0018104466143995523,0.016098449006676674,0.004231974482536316
1772618887085677300,0.73967724609375,0.003220324171707034,-0.06254735589027405,-0.011851654388010502
1772618887095708400,0.74970849609375,0.0022496117744594812,-0.03719034418463707,-0.008314622566103935
1772618887105738500,0.759738525390625,-0.0017778868786990643,0.018798619508743286,0.008216950111091137
1772618887115769300,0.769769287109375,-0.0005757440812885761,0.057309623807668686,0.013098406605422497
1772618887125799400,0.77979931640625,-0.0003230101428925991,0.031200528144836426,0.006691905669867992
1772618887135829500,0.78982958984375,0.0022773947566747665,-0.051487550139427185,-0.012568005360662937
1772618887145860400,0.7998603515625,0.0019801859743893147,-0.04567386955022812,-0.010037469677627087
1772618887155890200,0.80989013671875,-0.0020205052569508553,0.007754499092698097,0.0009283230174332857
1772618887165921500,0.819921630859375,-0.0012250193394720554,0.047865431755781174,0.010461640544235706
1772618887175951400,0.829951416015625,-0.0028840741142630577,0.03862582892179489,0.0064328499138355255
1772618887185981200,0.839981201171875,0.00037270551547408104,-0.035239338874816895,-0.006010770332068205
1772618887196012300,0.85001220703125,0.0018762368708848953,-0.04557911306619644,-0.011114552617073059
1772618887206042400,0.86004248046875,0.00016861781477928162,-0.006770467385649681,-0.0036553042009472847
1772618887216073200,0.8700732421875,-0.0020968401804566383,0.03718559816479683,0.010100465267896652
1772618887226103300,0.880103271484375,-0.0020443755201995373,0.04422486200928688,0.008516416884958744
1772618887236134400,0.890134521484375,0.000803881324827671,-0.012179731391370296,-0.004248144570738077
1772618887246164200,0.900164306640625,-0.0006917496211826801,-0.041991423815488815,-0.010770492255687714
1772618887256194300,0.9101943359375,-0.0000832979567348957,-0.023199860006570816,-0.0040926579385995865
1772618887266225400,0.920225341796875,0.001054937019944191,0.02015293948352337,0.006779431365430355
1772618887276255500,0.93025537109375,-0.0023166248574852943,0.03989778831601143,0.006886613555252552
1772618887286286300,0.940286376953125,-0.0008585439063608646,0.01337163895368576,0.0012042266316711903
1772618887296316400,0.95031640625,0.0032833870500326157,-0.03170730546116829,-0.0073857796378433704
1772618887306346500,0.960346435546875,0.003168604802340269,-0.03600058704614639,-0.005620636511594057
1772618887316377300,0.97037744140625,0.0010563686955720186,0.0005236370489001274,-0.0008795436006039381
1772618887326407400,0.980407470703125,-0.0004757479764521122,0.034061890095472336,0.009317433461546898
1772618887336438500,0.9904384765625,-0.0010297703556716442,0.02968287467956543,0.008212098851799965
1772618887346468400,1.00046826171875,-0.0008012712933123112,-0.008620304055511951,-0.0010996446944773197
1772618887356498200,1.010498291015625,0.00035774102434515953,-0.0320696085691452,-0.008791773580014706
1772618887366529300,1.020529296875,0.0005247211083769798,-0.02225346304476261,-0.005194908939301968
1772618887376559400,1.030559326171875,0.0018456557299941778,0.01611984893679619,0.004038238897919655
1772618887386590200,1.040590087890625,-0.0017698518931865692,0.033246904611587524,0.00816107913851738
1772618887396620300,1.050620361328125,0.0008923360146582127,0.014948469586670399,0.0013280129060149193
1772618887406651100,1.060651123046875,0.0017687820363789797,-0.018924277275800705,-0.004936274141073227
1772618887416681200,1.07068115234375,0.0023824688978493214,-0.03039160929620266,-0.006954203359782696
1772618887426711300,1.080711181640625,0.0001550009474158287,-0.010255182161927223,-0.0002917733509093523
1772618887436742400,1.090742431640625,-0.001407918520271778,0.02344362810254097,0.004035638645291328
1772618887446772200,1.100772216796875,-0.000006563030183315277,0.027808548882603645,0.00874117761850357
1772618887456803300,1.11080322265625,-0.0013818033039569855,0.005897750146687031,0.002715914975851774
1772618887466833400,1.12083349609375,0.0010067857801914215,-0.023187164217233658,-0.00487702339887619
1772618887476863500,1.130863525390625,-0.0011893543414771557,-0.023020070046186447,-0.003790603019297123
1772618887486894300,1.140894287109375,-0.0015403591096401215,0.0018900735303759575,-0.0002496641827747226
1772618887496924400,1.15092431640625,-0.0004122215323150158,0.024381626397371292,0.006192927714437246
1772618887506955300,1.160955322265625,0.0017292259726673365,0.01967528834939003,0.005706900730729103
1772618887516985300,1.1709853515625,0.0027928866911679506,-0.0034252391196787357,-0.0009019036078825593
1772618887527015400,1.181015380859375,0.005105309188365936,-0.023280169814825058,-0.0052015772089362144
1772618887537046500,1.191046630859375,-0.0002491460181772709,-0.01520487479865551,-0.005349105689674616
1772618887547076400,1.201076416015625,0.002864089561626315,0.005867653526365757,0.002748235361650586
1772618887557107500,1.211107421875,-0.0012763147242367268,0.022100776433944702,0.002558320527896285
1772618887567137300,1.22113720703125,0.00004035234451293945,0.014703845605254173,0.004118134267628193
1772618887577168100,1.231168212890625,-0.00196260679513216,-0.006462696474045515,-0.0036976179108023643
1772618887587198200,1.2411982421875,-0.0009985426440835,-0.01896703615784645,-0.0039146654307842255
1772618887597228300,1.251228271484375,0.002641489962115884,-0.014915918931365013,-0.0050527919083833694
1772618887607259400,1.26125927734375,-0.00047680502757430077,0.008442667312920094,0.0026639834977686405
1772618887617289200,1.271289306640625,0.001742940628901124,0.017394524067640305,0.003020441858097911
1772618887627320300,1.2813203125,0.0018662449438124895,0.008871875703334808,0.004638046026229858
1772618887637350400,1.291350341796875,0.00024609360843896866,-0.005637230351567268,0.0005590642103925347
1772618887647381200,1.30138134765625,0.000394964125007391,-0.017706677317619324,-0.006075402721762657
1772618887657411300,1.311411376953125,0.001432208577170968,-0.009097089059650898,-0.004816336091607809
1772618887667441400,1.32144140625,0.0010593661572784185,0.008814267814159393,0.0004588532028719783
1772618887677472300,1.33147216796875,0.00114860525354743,0.01551859825849533,0.003852752037346363
1772618887687502300,1.34150244140625,0.0011773672886192799,0.008182655088603497,0.0029342276975512505
1772618887697533400,1.351533447265625,0.0018684582319110632,-0.007654100656509399,-0.00224605412222445
1772618887707563500,1.3615634765625,-0.0012682126834988594,-0.013444611802697182,-0.00267349136993289
1772618887717593300,1.37159326171875,0.0011005157139152288,-0.007808503694832325,-0.0019089855486527085
1772618887727624400,1.38162451171875,0.00032207369804382324,0.007374710403382778,0.004366487264633179
1772618887737654500,1.391654541015625,0.00003648409619927406,0.011928645893931389,0.0019861601758748293
1772618887747685400,1.401685302734375,0.000024766195565462112,0.00527154328301549,0.0019366252236068249
1772618887757715200,1.411715087890625,-0.0002439236268401146,-0.006847965531051159,-0.000030209310352802277
1772618887767745300,1.421745361328125,-0.002732381224632263,-0.012068826705217361,-0.0021966909989714622
1772618887777776000,1.431776123046875,0.001624823547899723,-0.006058518774807453,-0.0007776978891342878
1772618887787806200,1.44180615234375,-0.00037600938230752945,0.004270019009709358,0.0005474910140037537
1772618887797837300,1.45183740234375,0.0002561574801802635,0.011402975767850876,0.0023447563871741295
1772618887807867400,1.461867431640625,0.0009882603771984577,0.0041482578963041306,0.0019024050561711192
1772618887817898200,1.471898193359375,-0.0004418264143168926,-0.006021908018738031,-0.003929715137928724
1772618887827928300,1.48192822265625,-0.0012120124883949757,-0.010542623698711395,-0.0013126267585903406
1772618887837958400,1.49195849609375,0.0008375919423997402,-0.006736434064805508,-0.0002702656202018261
1772618887847989200,1.5019892578125,-0.00019278516992926598,0.004387323744595051,0.002136699389666319
1772618887858019300,1.512019287109375,0.0000717933289706707,0.009294167160987854,0.004570871591567993
1772618887868050400,1.522050537109375,-0.001313316635787487,0.005294098984450102,-0.0006984591018408537
1772618887878080300,1.532080322265625,-0.0008316850289702415,-0.0016355644911527634,-0.0007735816761851311
1772618887888110300,1.5421103515625,-0.0006021205335855484,-0.007975485175848007,-0.0018207365646958351
1772618887898141400,1.552141357421875,0.0004423893988132477,-0.004975965246558189,-0.002879973966628313
1772618887908171500,1.562171630859375,-0.0009744120761752129,0.003947488032281399,0.0010657653911039233
1772618887918202400,1.572202392578125,-0.00279548903927207,0.007773563265800476,0.003705257549881935
1772618887928232400,1.582232421875,0.0013976579066365957,0.006995387375354767,0.0020311945118010044
1772618887938262300,1.59226220703125,0.0009536049328744411,-0.002113041002303362,0.0026859177742153406
1772618887948293400,1.60229345703125,-0.00029062386602163315,-0.009300113655626774,-0.0025871414691209793
1772618887958323200,1.6123232421875,-0.0014214827679097652,-0.004438925068825483,-0.00016533699817955494
1772618887968354300,1.622354248046875,-0.0008869864977896214,0.0010943245142698288,-0.0015871986979618669
1772618887978384400,1.63238427734375,0.0009345337748527527,0.006530134007334709,-0.001920403796248138
1772618887988415200,1.642415283203125,0.0000034924596548080444,0.0045210449025034904,-0.0004063966916874051
1772618887998445300,1.6524453125,0.000630534254014492,-0.00030830176547169685,-0.000368624459952116
1772618888008475100,1.66247509765625,0.0007644915021955967,-0.006017319858074188,-0.0028999592177569866
1772618888018506200,1.67250634765625,-0.0016442816704511642,-0.0039056427776813507,-0.002960569690912962
1772618888028536000,1.6825361328125,-0.0018184524960815907,0.002087535336613655,-0.0020321914926171303
1772618888038567200,1.692567138671875,0.00023128697648644447,0.004648810252547264,0.002554418984800577
1772618888048597000,1.702596923828125,0.001973527017980814,0.007036867551505566,0.0024167331866919994
1772618888058627000,1.712626953125,0.0016590123996138573,-0.0015227948315441608,0.0003867789637297392
1772618888068658200,1.722658203125,0.0006014709360897541,-0.004728442057967186,-0.001930703641846776
1772618888078688300,1.732688232421875,0.0012264703400433064,-0.0072139110416173935,0.0011705576907843351
1772618888088719000,1.742718994140625,0.002073888201266527,-0.002844463102519512,0.0000546933151781559
1772618888098749200,1.752749267578125,-0.0005708835087716579,0.002112329937517643,0.0012416853569447994
1772618888108780000,1.762780029296875,-0.0014220299199223518,0.004979755729436874,0.003007360966876149
1772618888118810000,1.77281005859375,-0.000639681238681078,-0.0019599678926169872,0.00013406609650701284
1772618888128840200,1.782840087890625,0.0002612662501633167,-0.0036920879501849413,-0.0022095157764852047
1772618888138871300,1.792871337890625,0.00002568960189819336,-0.004544325638562441,-0.0013862182386219501
1772618888148901000,1.802901123046875,0.0002512591890990734,-0.002937640529125929,-0.0006040479056537151
1772618888158932200,1.81293212890625,-0.0004310500808060169,0.003405652940273285,0.0022082836367189884
1772618888168962300,1.82296240234375,0.0014629901852458715,0.005564678460359573,0.0011331656714901328
1772618888178992400,1.832992431640625,0.0018232380971312523,0.0017331293784081936,0.0008505930891260505
1772618888189023200,1.843023193359375,0.0016605188138782978,-0.002384384162724018,-0.0031300338450819254
1772618888199053300,1.85305322265625,0.002968874527141452,-0.004228417761623859,0.0007471274584531784
1772618888209084200,1.863084228515625,0.0005185003392398357,-0.0002472582273185253,-0.0013908583205193281
1772618888219114000,1.873114013671875,-0.0037091299891471863,0.0018106866627931595,-0.00047435786109417677
1772618888229145300,1.883145263671875,-0.0011996333487331867,0.003219498321413994,0.0034271730110049248
1772618888239175200,1.893175048828125,0.0006156256422400475,0.0029436545446515083,-0.000669069413561374
1772618888249205000,1.903205078125,0.0006446540355682373,-0.0016758646816015244,-0.00015214981976896524
1772618888259236000,1.913236083984375,0.0007192827761173248,-0.002204356249421835,-0.001745800138451159
1772618888269266200,1.92326611328125,-0.0018464066088199615,0.0005727880634367466,-0.0014086440205574036
1772618888279297000,1.933297119140625,-0.0007540760561823845,0.00026539992541074753,0.0002869771560654044
1772618888289327000,1.9433271484375,-0.00037191249430179596,0.004762413911521435,-0.000348186818882823
1772618888299357200,1.953357177734375,0.0005872012116014957,0.004058394581079483,-0.003189967479556799
1772618888309388300,1.96338818359375,-0.0006884532049298286,-0.000019969884306192398,0.0009062405442818999
1772618888319418000,1.973418212890625,0.0005881092511117458,-0.0006134412251412868,-0.0018709899159148335
1772618888329449200,1.98344921875,-0.0006241616792976856,-0.0017546056769788265,-0.0027508982457220554
1772618888339479300,1.993479248046875,0.00004671933129429817,0.001975269988179207,-0.0014211531961336732
1772618888349510100,2.00351025390625,-0.0009583574719727039,0.0011254549026489258,0.0017765043303370476
1772618888359540200,2.013540283203125,-0.00017473893240094185,0.0014749495312571526,-0.0005069851176813245
1772618888369570300,2.0235703125,0.0009310059249401093,0.0007103555835783482,-0.00038021861109882593
1772618888379601200,2.03360107421875,0.0015678878407925367,-0.004032526630908251,0.0013030502013862133
1772618888389631200,2.04363134765625,0.0006112800911068916,-0.002830908168107271,-0.0005680867470800877
1772618888399662300,2.053662353515625,0.0015711169689893723,-0.0015454594977200031,-0.0011176952393725514
1772618888409692200,2.063692138671875,0.00023900391533970833,0.0004473836161196232,0.003126851050183177
1772618888419722000,2.073721923828125,0.0006039189174771309,0.0031630094163119793,0.00033690931741148233
1772618888429753000,2.083753173828125,-0.0009327251464128494,-0.000515881460160017,-0.00032142410054802895
1772618888439783200,2.093783203125,-0.000148093793541193,-0.000005441717803478241,-0.00015886675100773573
1772618888449814000,2.10381396484375,0.0010676393285393715,-0.0005362094379961491,0.0011737790191546082
1772618888459844000,2.113843994140625,0.00005318364128470421,-0.002900451887398958,0.0002841741079464555
1772618888469875200,2.123875244140625,0.0019067435059696436,-0.00008921930566430092,0.00025914038997143507
1772618888479905000,2.133905029296875,-0.00045085325837135315,0.0008321828208863735,0.0026277946308255196
1772618888489935000,2.14393505859375,0.0006226669065654278,0.0013227369636297226,-0.0002414950868114829
1772618888499966200,2.15396630859375,-0.0006593097932636738,-0.0025700367987155914,0.0009134226711466908
1772618888509996300,2.163996337890625,0.0009036990813910961,-0.0030137193389236927,-0.004145784303545952
1772618888520027100,2.174027099609375,0.0018824178259819746,-0.00184699147939682,-0.0003408171469345689
1772618888530057200,2.18405712890625,-0.0005559725686907768,-0.002075224183499813,-0.0010558759095147252
1772618888540088000,2.194088134765625,-0.0009737089276313782,0.0004630689509212971,-0.0016719584818929434
1772618888550118100,2.2041181640625,0.0011616135016083717,0.0015448452904820442,0.0008955950615927577
1772618888560148200,2.214148193359375,0.0009268694557249546,0.001829090528190136,-0.0028757774271070957
1772618888570179300,2.224179443359375,0.0021295531187206507,-0.002114518079906702,-0.0006339284591376781
1772618888580209200,2.234209228515625,-0.000702899880707264,-0.0014173011295497417,0.0016657555243000388
1772618888590240300,2.244240234375,0.0005722218193113804,0.0013835453428328037,0.0011789296986535192
1772618888600270300,2.254270263671875,0.00008537061512470245,0.003821698948740959,-0.0006289185839705169
1772618888610300200,2.264300048828125,-0.0013261046260595322,0.003062431700527668,-0.0009676726767793298
1772618888620331300,2.274331298828125,0.00011336803436279297,-0.0003564460203051567,0.0005618500290438533
1772618888630361000,2.284361083984375,0.00023747142404317856,-0.00016975868493318558,0.000014304183423519135
1772618888640392200,2.29439208984375,0.0013174458872526884,-0.0019839624874293804,0.0005315800663083792
1772618888650422000,2.304422119140625,-0.0015188204124569893,-0.0019221771508455276,-0.00023035029880702496
1772618888660453000,2.314453125,-0.0009289751760661602,-0.0005313553847372532,0.00021556217689067125
1772618888670483200,2.324483154296875,-0.0004911515861749649,0.002046850509941578,-0.0024611810222268105
1772618888680513000,2.334512939453125,-0.0003901580348610878,-0.0011324035003781319,-0.00014138850383460522
1772618888690544000,2.344544189453125,0.0010125287808477879,-0.00047327112406492233,0.0016011178959161043
1772618888700574200,2.35457421875,0.000794688705354929,-0.0008895536884665489,-0.0001718390267342329
1772618888710605000,2.36460498046875,-0.0008135940879583359,-0.00113669503480196,0.0025784072931855917
1772618888720635100,2.37463525390625,0.0004398874007165432,-0.001003239769488573,0.000906023196876049
1772618888730666200,2.384666259765625,0.002069475594907999,0.002305470872670412,0.002030143514275551
1772618888740696000,2.394696044921875,0.0020001523662358522,0.002504378091543913,0.0014211076777428389
1772618888750726100,2.40472607421875,-0.0008337171748280525,0.0015709404833614826,0.0007513228338211775
1772618888760757200,2.41475732421875,0.0008945385925471783,-0.003107760101556778,0.000909863505512476
1772618888770787300,2.424787353515625,-0.0006682043895125389,0.0007213330827653408,-0.0014457025099545717
1772618888780818200,2.434818115234375,-0.002487308345735073,0.001695635262876749,0.0019324134336784482
1772618888790848300,2.44484814453125,0.0002951622009277344,-0.00008175848051905632,0.002745476085692644
1772618888800878300,2.45487841796875,-0.0009351843036711216,0.001175235491245985,0.0017916923388838768
1772618888810909200,2.4649091796875,0.0008150450885295868,0.0006945347413420677,-0.0007841171463951468
1772618888820939000,2.47493896484375,0.0006291419267654419,-0.0028847865760326385,-0.0006285161944106221
1772618888830970400,2.484970458984375,-0.0006547677330672741,-0.000944141298532486,-0.0029646409675478935
1772618888841000200,2.495000244140625,-0.0008136234246194363,-0.0008310629054903984,0.00028816808480769396
1772618888851031000,2.505031005859375,-0.0020655752159655094,0.0024888338521122932,0.00024049740750342607
1772618888861061000,2.51506103515625,0.00018997397273778915,0.0006556105799973011,-0.0005868601147085428
1772618888871091200,2.52509130859375,-0.0014563924632966518,-0.0004133819602429867,-0.0010656964732334018
1772618888881122000,2.5351220703125,-0.0012772832997143269,-0.003014196641743183,-0.0026437195483595133
1772618888891152100,2.545152099609375,-0.0011489186435937881,-0.0006527719087898731,-0.00011185230687260628
1772618888901183200,2.555183349609375,0.0021154035348445177,0.0006635622121393681,-0.002166478894650936
1772618888911213000,2.565213134765625,0.0007420112378895283,-0.000365216750651598,-0.0001621838891878724
1772618888921244200,2.575244140625,0.00043138954788446426,0.0037722443230450153,-0.00004790350794792175
1772618888931274200,2.585274169921875,0.002012508222833276,-0.0019058813340961933,-0.0004489755956456065
1772618888941304300,2.59530419921875,0.00009486684575676918,-0.00006195437163114548,-0.0007270282367244363
1772618888951335200,2.605335205078125,-0.0017733406275510788,-0.0007711541838943958,-0.001618388225324452
1772618888961365200,2.615365234375,0.00041382620111107826,0.0004345392808318138,0.0016163182444870472
1772618888971396000,2.62539599609375,-0.0003054933622479439,0.0013285623863339424,-0.0002454977948218584
1772618888981426200,2.63542626953125,-0.0028692716732621193,-0.0006608390249311924,-0.0008730783010832965
1772618888991456300,2.645456298828125,-0.0015206467360258102,0.0012329351156949997,0.0010529197752475739
1772618889001487400,2.6554873046875,0.0006747473962605,-0.0013679428957402706,0.0007194525096565485
1772618889011517000,2.665516845703125,0.0014816850889474154,-0.0019751437939703465,0.0021200089249759912
1772618889021548000,2.675548095703125,-0.0016259429976344109,0.00006953347474336624,-0.0010211189510300756
1772618889031578000,2.685578125,0.0019038105383515358,0.000657825730741024,-0.0005952795036137104
1772618889041609000,2.69560888671875,-0.0005934815853834152,-0.00038644764572381973,0.0008892979240044951
1772618889051639000,2.70563916015625,-0.00030159903690218925,-0.0006303931586444378,-0.0006087302463129163
1772618889061669000,2.715669189453125,-0.0004663271829485893,-0.001200736965984106,0.0008020329987630248
1772618889071700200,2.7257001953125,0.001477514160797,-0.0011573275551199913,0.003989038057625294
1772618889081730000,2.73572998046875,0.0008722743950784206,-0.0011945734731853008,-0.0015726264100521803
1772618889091761200,2.74576123046875,0.0001684008166193962,-0.0011016293428838253,0.0007757490966469049
1772618889101791200,2.755791259765625,0.0003542248159646988,-0.000028579961508512497,-0.0007785490015521646
1772618889111822000,2.765822021484375,-0.00011209491640329361,-0.0015833335928618908,-0.0000863934401422739
1772618889121852200,2.77585205078125,0.002165291691198945,0.0005380953662097454,-0.0029412019066512585
1772618889131882000,2.785882080078125,-0.0015764497220516205,0.0018100212328135967,-0.0003976166481152177
1772618889141912800,2.795912841796875,-0.00010802643373608589,0.000029579736292362213,-0.0008733543800190091
1772618889151943000,2.80594287109375,0.001679753651842475,-0.002842106856405735,0.0007354612462222576
1772618889161974000,2.81597412109375,0.0007028342224657536,-0.0003021499142050743,-0.0016704353038221598
1772618889172004000,2.826004150390625,-0.0003363313153386116,0.00014446210116147995,0.002288353629410267
1772618889182035000,2.836034912109375,-0.0007604327984154224,-0.0001560952514410019,-0.0003906425554305315
1772618889192065000,2.84606494140625,-0.0007159584201872349,-0.0036823865957558155,0.0010408065281808376
1772618889202095000,2.85609521484375,-0.00013215374201536179,-0.0002764090895652771,-0.0012976279249414802
1772618889212126000,2.8661259765625,-0.001207804773002863,0.000490847509354353,-0.002802047645673156
1772618889222156000,2.876156005859375,0.000086185522377491,0.0001937197521328926,0.0001822423655539751
1772618889232187100,2.886187255859375,0.0006811353377997875,-0.0021368125453591347,-0.0008579883724451065
1772618889242217000,2.896217041015625,-0.0006368416361510754,0.0012549548409879208,-0.0035494319163262844
1772618889252248000,2.906248046875,0.0011077953968197107,-0.0001834183931350708,-0.0006868001655675471
1772618889262278100,2.916278076171875,-0.0011552623473107815,0.0019134297035634518,-0.002833911217749119
1772618889272308200,2.92630810546875,-0.001214916817843914,-0.000266101211309433,-0.003041371703147888
1772618889282339000,2.936339111328125,0.00022717751562595367,0.0010257139801979065,-0.0008831259328871965
1772618889292369200,2.946369140625,-0.000021295621991157532,0.0034342771396040916,-0.0026381490752100945
1772618889302400000,2.95639990234375,-0.0019264803268015385,-0.000737103633582592,0.0013757050037384033
1772618889312430000,2.96643017578125,-0.0015941178426146507,0.00028901221230626106,-0.0006469658110290766
1772618889322461200,2.976461181640625,-0.0012637712061405182,0.0013094954192638397,0.0007665641605854034
1772618889332491300,2.9864912109375,-0.0010925298556685448,-0.0010711043141782284,-0.0019495936576277018
1772618889342520800,2.996520751953125,-0.00037106266245245934,0.00047856103628873825,0.00007571571040898561
1772618889352552000,3.006552001953125,-0.00044323457404971123,0.0014671264216303825,-0.0005650407401844859
1772618889362582000,3.01658203125,-0.0006375135853886604,0.001106281764805317,-0.0008935423684306443
1772618889372612900,3.02661279296875,-0.0001839771866798401,-0.0007898891344666481,0.001754971337504685
1772618889382643000,3.036642822265625,-0.0013182326219975948,0.0005892738699913025,0.0001662474824115634
1772618889392674000,3.046674072265625,-0.0002835947088897228,0.0009559905156493187,-0.0005597303388640285
1772618889402704100,3.0567041015625,-0.0006063454784452915,0.001279353629797697,0.0014598502311855555
1772618889412734000,3.06673388671875,0.0012924885377287865,-0.0015225587412714958,0.0001410529948771
1772618889422765000,3.07676513671875,-0.0005570431239902973,0.0009482610039412975,-0.001848884392529726
1772618889432795100,3.086795166015625,-0.0013346862979233265,-0.0017119706608355045,0.0021043119486421347
1772618889442826000,3.096825927734375,0.002010712865740061,-0.0004310309886932373,0.0023532703053206205
1772618889452856000,3.10685595703125,-0.0019083949737250805,-0.0014275861904025078,-0.0015677015762776136
1772618889462887200,3.11688720703125,0.0030719402711838484,-0.00003266846761107445,0.001159711624495685
1772618889472917000,3.1269169921875,0.0005043866112828255,-0.0002462537959218025,-0.0005303304642438889
1772618889482947000,3.136947021484375,-0.0006355610676109791,0.000023624859750270844,0.0011852247407659888
1772618889492978200,3.146978271484375,0.001382316229864955,0.0008510695770382881,0.0002352751325815916
1772618889503008000,3.157008056640625,-0.0007304409518837929,0.0010487670078873634,0.0008063119603320956
1772618889513039000,3.1670390625,0.0007388251833617687,0.00004635332152247429,0.0006816760869696736
1772618889523069200,3.177069091796875,0.000697385985404253,0.0006549423560500145,0.0008975804084911942
1772618889533100000,3.18710009765625,0.0003767409361898899,-0.0021331212483346462,0.000982801546342671
1772618889543130000,3.197130126953125,-0.0021865880116820335,0.0003652549348771572,-0.0002446246799081564
1772618889553160000,3.207159912109375,-0.0008006789721548557,-0.0013676639646291733,-0.0009381118579767644
1772618889563191000,3.21719091796875,0.002416140865534544,-0.001678586471825838,0.00008569506462663412
1772618889573220900,3.227220947265625,-0.0025455947034060955,0.0010261200368404388,0.001081717200577259
1772618889583252000,3.237251953125,0.001700649969279766,-0.00021618837490677834,0.00024337368085980415
1772618889593282000,3.247281982421875,0.0017304772045463324,-0.0015565571375191212,0.0004899823106825352
1772618889603312000,3.25731201171875,-0.0005568317137658596,-0.0012178546749055386,-0.001788864959962666
1772618889613343000,3.267343017578125,0.002128167310729623,0.0013156100176274776,-0.0006090846145525575
1772618889623373000,3.277373046875,0.000547697301954031,-0.0014447853900492191,-0.0018290062434971333
1772618889633404000,3.28740380859375,-0.00031516700983047485,0.00017574802041053772,-0.0002944928128272295
1772618889643434000,3.29743408203125,-0.0003020530566573143,-0.00029747048392891884,-0.0008920607506297529
1772618889653465000,3.307465087890625,-0.00015291618183255196,-0.001013061497360468,0.000440318719483912
1772618889663495200,3.3174951171875,0.000596421305090189,-0.00013476330786943436,-0.0008525903685949743
1772618889673526000,3.327526123046875,-0.0018941671587526798,0.001685241237282753,-0.0010829537641257048
1772618889683556000,3.33755615234375,-0.0007718335837125778,0.000021734274923801422,-0.003478752449154854
1772618889693586200,3.347586181640625,0.0019001157488673925,-0.0011548502370715141,0.004914732184261084
1772618889703617000,3.357616943359375,0.0028804095927625895,-0.0014244560152292252,-0.0010348325595259666
1772618889713647000,3.367647216796875,-0.0005105934105813503,-0.001426053699105978,-0.00005984934978187084
1772618889723678200,3.37767822265625,0.0005172472447156906,-0.0008399640209972858,0.000056831398978829384
1772618889733708000,3.3877080078125,0.0015905012842267752,-0.0019060270860791206,0.002571121556684375
1772618889743739100,3.3977392578125,-0.0014208350330591202,-0.0019975914619863033,0.0007874579168856144
1772618889753769200,3.407769287109375,-0.0004527759738266468,-0.0005903770215809345,0.0006359240505844355
1772618889763799000,3.417799072265625,-0.0016342876479029655,0.0015269452705979347,0.002453731605783105
1772618889773830000,3.427829833984375,-0.0017200415022671223,-0.002039560116827488,-0.0007607036386616528
1772618889783860000,3.43785986328125,0.00006556278094649315,-0.000025927089154720306,0.0027588552329689264
1772618889793891000,3.44789111328125,-0.0022223591804504395,-0.0005375202745199203,-0.0012132495176047087
1772618889803921000,3.4579208984375,-0.001015897374600172,0.00030041392892599106,-0.0002565421164035797
1772618889813952000,3.467951904296875,0.0003641527146100998,0.0007483577355742455,0.0003008574713021517
1772618889823982000,3.477982177734375,0.0006989329122006893,0.0007788487710058689,0.003582439851015806
1772618889834012000,3.488011962890625,-0.0000699218362569809,0.0011828499846160412,0.0003972995327785611
1772618889844043000,3.49804296875,-0.00028697121888399124,-0.001239200122654438,-0.0018656234024092555
1772618889854073000,3.508072998046875,0.00009199650958180428,-0.00040243472903966904,-0.0012999679893255234
1772618889864104000,3.51810400390625,-0.0028324383310973644,0.0032828887924551964,-0.0019446021178737283
1772618889874134000,3.528134033203125,0.001611046027392149,-0.0007211738266050816,-0.0002931759227067232
1772618889884164000,3.5381640625,-0.0016886801458895206,-0.0001005115918815136,-0.0017863468965515494
1772618889894195200,3.5481953125,0.0006647552363574505,-0.0007721609435975552,-0.0005165516631677747
1772618889904225000,3.55822509765625,-0.0010583586990833282,-0.0017886790446937084,0.0015017323894426227
1772618889914256100,3.568256103515625,-0.000803760252892971,-0.0011894674971699715,-0.0005726037779822946
1772618889924286200,3.5782861328125,0.00021972600370645523,-0.00004038121551275253,0.00030743551906198263
1772618889934317000,3.588317138671875,-0.002981926314532757,-0.000760233961045742,-0.0012033757520839572
1772618889944347100,3.59834716796875,0.000703565776348114,0.0013914224691689014,0.000030515482649207115
1772618889954378200,3.608378173828125,0.0015941269230097532,-0.00021819258108735085,0.0012166873784735799
1772618889964408000,3.618407958984375,-0.0016761962324380875,-0.0016403314657509327,-0.0020214132964611053
1772618889974438000,3.62843798828125,0.00032996339723467827,0.0020255097188055515,-0.0031356799881905317
1772618889984469000,3.638468994140625,-0.0004952456802129745,0.0012465748004615307,0.000609415234066546
1772618889994499000,3.6484990234375,-4.302710294723511e-7,0.0038037425838410854,0.00024349684827029705
1772618890004530000,3.658530029296875,0.0008998289704322815,0.0005751191638410091,-0.001991390250623226
1772618890014559200,3.668559326171875,-0.0021446971222758293,-0.0015277126803994179,-0.0016172161558642983
1772618890024590300,3.67859033203125,-0.0006644856184720993,0.0026556975208222866,-0.0005267434753477573
1772618890034620200,3.6886201171875,0.000868696253746748,-0.0018951124511659145,0.00004556984640657902
1772618890044650200,3.698650146484375,0.00041154585778713226,-0.0007845140062272549,-0.000920706195756793
1772618890054681300,3.708681396484375,0.00100010447204113,0.0005728988908231258,0.0016127588460221887
1772618890064711400,3.71871142578125,0.001813067588955164,0.0002745264209806919,0.0013836643192917109
1772618890074742300,3.7287421875,0.0009480728767812252,0.0002255244180560112,-0.0017026730347424746
1772618890084772400,3.7387724609375,0.0006582974456250668,0.001518181525170803,0.0011537623358890414
1772618890094803500,3.748803466796875,0.0003155488520860672,0.0001336042769253254,0.003252333030104637
1772618890104833300,3.758833251953125,0.001399358967319131,-0.0014780201017856598,-0.00250986497849226
1772618890114863400,3.76886328125,-0.0005271718837320805,0.00024424633011221886,0.00012053933460265398
1772618890124894500,3.77889453125,0.0005199429579079151,-0.00061793252825737,0.0020679044537246227
1772618890134924300,3.78892431640625,-0.0006601037457585335,-0.001125530805438757,0.00007293035741895437
1772618890144955400,3.798955322265625,-0.0008189911022782326,0.0007481146603822708,0.0001855699811130762
1772618890154985200,3.808985107421875,0.0009347002487629652,-0.0006598983891308308,-0.0007840869948267937
1772618890165016300,3.819016357421875,0.000463088508695364,-0.0005269711837172508,0.00029679760336875916
1772618890175046100,3.829046142578125,0.0004979758523404598,0.0016874466091394424,-0.0027570491656661034
1772618890185077200,3.8390771484375,0.0018609643448144197,-0.0028949701227247715,-0.002556846011430025
1772618890195107300,3.849107421875,0.002319826977327466,-0.000888544600456953,-0.0015608237590640783
1772618890205137200,3.85913720703125,-0.0010831248946487904,0.0023406394757330418,0.000016025500372052193
1772618890215168300,3.869168212890625,0.00024685775861144066,-0.0012418446131050587,0.0010280268033966422
1772618890225198300,3.8791982421875,0.00012814346700906754,0.002086819615215063,-0.0005957343382760882
1772618890235229200,3.889229248046875,0.0007220283150672913,-0.0022216420620679855,-0.0007587198051624
1772618890245259300,3.89925927734375,-0.0007398300804197788,-0.0006019654683768749,0.0006373549113050103
1772618890255290400,3.909290283203125,0.0008106622844934464,-0.0020451322197914124,0.00293273339048028
1772618890265320200,3.9193203125,-0.0007970393635332584,0.0005542156286537647,-0.00041608919855207205
1772618890275350300,3.929350341796875,-0.000628993846476078,-0.0017725881189107895,-0.00010609731543809175
1772618890285381400,3.93938134765625,0.0009226328693330288,0.0012041977606713772,0.00042956904508173466
1772618890295411500,3.949411376953125,0.000842205248773098,0.0008657104335725307,-0.0010253158397972584
1772618890305442300,3.9594423828125,-0.0036907424218952656,-0.00018793577328324318,0.000499909627251327
1772618890315472400,3.969472412109375,-0.0011671311222016811,-0.0003213598392903805,-0.0023528686724603176
1772618890325503200,3.979503173828125,-0.00007626833394169807,0.0013128002174198627,-0.0009519344894215465
1772618890335533300,3.989533203125,0.00015729106962680817,0.00017829379066824913,0.00042412092443555593
1772618890345563400,3.9995634765625,0.001438971608877182,0.0002681249752640724,-0.0015203658258542418
1772618890355594500,4.009594482421875,0.0006930199451744556,0.0002588038332760334,0.0005409207660704851
1772618890365624000,4.0196240234375,-0.001017219852656126,0.0001620403490960598,0.0009699424263089895
1772618890375655400,4.029655517578125,-0.0020606466569006443,-0.0009658080525696278,0.0006602169014513493
1772618890385685200,4.039685302734375,0.001239315839484334,0.0018064486794173717,-0.0008888312731869519
1772618890395716000,4.049716064453125,0.00039216410368680954,0.000027723610401153564,-0.0008920271066017449
1772618890405746200,4.05974609375,-0.0007814359851181507,0.0011063884012401104,0.002585264155641198
1772618890415776300,4.0697763671875,-0.0007481463253498077,0.0007905378006398678,-0.0020939097739756107
1772618890425807400,4.079807373046875,0.0004751286469399929,-0.0011856993660330772,-0.0007904415833763778
1772618890435837200,4.089837158203125,-0.00004551932215690613,0.000870527233928442,0.0022325124591588974
1772618890445868300,4.099868408203125,-0.00024063978344202042,0.0018850266933441162,0.0017145477468147874
1772618890455898400,4.1098984375,0.0004347376525402069,0.00015157554298639297,0.0004990809829905629
1772618890465929200,4.11992919921875,-0.0026819962076842785,-0.0005901679396629333,0.000797962537035346
1772618890475959300,4.129959228515625,0.0016118183266371489,-0.0006330450996756554,0.0009564205538481474
1772618890485989400,4.1399892578125,-0.0028092097491025925,0.0014035762287676334,-0.0040467712096869946
1772618890496020200,4.150020263671875,0.0012896615080535412,-0.003195969620719552,0.00007633492350578308
1772618890506050300,4.16005029296875,-0.001944071613252163,-0.0007928637787699699,-0.00020211178343743086
1772618890516081400,4.170081298828125,-0.0004582940600812435,0.0008543008007109165,-0.0007097102352418005
1772618890526111500,4.180111572265625,0.0009863690938800573,-0.001033241394907236,-0.0010228340979665518
1772618890536142300,4.190142333984375,0.0010494862217456102,-0.0017283265478909016,-0.0010092519223690033
1772618890546172400,4.20017236328125,-0.0016640671528875828,-0.001280427910387516,-0.004227474331855774
1772618890556203300,4.210203369140625,0.00039189355447888374,-0.004231210332363844,0.00007512897718697786
1772618890566233300,4.2202333984375,0.00023002596572041512,-0.0021039098501205444,0.00011119083501398563
1772618890576263200,4.23026318359375,-0.002156166359782219,0.0018719229847192764,-0.0007617934024892747
1772618890586294500,4.24029443359375,-0.0012961318716406822,0.0018148492090404034,-0.0007698684930801392
1772618890596324000,4.250323974609375,0.00038379011675715446,0.0015615825541317463,0.0011633201502263546
1772618890606355200,4.260355224609375,-0.0013009048998355865,0.0007113711908459663,-0.00179994385689497
1772618890616385300,4.27038525390625,0.0007867468520998955,0.0017774351872503757,-0.00011203228496015072
1772618890626416000,4.280416015625,0.000571859534829855,0.000058059580624103546,-0.0008941855048760772
1772618890636446200,4.2904462890625,-0.0009051295928657055,0.0016562226228415966,-0.0011208205251023173
1772618890646477300,4.300477294921875,-0.00027070334181189537,-0.000759270042181015,-0.0008600729634054005
1772618890656507100,4.310507080078125,-0.0005093221552670002,0.0014389031566679478,-0.0013426378136500716
1772618890666537200,4.320537109375,-0.0011226451024413109,0.001290588639676571,0.0014972095377743244
1772618890676568300,4.330568359375,0.0026995239313691854,-0.0016892221756279469,0.0010404775384813547
1772618890686598400,4.340598388671875,0.000502769835293293,0.00008789217099547386,-0.0030802544206380844
1772618890696629200,4.350629150390625,-0.0006977831944823265,-0.0034128332044929266,-0.00036036816891282797
1772618890706659300,4.360659423828125,0.0005134642124176025,0.0004966859705746174,0.0018308631842955947
1772618890716690200,4.370690185546875,0.0005600699223577976,-0.0004135826602578163,0.0010215285001322627
1772618890726720300,4.38072021484375,-0.0008545368909835815,0.0005897614173591137,0.0005486090667545795
1772618890736750300,4.390750244140625,0.00007357494905591011,-0.0020417077466845512,0.002096704440191388
1772618890746781400,4.400781494140625,-0.00017111748456954956,-0.0003064987249672413,-0.0010664404835551977
1772618890756811300,4.410811279296875,0.0017535490915179253,-0.0008026459254324436,-0.0017583298031240702
1772618890766842400,4.42084228515625,-0.0033799768425524235,-0.0012093796394765377,-0.00028029282111674547
1772618890776872400,4.43087255859375,0.00033779582008719444,-0.00002693571150302887,-0.0015295817283913493
1772618890786903300,4.4409033203125,0.00020883046090602875,-0.0012372354976832867,-0.00015575997531414032
1772618890796933400,4.450933349609375,0.0005470518954098225,0.00013961875811219215,0.00037287757731974125
1772618890806963200,4.460963134765625,-0.0012057428248226643,0.00009469548240303993,0.002161421813070774
1772618890816994300,4.470994384765625,-0.0003772331401705742,0.0019123032689094543,0.0005145230097696185
1772618890827024100,4.481024169921875,-0.0008412878960371017,-0.0022791619412600994,0.0002474401844665408
1772618890837055200,4.49105517578125,-0.001839440781623125,-0.0013862038031220436,0.001925764256156981
1772618890847085300,4.501085205078125,0.0008200840093195438,-0.000600994098931551,-0.0009790000040084124
1772618890857116200,4.5111162109375,0.0005407184362411499,0.0008839843794703484,0.0004111700691282749
1772618890867146200,4.521146240234375,-0.0014793365262448788,0.0016534584574401379,0.0039613815024495125
1772618890877177300,4.53117724609375,0.000716173555701971,0.0038926447741687298,0.00024494039826095104
1772618890887207200,4.541207275390625,-0.0031533408910036087,-0.003222791478037834,-0.0005812401650473475
1772618890897237200,4.5512373046875,0.0005322080105543137,-0.0033165349159389734,0.0013447580859065056
1772618890907268400,4.561268310546875,-0.00013061286881566048,-0.0027931821532547474,-0.0007806826033629477
1772618890917298400,4.57129833984375,0.0017527746967971325,-0.002383055165410042,-0.00024858303368091583
1772618890927329300,4.581329345703125,-0.0011160792782902718,-0.00013279123231768608,0.0008383445674553514
1772618890937359400,4.591359375,0.0008424092084169388,0.0011660326272249222,0.00037468818482011557
1772618890947390200,4.60139013671875,0.0010362069588154554,-0.000860799103975296,0.0005019739037379622
1772618890957420300,4.611420166015625,-0.0006226762197911739,-0.000626441091299057,-0.0004386546788737178
1772618890967451400,4.621451416015625,0.00048419181257486343,-0.0029433928430080414,-0.0004636716330423951
1772618890977481500,4.6314814453125,0.00024131173267960548,-0.0021702772937715054,0.00172917521558702
1772618890987511300,4.64151123046875,0.0009533499833196402,-0.001880014780908823,0.0012839268893003464
1772618890997542400,4.65154248046875,-0.001567332074046135,0.00014611799269914627,0.0009427759796380997
1772618891007573000,4.661572998046875,0.0004143984988331795,-0.0004627993330359459,0.002584568690508604
1772618891017603800,4.671603759765625,-0.00007668882608413696,0.0013609332963824272,0.00030596787109971046
1772618891027634000,4.681634033203125,-0.0007495665922760963,0.0012018322013318539,-0.0010535663459450006
1772618891037664800,4.691664794921875,0.002068856731057167,-0.001739362720400095,0.0007022556383162737
1772618891047694800,4.70169482421875,-0.0008886279538273811,-0.0020730895921587944,-0.0019818097352981567
1772618891057725000,4.711724853515625,-0.0017581498250365257,-0.0004967646673321724,-0.003704608650878072
1772618891067756000,4.721756103515625,-0.0011221589520573616,-0.0010065962560474873,-0.0006139230681583285
1772618891077785900,4.731785888671875,0.0005116905085742474,-0.002077186945825815,0.002238322515040636
1772618891087817000,4.74181689453125,-0.00031649274751544,-0.00036495132371783257,-0.002226997399702668
1772618891097847000,4.751846923828125,0.0025631834287196398,-0.0001961071975529194,-0.000709261919837445
1772618891107878000,4.7618779296875,-0.0006800084374845028,-0.0005430709570646286,-0.002773398533463478
1772618891117908000,4.771907958984375,0.0010608998127281666,0.0002920962870121002,0.001537726609967649
1772618891127939000,4.78193896484375,0.001945029478520155,0.00006458675488829613,-0.0017512908671051264
1772618891137969000,4.791968994140625,0.0012182528153061867,-0.0018560849130153656,0.00026072736363857985
1772618891147998700,4.801998779296875,-0.00021976931020617485,0.00018862681463360786,0.00007569894660264254
1772618891158030000,4.812030029296875,-0.0003361492417752743,0.0018099588342010975,-0.0010851728729903698
1772618891168060000,4.822059814453125,0.0007599294185638428,-0.002160687930881977,-0.0005972321378067136
1772618891178090800,4.8320908203125,-0.0020984411239624023,0.0013469615951180458,0.0011503341374918818
1772618891188120800,4.842120849609375,0.00011819088831543922,0.00022975169122219086,0.0011069132015109062
1772618891198152000,4.85215185546875,0.001958701526746154,-0.0011396454647183418,-0.0008893923950381577
1772618891208181800,4.862181640625,-0.00005859648808836937,0.0006516813300549984,-0.0002608995418995619
1772618891218212900,4.872212890625,-0.0032224315218627453,-0.00011690706014633179,0.002356455195695162
1772618891228243000,4.882242919921875,-0.0002451036125421524,0.0013866350054740906,-0.00112988892942667
1772618891238273000,4.89227294921875,0.002018050756305456,0.0017903698608279228,-0.0017536012455821037
1772618891248303900,4.902303955078125,-0.0015926710329949856,-0.0017248713411390781,-0.001644736621528864
1772618891258334000,4.912333984375,-0.0021135853603482246,-0.0004353686235845089,-0.0012090434320271015
1772618891268364800,4.92236474609375,0.0016605444252490997,0.0001762108877301216,-0.003019230905920267
1772618891278395000,4.932394775390625,-0.0009674630127847195,0.0012590526603162289,-0.001680459943599999
1772618891288426000,4.942426025390625,-0.0010553882457315922,0.0024092611856758595,-0.0031350646167993546
1772618891298456000,4.9524560546875,0.000786986667662859,-0.0021010679192841053,0.0021454510278999805
1772618891308487000,4.96248681640625,0.000771915540099144,-0.0006132582202553749,-0.0013116784393787384
1772618891318517000,4.97251708984375,0.0010872336570173502,-0.0019898461177945137,-0.0009185958770103753
1772618891328547000,4.982547119140625,0.0017352092545479536,-0.000171576626598835,-0.0011693222913891077
1772618891338578000,4.992577880859375,-0.0010003899224102497,-0.0038057260680943727,0.00176947598811239
1772618891348608000,5.00260791015625,0.0016246060840785503,-0.00070932786911726,0.00042296876199543476
1772618891358639000,5.01263916015625,-0.0011762403883039951,0.0031578484922647476,-0.00015200767666101456
1772618891368669000,5.0226689453125,-0.0020862207747995853,-0.0017473413608968258,0.00014223228208720684
1772618891378700000,5.032699951171875,0.0016038552857935429,0.0014029117301106453,-0.0010519290808588266
1772618891388729900,5.042729736328125,0.0013017388992011547,0.0022578402422368526,-0.0015705532860010862
1772618891398760000,5.052760009765625,-0.00021786056458950043,0.002541998866945505,-0.0020741571206599474
1772618891408790800,5.062790771484375,0.002037390833720565,0.0016497168689966202,-0.0015606229426339269
1772618891418820900,5.07282080078125,-0.0014263163320720196,0.0007144147530198097,-0.00000666850246489048
1772618891428852000,5.08285205078125,0.0024371156468987465,0.00009276438504457474,0.001020809868350625
1772618891438881800,5.0928818359375,0.0004812902770936489,-0.0006369417533278465,0.0013137576170265675
1772618891448913000,5.102912841796875,0.0008614358957856894,-0.000386806670576334,0.00043944211211055517
1772618891458943000,5.11294287109375,0.0013586480636149645,-0.001750078983604908,0.0006991002010181546
1772618891468973800,5.122973876953125,0.0024109319783747196,-0.0005936669185757637,-0.00018986430950462818
1772618891479004000,5.13300390625,-0.000576868187636137,-0.0012828931212425232,0.002478623064234853
1772618891489034000,5.143033935546875,-0.00015852879732847214,-0.0003740256652235985,-0.0031413319520652294
1772618891499064800,5.15306494140625,0.0009232473094016314,-0.0015913569368422031,-0.00025260099209845066
1772618891509095000,5.163094970703125,0.0023979416582733393,-0.0007147458381950855,0.00000722869299352169
1772618891519126000,5.1731259765625,0.0020125822629779577,-0.0014279400929808617,0.000671953777782619
1772618891529156000,5.183156005859375,0.0030122757889330387,0.0026543494313955307,-0.0009572566486895084
1772618891539187000,5.19318701171875,-0.0014983201399445534,-0.0010389219969511032,0.0017059043748304248
1772618891549217000,5.203217041015625,0.0006065517663955688,-0.0001265709288418293,-0.000004644854925572872
1772618891559248000,5.213247802734375,0.0005330485291779041,0.002187183126807213,-0.0012709778966382146
1772618891569278000,5.22327783203125,-0.000560081098228693,-0.000950946006923914,0.0009470550576224923
1772618891579308000,5.23330810546875,0.0004889378324151039,-0.0018455018289387226,0.0007387959631159902
1772618891589339100,5.243339111328125,0.0014639212749898434,0.001611189916729927,-0.0020810163114219904
1772618891599368700,5.25336865234375,-0.0009654145687818527,0.0003155623562633991,0.0016471428098157048
1772618891609400000,5.263400146484375,0.0018226001411676407,-0.00017743417993187904,0.00018096913117915392
1772618891619430000,5.273429931640625,0.0007043387740850449,-0.0012224586680531502,0.0004238493274897337
1772618891629460700,5.283460693359375,0.0025607282295823097,-0.00014528492465615273,-0.0004553472390398383
1772618891639490800,5.29349072265625,-0.0002813972532749176,0.001238759607076645,-0.002613839227706194
1772618891649522000,5.30352197265625,0.0010135059710592031,-0.0029820133931934834,0.0028494340367615223
1772618891659552800,5.313552734375,-0.001813972368836403,0.0022897138260304928,0.001111987978219986
1772618891669582800,5.323582763671875,0.0004282202571630478,-0.0018874905072152615,0.0003764466382563114
1772618891679613000,5.333613037109375,-0.002234408166259527,0.00007472652941942215,-0.0027591590769588947
1772618891689643800,5.343643798828125,0.00007903529331088066,-0.000912768766283989,-0.00045575876720249653
1772618891699673900,5.353673828125,-0.00008528167381882668,-0.0003172862343490124,0.0009373407810926437
1772618891709705000,5.363705078125,-0.001969294622540474,0.0006307614967226982,-0.002476135268807411
1772618891719734800,5.37373486328125,-0.00038631167262792587,-0.0002408912405371666,-0.00017276720609515905
1772618891729766000,5.383765869140625,0.0029043657705187798,-0.00201013358309865,-0.00031579378992319107
1772618891739796000,5.3937958984375,-0.0005316445603966713,-0.0010830871760845184,0.00013934040907770395
1772618891749826800,5.403826904296875,-0.0004988820292055607,-0.0002674907445907593,0.00018127262592315674
1772618891759857000,5.41385693359375,0.0007027364335954189,-0.0007023848593235016,0.002285702619701624
1772618891769887000,5.423886962890625,-0.0005491040647029877,0.00018584169447422028,0.00014159793499857187
1772618891779918000,5.43391796875,0.00039072567597031593,-0.001340415794402361,0.0001589085441082716
1772618891789948000,5.443947998046875,-0.0006894180551171303,0.0015795943327248096,-0.00040163041558116674
1772618891799979000,5.45397900390625,0.0036363545805215836,-0.00018501607701182365,0.0016556615009903908
1772618891810009000,5.464009033203125,-0.000780788715928793,0.00011411914601922035,0.0010472906287759542
1772618891820040000,5.4740400390625,-0.0013246061280369759,-0.0006858943961560726,-0.00010718975681811571
1772618891830070000,5.484070068359375,-0.0014127781614661217,0.000847487710416317,-0.0014217840507626534
1772618891840101000,5.49410107421875,-0.00017813639715313911,-0.001773062627762556,-0.0006888821371831
1772618891850131000,5.504130859375,0.0016661710105836391,0.001065160147845745,-0.00025873410049825907
1772618891860160800,5.514160888671875,-0.0015229643322527409,-0.0019953446462750435,0.0014957564417272806
1772618891870191900,5.52419189453125,0.001038525253534317,-0.0002602413296699524,-0.00042954611126333475
1772618891880222000,5.534221923828125,-0.002664333675056696,0.0005874428898096085,-0.000965640414506197
1772618891890252800,5.544252685546875,0.0020656350534409285,-0.0007103793323040009,-0.0003352602943778038
1772618891900283000,5.554282958984375,0.0027649812400341034,0.0003727278672158718,-0.001523296465165913
1772618891910313700,5.564313720703125,-0.0015635420568287373,0.0004252376966178417,0.0003916868008673191
1772618891920343800,5.57434375,0.0010373012628406286,0.002514221239835024,-0.0021817258093506098
1772618891930375000,5.584375,-0.0013405201025307178,-0.0002811620943248272,-0.0013598426012322307
1772618891940405000,5.594405029296875,0.00022275559604167938,0.00042058108374476433,-0.0015617102617397904
1772618891950434800,5.604434814453125,0.0006150691770017147,0.0007470138370990753,0.00002187339123338461
1772618891960466000,5.6144658203125,0.00008456781506538391,0.0001715044490993023,-0.0000012960517778992653
1772618891970496000,5.62449609375,-0.0002904115244746208,0.0013206829316914082,-0.000398329459130764
1772618891980526800,5.63452685546875,-0.0008792364969849586,-0.0013387491926550865,-0.0021996914874762297
1772618891990557000,5.644556884765625,-0.001737875398248434,0.00225559389218688,-0.0009845229797065258
1772618892000588000,5.654588134765625,-0.001801791600883007,-0.0019817613065242767,0.0015247074188664556
1772618892010617900,5.664617919921875,-0.0010568187572062016,0.001222969964146614,-0.0019376998534426093
1772618892020649000,5.67464892578125,0.00033707963302731514,-0.0010345913469791412,0.0011536976089701056
1772618892030678000,5.684677978515625,-0.001974728424102068,-0.0017792955040931702,-0.0005605104379355907
1772618892040709000,5.694709228515625,0.0010618078522384167,-0.0012511909008026123,0.00032259372528642416
1772618892050738700,5.70473876953125,-0.0003526299260556698,-0.0012908810749650002,-0.0010652011260390282
1772618892060770000,5.71477001953125,0.0012125095818191767,-0.000014161691069602966,0.0019023593049496412
1772618892070800000,5.7247998046875,-0.001513384748250246,-0.0005688928067684174,0.0009385256562381983
1772618892080830700,5.734830810546875,0.00006107613444328308,-0.0025103376246988773,0.0017257560975849628
1772618892090860800,5.74486083984375,-0.00010579684749245644,-0.0008173286914825439,0.00041901913937181234
1772618892100892000,5.754891845703125,0.000850810669362545,-0.0008402317762374878,-0.0007807349320501089
1772618892110922000,5.764921875,-0.00003597000613808632,-0.0011687511578202248,0.000098232994787395
1772618892120951800,5.774951904296875,0.0009358176030218601,-0.0005847197026014328,0.00009237404447048903
1772618892130983000,5.78498291015625,-0.0013173180632293224,-0.0007901452481746674,-0.0025974148884415627
1772618892141013000,5.795012939453125,-0.000029946211725473404,-0.003441056003794074,0.004944124724715948
1772618892151043800,5.8050439453125,0.0008827969431877136,0.0007556458003818989,-0.00010229134932160378
1772618892161074000,5.815073974609375,0.0007784012705087662,0.0007077096961438656,-0.0018370745237916708
1772618892171105000,5.82510498046875,-0.001065488439053297,0.003689715638756752,-0.0010129595175385475
1772618892181134800,5.835134765625,-0.00023085344582796097,0.0005855346098542213,-0.0005240030586719513
1772618892191166000,5.845166015625,-0.00048577645793557167,-0.0006162547506392002,-0.00044413073919713497
1772618892201196000,5.855196044921875,-0.0005555511452257633,0.0016556880436837673,-0.003255629912018776
1772618892211227000,5.865226806640625,-0.00009357370436191559,0.001170528121292591,-0.0032578930258750916
1772618892221257000,5.875257080078125,0.0003168191760778427,0.00035826442763209343,0.00042765552643686533
1772618892231287000,5.885287109375,0.0004378883168101311,0.00011407909914851189,0.0009459482971578836
1772618892241318000,5.89531787109375,0.0012173955328762531,0.0007636244408786297,-0.0002564690075814724
1772618892251348000,5.905347900390625,-0.000021238811314105988,-0.0006245225667953491,-0.001862360630184412
1772618892261379000,5.915379150390625,-0.0005027386359870434,0.0003786901943385601,-0.0009614131995476782
1772618892271409200,5.9254091796875,-0.0009531611576676369,0.0007968507707118988,0.0003336996305733919
1772618892281440000,5.93543994140625,0.0008223685435950756,-0.001626892015337944,-0.002123332815244794
1772618892291469800,5.9454697265625,0.0013735571410506964,0.0012424206361174583,-0.0008884155540727079
1772618892301501000,5.9555009765625,-0.0008248821832239628,0.0003521256148815155,-0.0007946722907945514
1772618892311530800,5.96553076171875,0.0011292702984064817,-0.0021122945472598076,0.0023105554282665253
1772618892321560800,5.975560791015625,0.0009726763237267733,-0.000685905572026968,-0.00248979264870286
1772618892331592000,5.985592041015625,0.0031334259547293186,-0.00039634760469198227,0.001962992362678051
1772618892341621800,5.995621826171875,-0.00035265181213617325,-0.0007971534505486488,0.0005901327822357416
1772618892351652900,6.00565283203125,0.0007512252777814865,-0.0012642736546695232,0.0012425496242940426
1772618892361683000,6.015682861328125,0.0011070235632359982,-0.0007263151928782463,-0.0006842475268058479
1772618892371713800,6.0257138671875,-0.0009883944876492023,-0.001581014133989811,0.0005883116973564029
1772618892381743900,6.035743896484375,0.0007810094393789768,-0.0016904701478779316,0.0007481012726202607
1772618892391775000,6.04577490234375,-0.002219799440354109,-0.0011940705589950085,0.000288525247015059
1772618892401804800,6.0558046875,-0.0007742359302937984,0.0015689590945839882,0.0007881342899054289
1772618892411835000,6.0658349609375,-0.0005071503110229969,0.0004282756708562374,-0.0027894279919564724
1772618892421866000,6.075865966796875,0.00038128020241856575,-0.0001360480673611164,-0.0008927247254177928
1772618892431896000,6.08589599609375,0.000012878794223070145,-0.0007164976559579372,0.0013705069432035089
1772618892441927000,6.095927001953125,-0.000770090613514185,0.00028724782168865204,-0.0017278145533055067
1772618892451957000,6.10595703125,0.00022894237190485,-0.00013314979150891304,0.00013760779984295368
1772618892461988000,6.115988037109375,-0.0020073140040040016,0.00014168862253427505,-0.001004355726763606
1772618892472018000,6.126017822265625,-0.0009390553459525108,-0.0024721198715269566,-0.00014899950474500656
1772618892482049000,6.136049072265625,-0.0010056341998279095,0.00005442090332508087,-0.00030639232136309147
1772618892492079000,6.1460791015625,0.0014554057270288467,-0.0011882055550813675,0.0006801419658586383
1772618892502110000,6.15610986328125,0.00034886226058006287,-0.0003359941765666008,0.0017533957725390792
1772618892512140000,6.16614013671875,0.0003297245129942894,0.00034565292298793793,-0.0013800160959362984
1772618892522169900,6.176169921875,-0.0020170528441667557,-0.002667447552084923,0.0017406761180609465
1772618892532200700,6.18620068359375,-0.0018922765739262104,-0.0011272113770246506,-0.0009227045229636133
1772618892542230800,6.196230712890625,-0.0010192920453846455,-0.001320290844887495,-0.0002569142961874604
1772618892552262000,6.206261962890625,-0.0013258527033030987,0.0025237156078219414,-0.0011994133237749338
1772618892562292000,6.2162919921875,-0.0000909450463950634,0.0005918582901358604,0.00022644305136054754
1772618892572322800,6.22632275390625,-0.00027184421196579933,-0.0004208497703075409,-0.0006709980079904199
1772618892582353000,6.236352783203125,-0.0010478892363607883,0.0009597325697541237,0.0013183832634240389
1772618892592383700,6.2463837890625,-0.00009234203025698662,-0.0005422946996986866,-0.0017960136756300926
1772618892602413800,6.256413818359375,-0.0012377677485346794,0.0002486645244061947,-0.0001653601648285985
1772618892612445000,6.26644482421875,-0.0009035700932145119,-0.0007955110631883144,0.000926031731069088
1772618892622475000,6.27647509765625,0.0027689291164278984,-0.0009941831231117249,-0.0013946467079222202
1772618892632504800,6.2865048828125,-0.0007847310043871403,0.0003950386308133602,-0.0019429452950134873
1772618892642536000,6.296535888671875,0.0009170286357402802,0.0030478136613965034,-0.00105265062302351
1772618892652566000,6.30656591796875,0.00008484069257974625,-0.0011055157519876957,-0.000985800987109542
1772618892662596900,6.316596923828125,-0.0021514156833291054,0.0008670873939990997,-0.0008600997971370816
1772618892672627000,6.326626953125,0.0009995095897465944,-0.00149156479164958,0.0006674886681139469
1772618892682658000,6.336657958984375,-0.0007089083082973957,-0.0002574557438492775,-0.0028923586942255497
1772618892692688000,6.34668798828125,0.000817581545561552,0.0007537719793617725,0.0009897596901282668
1772618892702719000,6.356718994140625,-0.0005518160760402679,-0.0008960566483438015,0.0007426183437928557
1772618892712749000,6.3667490234375,-0.0020519448444247246,-0.0002685924991965294,0.000491288723424077
1772618892722779100,6.376779052734375,-0.0012458059936761856,-0.0010278597474098206,0.0011863736435770988
1772618892732810000,6.38681005859375,0.0004284479655325413,-0.001340491697192192,0.0017673219554126263
1772618892742839800,6.39683984375,-0.0005031260661780834,-0.0015191896818578243,0.00159421656280756
1772618892752871000,6.406870849609375,0.0007682698778808117,0.00004105176776647568,0.0004423336358740926
1772618892762900700,6.416900634765625,0.00006120046600699425,-0.001931285485625267,0.00100585853215307
1772618892772931800,6.426931884765625,0.0020311244297772646,0.0011779642663896084,-0.00013482174836099148
1772618892782962000,6.4369619140625,0.000030291732400655746,-0.0013826647773385048,0.002918492304161191
1772618892792992800,6.44699267578125,-0.0005562170408666134,0.0021248641423881054,0.0006007145857438445
1772618892803022800,6.45702294921875,-0.0018734163604676723,-0.0010078120976686478,-0.00048106140457093716
1772618892813054000,6.467053955078125,-0.0020615775138139725,-0.001043866854161024,0.001850890344940126
1772618892823083800,6.477083740234375,-0.0006985715590417385,-0.001331488136202097,-0.0013198691885918379
1772618892833113900,6.48711376953125,-0.0017842450179159641,0.0012797368690371513,-0.0007672831998206675
1772618892843145000,6.49714501953125,-0.0022431076504290104,-0.0009607803076505661,0.002188292797654867
1772618892853175000,6.507175048828125,-0.0010119909420609474,-0.00015919143334031105,-0.0031256810761988163
1772618892863206000,6.517205810546875,0.0005922974087297916,-0.001723265741020441,0.00167706364300102
1772618892873236000,6.527236083984375,-0.0034817326813936234,-0.0008524986915290356,-0.0006728897569701076
1772618892883266800,6.537266845703125,-0.0010414780117571354,0.002147552091628313,-0.0008068467141129076
1772618892893297000,6.547296875,-0.0007588323205709457,-0.00021286867558956146,-0.0005282234633341432
1772618892903328000,6.557327880859375,-0.0011175600811839104,0.0006899428553879261,0.000156475231051445
1772618892913358000,6.567358154296875,-0.000612789299339056,0.0027297204360365868,0.0021501574665308
1772618892923389000,6.577388916015625,-0.004038146696984768,-0.0003174683079123497,-0.0026147703174501657
1772618892933419000,6.5874189453125,-0.000039478298276662827,-0.0012119528837502003,0.0009791537886485457
1772618892943449000,6.597448974609375,-0.0007590646855533123,0.00041763531044125557,0.0011695699067786336
1772618892953480000,6.60747998046875,-0.0022367946803569794,-0.001283777877688408,-0.002758125541731715
1772618892963510000,6.617510009765625,0.0013696581590920687,-0.0011705933138728142,0.002104007638990879
1772618892973541000,6.627541015625,-0.0008819987997412682,0.0016467645764350891,0.0005026593571528792
1772618892983570700,6.63757080078125,0.0014701050240546465,0.0005266387015581131,0.0024781920947134495
1772618892993602000,6.64760205078125,0.0018093329854309559,-0.0015587816014885902,0.0005834858166053891
1772618893003631900,6.6576318359375,-0.001944126095622778,0.0005855951458215714,0.0013869615504518151
1772618893013663000,6.6676630859375,0.00008785305544734001,-0.0011086128652095795,-0.000027725938707590103
1772618893023693000,6.677693115234375,-0.003156676422804594,0.00045333104208111763,-0.0007571657188236713
1772618893033724200,6.68772412109375,0.0005381787195801735,-0.0007647480815649033,-0.00015820306725800037
1772618893043754000,6.69775390625,0.0005056881345808506,0.0009391424246132374,-0.0003081390168517828
1772618893053784000,6.7077841796875,-0.0017546536400914192,0.0003016269765794277,0.0007897689938545227
1772618893063815200,6.717815185546875,0.0009548463858664036,-0.0008320808410644531,-0.0008166498737409711
1772618893073845200,6.72784521484375,-0.0010998062789440155,0.001045971643179655,-0.0008479032549075782
1772618893083876000,6.7378759765625,0.0016834635753184557,-0.0009780311957001686,-0.0017027780413627625
1772618893093906200,6.74790625,-0.0006777760572731495,-0.0014603780582547188,0.0021081960294395685
1772618893103937000,6.75793701171875,-0.000856474507600069,-0.0005037705413997173,-0.000040442333556711674
1772618893113967000,6.767967041015625,-0.00048434268683195114,0.001230101566761732,-0.0021871584467589855
1772618893123998200,6.777998291015625,-0.0001794109120965004,-0.0007686009630560875,-0.00002174230758100748
1772618893134028300,6.7880283203125,-0.001670657191425562,-0.0005138418637216091,0.001460264204069972
1772618893144059100,6.79805908203125,-0.0020115417428314686,0.0006076153367757797,-0.00119996746070683
1772618893154089000,6.8080888671875,0.002078354125842452,-0.002878719475120306,0.0007316356059163809
1772618893164119000,6.818119140625,-0.0023893648758530617,-0.0001151571050286293,0.0007433535065501928
1772618893174150000,6.82814990234375,0.0007714289240539074,-0.0008552158251404762,-0.0002165408805012703
1772618893184180000,6.838179931640625,-0.00003284541890025139,-0.00250291358679533,0.00193236384075135
1772618893194211000,6.848211181640625,-0.0029885503463447094,0.0015416019596159458,-0.0004768816288560629
1772618893204241200,6.8582412109375,-0.0009272638708353043,0.0006169523112475872,0.00021314341574907303
1772618893214272000,6.86827197265625,0.0009472579695284367,0.0002239299938082695,-0.0036967541091144085
1772618893224302000,6.878302001953125,-0.00007965695112943649,0.0005613518878817558,0.0016468785470351577
1772618893234333000,6.8883330078125,-0.0019095400348305702,0.00011880556121468544,0.0006678852951154113
1772618893244363000,6.898363037109375,-0.0005348161794245243,0.0007952484302222729,-0.0027201883494853973
1772618893254394000,6.90839404296875,0.0007672072388231754,-0.0002033705823123455,0.0004965459229424596
1772618893264424200,6.918424072265625,0.0030585909262299538,0.0012991847470402718,0.0016294546658173203
1772618893274454000,6.9284541015625,-0.0004486902616918087,-0.00012604892253875732,0.00005972979124635458
1772618893284485000,6.938485107421875,0.0005068518221378326,-0.0024390043690800667,-0.0013272445648908615
1772618893294515200,6.94851513671875,0.00109293800778687,-0.0006859814748167992,0.0008186897030100226
1772618893304546000,6.958546142578125,0.0009973305277526379,-0.0022354084067046642,-0.0019691074267029762
1772618893314576100,6.968576171875,0.0016442770138382912,-0.00038339337334036827,0.002133641391992569
1772618893324607200,6.978607177734375,0.002063724910840392,-0.00227423757314682,0.0006246943958103657
1772618893334637000,6.988636962890625,-0.0009688371792435646,0.0007120589725673199,0.00013232766650617123
1772618893344668200,6.998668212890625,-0.001882567536085844,-0.0011217943392693996,0.000994925620034337
1772618893354698200,7.0086982421875,0.0022285915911197662,-0.0015580076724290848,0.0011324442457407713
1772618893364729000,7.01872900390625,0.000028287991881370544,0.0013336525298655033,-0.002003427827730775
1772618893374759200,7.02875927734375,-0.000507306307554245,0.0015651113353669643,-0.000517382170073688
1772618893384789000,7.0387890625,-0.0013211681507527828,0.0004889275878667831,0.0013319167774170637
1772618893394820000,7.048820068359375,0.001657632878050208,0.0007464811205863953,0.0017443388933315873
1772618893404850000,7.058849853515625,0.0015183496288955212,-0.0003326316364109516,0.0002148855710402131
1772618893414881000,7.068881103515625,-0.0015612784773111343,0.000569433905184269,-0.0005952079081907868
1772618893424911000,7.0789111328125,-0.0007487479597330093,0.0015486786141991615,-0.001086561125703156
1772618893434942000,7.08894189453125,-0.0017491970211267471,-0.0004074694588780403,0.000035654869861900806
1772618893444972000,7.098971923828125,-0.0019398792646825314,0.0015052128583192825,-0.001091128564439714
1772618893455003100,7.109003173828125,-0.00013236422091722488,0.001238401047885418,-0.0019227394368499517
1772618893465033000,7.119032958984375,-0.0006817742250859737,0.00119019765406847,-0.0012923692120239139
1772618893475064000,7.12906396484375,0.00228298781439662,-0.0014941524714231491,0.006282576359808445
1772618893485094100,7.13909423828125,0.0016451608389616013,0.0010249312035739422,0.0012760998215526342
1772618893495124200,7.149124267578125,0.0009645270183682442,-0.0024304925464093685,0.0017347601242363453
1772618893505155000,7.159155029296875,-0.0024086330085992813,-0.000010211486369371414,-0.000601364707108587
1772618893515185200,7.16918505859375,-0.001178464386612177,0.002591933123767376,-0.00021726498380303383
1772618893525216000,7.179216064453125,0.0009011980146169662,-0.0008238377049565315,0.0006434686947613955
1772618893535246000,7.18924609375,-0.0002275160513818264,-0.001630712766200304,-0.0005859070806764066
1772618893545277200,7.199277099609375,0.0014793039299547672,-0.0018317811191082,0.00027136446442455053
1772618893555307300,7.209307373046875,-0.00009184330701828003,0.0010404339991509914,0.0017405170947313309
1772618893565338000,7.219338134765625,-0.001713442150503397,-0.0012722550891339779,-0.000931166170630604
1772618893575368200,7.2293681640625,-0.000272881705313921,-0.0022203437983989716,0.0016724267043173313
1772618893585399000,7.23939892578125,-0.0018753055483102798,0.000273972749710083,0.00156696536578238
1772618893595429000,7.24942919921875,-0.00162046542391181,0.0009712576866149902,-0.0002613293472677469
1772618893605460200,7.259460205078125,-0.0009080697782337666,-0.0013776500709354877,0.00041990727186203003
1772618893615490300,7.269490234375,0.00045576225966215134,-0.0007963250391185284,-0.001264949212782085
1772618893625519900,7.279519775390625,-0.0014923401176929474,0.0021240971982479095,-0.0025914697907865047
1772618893635551000,7.289551025390625,-0.001821886282414198,-0.000403593759983778,-0.000494255917146802
1772618893645581000,7.2995810546875,-0.0004570162855088711,0.0019378573633730412,-0.0003563041100278497
1772618893655612000,7.30961181640625,0.0006631668657064438,-0.0004452252760529518,-0.0015728052239865065
1772618893665642000,7.31964208984375,0.002084495732560754,-0.00023590074852108955,0.0015311090974137187
1772618893675673000,7.329673095703125,0.003031831467524171,0.0005845376290380955,0.0011297465534880757
1772618893685703000,7.339702880859375,0.0003231302835047245,-0.0003976365551352501,-0.001636212575249374
1772618893695734000,7.349734130859375,-0.00035808049142360687,0.0005657840520143509,0.0022464152425527573
1772618893705764000,7.35976416015625,-0.0004915050230920315,0.0008163880556821823,0.0009771526092663407
1772618893715795000,7.369794921875,-0.0019718967378139496,0.000002705492079257965,-0.0010582688264548779
1772618893725825000,7.379824951171875,0.000005766749382019043,-0.0005741347558796406,0.0011947655584663153
1772618893735855000,7.389855224609375,0.0010992155876010656,0.0012537948787212372,-0.00002278981264680624
1772618893745886200,7.39988623046875,0.0013476884923875332,-0.001037056092172861,0.001539686811156571
1772618893755916000,7.409916015625,-0.00160524295642972,0.002522590570151806,0.0006838598055765033
1772618893765947100,7.419947021484375,-0.000494704581797123,0.0019372282549738884,-0.0016919462941586971
1772618893775977200,7.429977294921875,-0.002389330882579088,0.0017120707780122757,0.0011039809323847294
1772618893786008000,7.440008056640625,-0.0012135449796915054,0.0008063297718763351,-0.0007160233217291534
1772618893796038100,7.4500380859375,-0.0044207642786204815,0.10966547578573227,0.022243695333600044
1772618893806069200,7.4600693359375,0.0019268803298473358,-0.07418105751276016,-0.016636325046420097
1772618893816099000,7.47009912109375,0.001752778422087431,0.014770638197660446,0.0034712040796875954
1772618893826130200,7.480130126953125,-0.0008746962994337082,0.006643470376729965,0.0025217868387699127
1772618893836160300,7.49016015625,0.0039968956261873245,-0.08429110795259476,-0.01872701197862625
1772618893846191000,7.500191162109375,0.0006748684681952,-0.046560775488615036,-0.010267214849591255
1772618893856221200,7.51022119140625,-0.0025524385273456573,0.03034566342830658,0.007280871272087097
1772618893866251000,7.5202509765625,-0.003431015182286501,0.07873716950416565,0.01926269941031933
