time,seconds_elapsed,z,y,x
1772619332659781400,0.076781494140625,0.9486369413852691,-1.031855615080893,0.6974602866023778
1772619332669812500,0.0868125,1.0071522587180137,-1.1249892413303255,0.6512758238587528
1772619332679843300,0.09684326171875,1.0082359623014927,-1.1577911484748125,0.6554867926172911
1772619332689874400,0.10687451171875,0.8818670059263706,-1.1665826499566434,0.6473423568673431
1772619332699905300,0.1169052734375,0.6916559842377901,-1.1137634984388947,0.681101126345247
1772619332709936400,0.126936279296875,0.5764104794234037,-1.0305570997029543,0.6536126693084836
1772619332719967500,0.136967529296875,0.49221302382349963,-0.9940253583803772,0.608128463788703
1772619332729998300,0.146998291015625,0.5111468568742275,-1.0391504482641816,0.47723808446638283
1772619332740029400,0.157029541015625,0.5133569341391324,-1.090476146353781,0.3621414866033941
1772619332750059300,0.167059326171875,0.5256605353951453,-1.0481778043285013,0.2631567231729626
1772619332760090400,0.17709033203125,0.5791694227427244,-0.9870648717179894,0.17357582096904514
1772619332770121200,0.187121337890625,0.6194587630331516,-0.9383224681198596,0.11915639464780688
1772619332780152300,0.19715234375,0.5748205798834563,-0.8661942204982042,0.1069260047584772
1772619332790183400,0.207183349609375,0.4761375028133392,-0.7997498637318611,0.10456534004174173
1772619332800214300,0.21721435546875,0.3134241443812847,-0.735826111484319,0.05966996726058423
1772619332810245400,0.227245361328125,0.13900398154258728,-0.681792908001691,0.04492562178894877
1772619332820276200,0.237276123046875,0.07676584429442881,-0.656588470248878,0.056182344340533014
1772619332830307300,0.247307373046875,0.15532207913696766,-0.685833561694622,0.037512203727290035
1772619332840338400,0.25733837890625,0.32500761466920375,-0.7372399238049984,-0.003887801218777895
1772619332850369500,0.26736962890625,0.5119277781188488,-0.7985626997739076,0.024418255811184644
1772619332860399400,0.2773994140625,0.6880056450366974,-0.8579189979754388,0.021480521858856082
1772619332870430200,0.28743017578125,0.8586760999530554,-0.9272622910536825,-0.004297843324393034
1772619332880461600,0.297461669921875,1.0033417605191468,-1.0232917848750949,-0.05728899040818214
1772619332890492400,0.307492431640625,1.1069833367794752,-1.113525890290737,-0.12094137836843728
1772619332900523500,0.3175234375,1.1451327424317597,-1.1565513775467873,-0.1790423427466303
1772619332910554400,0.327554443359375,1.1196399892568587,-1.20844932256639,-0.2231776178754866
1772619332920585500,0.33758544921875,1.0403379044830798,-1.2680457131341099,-0.27278153367377816
1772619332930616300,0.3476162109375,0.9351783248752356,-1.3000534011609852,-0.3009908523309976
1772619332940647400,0.3576474609375,0.8420914603769779,-1.3320949914574622,-0.3063886197213083
1772619332950678300,0.36767822265625,0.7640209632247686,-1.3669802807472646,-0.31019246898367997
1772619332960709400,0.37770947265625,0.7683820810437202,-1.4076573051810264,-0.28131409195847806
1772619332970739500,0.387739501953125,0.7745376810640097,-1.4712414502106606,-0.2232882386431098
1772619332980770300,0.397770263671875,0.783815212497115,-1.5213709242530167,-0.17970906302705406
1772619332990801400,0.407801513671875,0.7311065356165171,-1.5645745445549488,-0.16183526042327284
1772619333000832300,0.417832275390625,0.54504795743227,-1.6237538787543773,-0.11838679851479827
1772619333010863400,0.42786328125,0.1625824255287647,-1.6372186327442526,-0.06889627996310592
1772619333020894200,0.437894287109375,-0.43038931259512897,-1.5678610188797115,-0.0424462260633707
1772619333030925300,0.44792529296875,-1.1456821930080652,-1.4560183082461355,0.02643295663446188
1772619333040956200,0.4579560546875,-1.9186048400908708,-1.2894837840907274,0.16800971127450465
1772619333050987300,0.4679873046875,-2.6638486221313475,-1.0414651549473404,0.3556336390793323
1772619333061018400,0.478018310546875,-3.264415053167939,-0.7618143930912017,0.5746131476778537
1772619333071049500,0.488049560546875,-3.618020401290059,-0.5095059577994049,0.7693176813933998
1772619333081079300,0.498079345703125,-3.627873102262616,-0.4371151137188077,0.8204537751950323
1772619333091110400,0.5081103515625,-3.330778745913505,-0.46482247420325873,0.7422912889104336
1772619333101141500,0.5181416015625,-2.737058235248923,-0.5826556574232876,0.6134435213316232
1772619333111172400,0.52817236328125,-1.949641783389449,-0.7688610967323184,0.4682685960691422
1772619333121203500,0.538203369140625,-1.2275982596725226,-1.003614147719741,0.3418447677016258
1772619333131234300,0.548234375,-0.7734761893123387,-1.1982301263689994,0.34749548693969845
1772619333141265400,0.558265380859375,-0.548735121512413,-1.312292851139605,0.4173392768859863
1772619333151296300,0.568296142578125,-0.45112581115365025,-1.3620371252566574,0.5175198990374803
1772619333161327400,0.578327392578125,-0.35684710652232166,-1.336858552597463,0.5729425110518932
1772619333171358500,0.5883583984375,-0.19052666350901126,-1.2892530440747738,0.4526161958418786
1772619333181389300,0.598389404296875,-0.007853051587939261,-1.1876131630256772,0.17138028368614613
1772619333191420400,0.60842041015625,0.165720723554492,-1.0261927670136093,-0.154881714958325
1772619333201450200,0.6184501953125,0.20061726489067078,-0.7350462131530046,-0.3733039550002664
1772619333211481300,0.6284814453125,0.15675824941992758,-0.43608547841012474,-0.47960510585866867
1772619333221512200,0.63851220703125,0.09048632661104201,-0.12306816126406192,-0.5237852430425584
1772619333231543300,0.648543212890625,0.018671382722258566,0.13190613223612307,-0.5079333747204393
1772619333241574400,0.658574462890625,-0.09740355865359306,0.3359554174020886,-0.4237641953669488
1772619333251605200,0.668605224609375,-0.17298866873085497,0.5191378556281327,-0.3239791484043002
1772619333261636400,0.67863623046875,-0.1685217524498701,0.649658086463809,-0.21698080906197428
1772619333271667200,0.688667236328125,-0.12909692003428935,0.7273220486417412,-0.16602854739464817
1772619333281698600,0.698698486328125,-0.12053659695982932,0.722070703984797,-0.18091880414299666
1772619333291729400,0.7087294921875,-0.16965689395964145,0.6108624918624759,-0.2988596124559641
1772619333301760500,0.718760498046875,-0.21199439895153044,0.48438949059098957,-0.5200619847357273
1772619333311790600,0.72879052734375,-0.18183774561882018,0.36104075881987807,-0.7889253951177001
1772619333321821400,0.738821533203125,-0.13598492598235606,0.2705789821282029,-0.9424470007039606
1772619333331852500,0.7488525390625,-0.03533668631911278,0.25782062284201385,-1.0047864063695073
1772619333341883400,0.75888330078125,0.09734159933328627,0.20437866325080395,-1.1125471814516932
1772619333351914500,0.76891455078125,0.3157031952291727,0.12012041737437247,-1.2018013359192758
1772619333361945300,0.7789453125,0.5550730923622846,0.022787585869431495,-1.2597383419074117
1772619333371976400,0.7889765625,0.7623223426133394,-0.05108925898522138,-1.1908150278069078
1772619333382007300,0.79900732421875,0.8427940556883812,-0.09729629888683557,-1.0187060645200312
1772619333392038400,0.809038330078125,0.8199994555562734,-0.08702244989275931,-0.8101355025373399
1772619333402069200,0.8190693359375,0.6744254479736089,-0.007545300813019276,-0.5169401994533837
1772619333412100400,0.829100341796875,0.4709399341702461,0.1341170862838626,-0.2114446561142802
1772619333422130400,0.83913037109375,0.2842944960087538,0.3169777452096343,0.04769128711000085
1772619333432161300,0.849161376953125,0.16690788751244545,0.4788762801274657,0.27484643031433226
1772619333442192100,0.859192138671875,0.08558627960979938,0.5964388297125697,0.3833782628342509
1772619333452223000,0.869222900390625,0.04882335987985134,0.631498452655971,0.3974235931910574
1772619333462254000,0.879254150390625,0.009247136294841765,0.5652285756736993,0.3284324745513499
1772619333472285000,0.889284912109375,-0.028974165549874305,0.4869532035991549,0.16214067311063407
1772619333482316000,0.89931591796875,0.023787118300795555,0.39492432372123,-0.015898849269002674
1772619333492347000,0.909346923828125,0.21597791562974453,0.3403460535764694,-0.17195274981185793
1772619333502378000,0.9193779296875,0.5321814615964889,0.28193098174780606,-0.2762165496237576
1772619333512409000,0.9294091796875,0.8542442549854516,0.18019845397919415,-0.35317967005595563
1772619333522440200,0.939440185546875,1.174153669732809,0.13694821805655955,-0.40569589310437437
1772619333532470000,0.949469970703125,1.4222528167665003,0.12078998719900846,-0.37099487434029577
1772619333542501000,0.959501220703125,1.592092081555724,0.11296820753216742,-0.3670473057582974
1772619333552532200,0.9695322265625,1.7046698284655808,0.07722761658728122,-0.36562998630627985
1772619333562563000,0.97956298828125,1.7739011856019495,0.03736906892955303,-0.3921335239589214
1772619333572594200,0.98959423828125,1.7790929090261458,-0.014998831689357757,-0.3948946592353284
1772619333582625000,0.999625,1.7011714649558067,-0.0026367782443761823,-0.4124947594642639
1772619333592656100,1.00965625,1.648995287516713,0.015330547861754893,-0.450232953967154
1772619333602687200,1.019687255859375,1.6235966423660515,-0.01846767684370279,-0.4951477621011436
1772619333612718000,1.029718017578125,1.5779992587953806,-0.0775663470223546,-0.6025612581156193
1772619333622749200,1.039749267578125,1.5166045866340399,-0.16598726553618906,-0.7074548802636563
1772619333632780000,1.049780029296875,1.4174153136074543,-0.23146803796738386,-0.7722180059447884
1772619333642810000,1.05981005859375,1.3442670752882957,-0.2800800931841135,-0.8073930719614029
1772619333652841200,1.06984130859375,1.2584861498892306,-0.34600802486091853,-0.7771351502113044
1772619333662872000,1.0798720703125,1.187434591588378,-0.38353637600541113,-0.7494175605937838
1772619333672903200,1.089903076171875,1.1452677669882774,-0.36948067038506266,-0.7339356215626001
1772619333682934000,1.09993408203125,1.112562013694644,-0.3533043193489313,-0.6215041512556374
1772619333692965000,1.109965087890625,0.9524936168134212,-0.3429346087649464,-0.46823257490769027
1772619333702996000,1.119995849609375,0.73856094327569,-0.31645226003080607,-0.33986353075653314
1772619333713027000,1.130027099609375,0.4922229606956243,-0.2653741069614887,-0.2133523894317448
1772619333723058000,1.140057861328125,0.2869289361655712,-0.23177228161096572,-0.0695375004760921
1772619333733089300,1.15008935546875,0.19870938544273375,-0.2627697696819901,0.05346884759813547
1772619333743120100,1.1601201171875,0.17614917858839035,-0.3246767752796411,0.17526830410063265
1772619333753150000,1.17014990234375,0.16248071871995926,-0.3668228493526578,0.26704715474024415
1772619333763181300,1.180181396484375,0.08841828816533089,-0.3997872535824775,0.3082834204919636
1772619333773212200,1.190212158203125,-0.08033610399663448,-0.4367576785832643,0.2916032115869224
1772619333783243300,1.2002431640625,-0.3312356954038143,-0.4928007605835795,0.2736351548284292
1772619333793274000,1.210274169921875,-0.6972036814928054,-0.5405871786311268,0.29571488468945023
1772619333803305200,1.22030517578125,-1.0322516286611556,-0.6151455760091543,0.4414293236561119
1772619333813336000,1.230336181640625,-1.2231675837486982,-0.6874199541032314,0.5535502667091786
1772619333823367200,1.2403671875,-1.2291677009463309,-0.8098463103324174,0.6781422765396535
1772619333833398000,1.25039794921875,-1.0615390979439019,-1.0510182884514332,0.7695325662530959
1772619333843429000,1.26042919921875,-0.8101514307588339,-1.2377999202132224,0.7091758588373661
1772619333853460000,1.2704599609375,-0.6513502773344516,-1.3271505207926033,0.5305420238263905
1772619333863490000,1.280489990234375,-0.7574585359692573,-1.2316495808899401,0.26370690440163014
1772619333873521200,1.290521240234375,-1.1862298919737337,-0.8463309976428747,0.07178878653421998
1772619333883552000,1.300552001953125,-1.800987929970026,-0.294016264078021,0.050489685656875366
1772619333893583000,1.3105830078125,-2.251153956180811,0.3655526832863688,0.0619232260800898
1772619333903614000,1.320614013671875,-2.2702415184885263,0.9364432302445173,-0.010590805988758802
1772619333913645000,1.33064501953125,-1.884692633616924,1.2137594116732477,-0.0409333372823894
1772619333923676000,1.340676025390625,-1.2486655976206062,1.2864403247416019,-0.003505377772450447
1772619333933707000,1.35070703125,-0.5868091238409281,1.2032424015730618,0.12139862061664461
1772619333943737900,1.36073779296875,-0.18226444659829139,1.0436360692456363,0.37984775062054393
1772619333953769200,1.370769287109375,-0.013342296653985977,0.9222840642496943,0.6353174264222383
1772619333963800000,1.380800048828125,0.10209025516510009,0.7978744252488017,0.7885257282756268
1772619333973830000,1.390829833984375,0.2229635367333889,0.591835427570343,0.8718120603799819
1772619333983861200,1.400861328125,0.31357553555071355,0.35960488079786296,0.9004811055034398
1772619333993892000,1.41089208984375,0.3508066573143005,0.20059008462280034,0.7602872565891593
1772619334003923200,1.420923095703125,0.31411037307977674,0.09736877960115671,0.5524531921874731
1772619334013954000,1.4309541015625,0.1586795728713274,0.09900456410944461,0.3534437278196215
1772619334023985200,1.440985107421875,-0.12296353184580802,0.20621172389686107,0.2307514141306281
1772619334034016300,1.451016357421875,-0.47378538672924037,0.3875508723437786,0.1741797051463276
1772619334044047000,1.461047119140625,-0.7345826872944832,0.7061150099620223,0.24056765555031595
1772619334054078200,1.471078125,-0.8458487670838832,0.9775772046655415,0.3795856656182557
1772619334064109000,1.481109130859375,-0.8347405130922794,1.2149687874630093,0.5410332418981939
1772619334074139100,1.49113916015625,-0.6992582759350537,1.3556404099568724,0.6262006385087967
1772619334084170000,1.501169921875,-0.4932318454772234,1.3513912280797957,0.6953740549128502
1772619334094201000,1.511201171875,-0.20960779607594013,1.3177335808888078,0.7017104183275252
1772619334104232200,1.521232177734375,0.09193418733179569,1.2634390961214899,0.6959418448634446
1772619334114263000,1.531262939453125,0.3397147699356079,1.1397507571324705,0.6379546430580317
1772619334124294100,1.541294189453125,0.46271921831369395,1.0193681816905735,0.5432381315313279
1772619334134325000,1.551324951171875,0.5444681117177009,0.9009493075370788,0.4304089671436697
1772619334144356000,1.561356201171875,0.6109452017098664,0.8014160433784127,0.3003700170189142
1772619334154387000,1.571386962890625,0.6972288159340619,0.7161620644629001,0.2099566095136106
1772619334164418000,1.58141796875,0.8327174828320741,0.6531520660594106,0.1143445373866707
1772619334174449200,1.59144921875,0.9357669384181498,0.5745847253009677,0.020606515503302215
1772619334184479000,1.60147900390625,1.0903080963104963,0.5005588273644447,-0.030498744768649336
1772619334194510000,1.611510009765625,1.2066817283719777,0.4505740224897861,-0.04146145280972123
1772619334204541200,1.621541259765625,1.2602052287667989,0.3799550103873014,-0.0449650039512664
1772619334214572300,1.631572265625,1.190716681998968,0.3071317662388086,-0.015760317581146953
1772619334224603100,1.64160302734375,0.9850117385804653,0.30183921278864145,0.023233795266970992
1772619334234634200,1.65163427734375,0.7404828512489795,0.2785381244391203,0.06904306802265346
1772619334244665000,1.6616650390625,0.5281868390023708,0.2901347464695573,0.10496676044948398
1772619334254696200,1.6716962890625,0.35593700594007965,0.31598844191133973,0.22559395830221474
1772619334264727000,1.68172705078125,0.2224626014739275,0.3047542234525084,0.33837402285113927
1772619334274758100,1.691758056640625,0.13493512466847896,0.2713373992800712,0.3679227003533393
1772619334284789000,1.7017890625,0.081877488219738,0.18003508011102676,0.3074656743682921
1772619334294819000,1.711819091796875,0.009645780223608017,0.04659545469731092,0.20360691169332712
1772619334304850200,1.72185009765625,-0.09592880992591381,-0.10226415042728185,0.04937752316389232
1772619334314881000,1.731881103515625,-0.15813830560147762,-0.2228732281014323,-0.09047375939041376
1772619334324912000,1.741912109375,-0.14580314016342164,-0.34674276887625455,-0.18161080499514937
1772619334334943000,1.75194287109375,-0.0916021788984537,-0.4955515205964446,-0.25014501018021257
1772619334344974000,1.76197412109375,-0.07516659240424632,-0.5900955981656909,-0.24830606778264044
1772619334355005000,1.7720048828125,-0.06483107635080813,-0.5990683014333248,-0.1287421152472496
1772619334365036000,1.7820361328125,0.004846270987391471,-0.6067085870534181,-0.01179528640769422
1772619334375067000,1.79206689453125,0.07110124266147613,-0.5859510457068682,-0.018613186261616645
1772619334385098000,1.802097900390625,0.11241057364940643,-0.6249854175001383,-0.029793446043506262
1772619334395129000,1.812129150390625,0.05866729302406311,-0.7270785952746868,-0.1260276321241632
1772619334405159000,1.822158935546875,-0.14685177243351935,-0.8188947091847658,-0.25767485769577325
1772619334415190000,1.83218994140625,-0.38097266299724575,-0.8343971064820885,-0.3638479982603341
1772619334425221000,1.84222119140625,-0.5804056865394115,-0.7840139499396085,-0.41296486119404435
1772619334435252200,1.852252197265625,-0.7322580437391996,-0.7065294359818101,-0.38486371561903504
1772619334445283300,1.862283447265625,-0.8103753026425838,-0.607300123205781,-0.30708025524728
1772619334455314400,1.872314453125,-0.8018897983700036,-0.410280882807076,-0.15151103294882923
1772619334465345300,1.88234521484375,-0.7114250990688801,-0.21746844644844532,0.1276996935222298
1772619334475376400,1.89237646484375,-0.5913140340447426,-0.08789631011784076,0.38817970829922704
1772619334485407500,1.902407470703125,-0.48588674341142174,-0.039621524031460284,0.5820314976429566
1772619334495438600,1.9124384765625,-0.372751362618804,-0.09811696761995553,0.7298556587725877
1772619334505468400,1.922468505859375,-0.3081768913775682,-0.25549510250389573,0.752099054762721
1772619334515499500,1.93249951171875,-0.2977566196501255,-0.4839420390844345,0.6993772992048413
1772619334525530600,1.942530517578125,-0.3046615767329931,-0.7542620780155063,0.6124600632522255
1772619334535561500,1.9525615234375,-0.32376609017550945,-1.011642555874586,0.5544215696509928
1772619334545592600,1.962592529296875,-0.3440717961013317,-1.1674649857491255,0.40711007075123484
1772619334555623400,1.97262353515625,-0.36350071919262406,-1.183297930175066,0.08267791788242757
1772619334565654500,1.982654541015625,-0.4741203177720308,-1.0348422296762465,-0.2884339339010417
1772619334575685400,1.992685302734375,-0.7800614129215478,-0.7808227526828646,-0.524921480530873
1772619334585716500,2.002716552734375,-1.3529711907476185,-0.3113958534240722,-0.5824246616790071
1772619334595747600,2.01274755859375,-2.077529327633977,0.31963673528581854,-0.5272036731839179
1772619334605778400,2.0227783203125,-2.6412165190845727,0.9457374205514788,-0.3317979689290747
1772619334615808500,2.03280859375,-2.784377035784721,1.4338757422819732,-0.036654271723702544
1772619334625839400,2.04283935546875,-2.555420396116376,1.6677923424452543,0.22239687929395585
1772619334635870500,2.052870361328125,-1.9743898556768893,1.6721166353851555,0.27998477958347645
1772619334645901600,2.062901611328125,-1.157767767599225,1.4666615750744938,0.16347860718350857
1772619334655932400,2.072932373046875,-0.3131377286553383,1.1787111869066953,0.019857779495231806
1772619334665963500,2.082963623046875,0.4601783016592264,0.86571725063622,-0.11919278113543987
1772619334675994400,2.092994384765625,1.057180318212509,0.5405106062635779,-0.40443803853038696
1772619334686025500,2.103025390625,1.4143413129895925,0.2733966698974371,-0.6548180995754898
1772619334696056300,2.113056396484375,1.4750672921091317,0.09257336201816797,-0.7655431312907487
1772619334706087700,2.123087646484375,1.2346703900158404,0.10188450345993041,-0.7846113313108682
1772619334716118500,2.133118408203125,0.8301157759010791,0.2904173628032207,-0.6534723109897226
1772619334726148400,2.1431484375,0.38977906978726384,0.5836866079062223,-0.40003987663667645
1772619334736179700,2.1531796875,0.10506079540848731,0.8299009641066193,-0.15056308457423
1772619334746210600,2.16321044921875,-0.002467266896367073,0.9325228419303894,0.041886071429960425
1772619334756241700,2.17324169921875,-0.01966156280338764,0.9385720589667558,0.2037148655798286
1772619334766272500,2.1832724609375,0.030938743621110914,0.8650544028133154,0.24017851010225713
1772619334776303600,2.1933037109375,0.23662732042670248,0.741865830039978,0.24952545350976288
1772619334786334500,2.20333447265625,0.4998953950196504,0.5765592402443289,0.20440050975643098
1772619334796365600,2.213365478515625,0.7819307139247655,0.38473464587926864,0.18409589980915186
1772619334806396400,2.223396484375,1.0058265630722045,0.17507190474569798,0.13695844718962907
1772619334816427500,2.233427490234375,1.196684650492668,0.003324468247592449,0.14106515185609458
1772619334826458400,2.243458251953125,1.26393330937922,-0.17569588186293839,0.08267908692620694
1772619334836488400,2.253488525390625,1.2316337987989185,-0.36470308071970936,0.012442279074341058
1772619334846519600,2.26351953125,1.1675988412618636,-0.4440700474232435,-0.018233502761647105
1772619334856550400,2.27355029296875,1.069043774485588,-0.5249088402450084,-0.03536978487111628
1772619334866581500,2.28358154296875,0.8945505464106798,-0.5353776272892952,0.04337897686883807
1772619334876612400,2.2936123046875,0.6191080498993397,-0.4581047102555632,0.13221256783679128
1772619334886643500,2.3036435546875,0.28388065451085565,-0.3315820246234536,0.21529899345487355
1772619334896674300,2.31367431640625,-0.06724515175521373,-0.23380407969951628,0.29289705078974365
1772619334906705400,2.323705322265625,-0.3651058163017034,-0.16753917115330696,0.356606356569007
1772619334916736300,2.333736328125,-0.6562941634774208,-0.13503566243350504,0.3605581629347056
1772619334926767600,2.343767578125,-0.8813613944917916,-0.11189122595041989,0.3736921506002545
1772619334936797400,2.35379736328125,-1.0686311020314694,-0.10457505771815777,0.30241905850321055
1772619334946828300,2.363828369140625,-1.1177554906845093,-0.1246200668811798,0.1926575380578637
1772619334956859600,2.373859619140625,-1.0606950483351945,-0.19917028095275163,0.0984846318885684
1772619334966890500,2.383890380859375,-0.8789689463973045,-0.32075551018267867,-0.04386215727590024
1772619334976921600,2.393921630859375,-0.6420511185914277,-0.4526087431877851,-0.22142427140213547
1772619334986952400,2.403952392578125,-0.39164311009347436,-0.5538555332660675,-0.35146044504791496
1772619334996983600,2.413983642578125,-0.10714052429199218,-0.6004913199737668,-0.45669535491429264
1772619335007014400,2.424014404296875,0.13367197286486626,-0.5836866079062223,-0.48960576393455263
1772619335017045500,2.43404541015625,0.3512818736106157,-0.5604498169645666,-0.4697444407753646
1772619335027076600,2.44407666015625,0.549615411478281,-0.4909361357554793,-0.46717919339723885
1772619335037107500,2.454107421875,0.7162953354537487,-0.46223903358131646,-0.4010144572898745
1772619335047137500,2.464137451171875,0.8039496535092592,-0.46151685678660864,-0.3549409075748175
1772619335057168400,2.47416845703125,0.8304758413851261,-0.4574029917269945,-0.3153272015236318
1772619335067199500,2.484199462890625,0.7723293573647737,-0.41729573000520465,-0.24526231617256997
1772619335077230300,2.494230224609375,0.6674842505335807,-0.4137503124833107,-0.21517434416189787
1772619335087261400,2.504261474609375,0.5503139151364564,-0.44319706398099656,-0.26445275433287024
1772619335097292500,2.51429248046875,0.37055005318224427,-0.45087388221919533,-0.3802867265596986
1772619335107323400,2.524323486328125,0.10509878933131694,-0.3868310336366296,-0.48500221566185353
1772619335117354500,2.5343544921875,-0.19123276595175265,-0.2516591776028275,-0.5531734692860394
1772619335127385300,2.54438525390625,-0.4948381116300821,-0.07487608502507209,-0.4847204030457884
1772619335137416400,2.55441650390625,-0.7030442242145538,0.12094985393583774,-0.33529958384186026
1772619335147447600,2.564447509765625,-0.7751438302636147,0.2693272285014391,-0.15522614448182284
1772619335157477400,2.574477294921875,-0.839442991694808,0.33213205972164866,0.0472805143520236
1772619335167508500,2.584508544921875,-0.858618816807866,0.28114392302334307,0.2913973137512803
1772619335177539600,2.59453955078125,-0.7323445529788732,0.1630380603417754,0.5437897740647196
1772619335187570700,2.60457080078125,-0.4017179293841123,0.00885609115064144,0.7087518612716347
1772619335197601500,2.6146015625,-0.06317044966220856,-0.24021043961048125,0.8728456412114203
1772619335207632600,2.624632568359375,0.2720890944302082,-0.5284823148176073,0.8883685698401182
1772619335217663500,2.63466357421875,0.5629805044859647,-0.6888365429028869,0.6606297084636986
1772619335227694600,2.644694580078125,0.7620978862076997,-0.6870546279221773,0.30727248988375067
1772619335237725400,2.654725341796875,0.7773235123902559,-0.5807113914877176,-0.036830578138679265
1772619335247756500,2.664756591796875,0.4375736711412668,-0.3238525994151831,-0.13774901304543016
1772619335257787400,2.674787353515625,-0.38787469747066494,0.15873948636502028,0.025639833495393394
1772619335267817500,2.6848173828125,-1.4396587095975875,0.8622454828724264,0.26269758122861386
1772619335277848600,2.6948486328125,-2.256780563890934,1.519539763303101,0.48445429945550855
1772619335287879400,2.70487939453125,-2.762833312496543,1.9625018494844435,0.9237140970528125
1772619335297910500,2.71491064453125,-2.800058004519343,2.2799144789800048,1.2670131552159785
1772619335307941400,2.72494140625,-2.355778698259592,2.3313500671848653,1.3948150670036672
1772619335317972500,2.734972412109375,-1.5263959128081797,2.030060304972529,1.3129670971393586
1772619335328003300,2.74500341796875,-0.6539899781882762,1.5335443232581019,1.1555270029351115
1772619335338034400,2.755034423828125,0.03128536510169506,1.011952060215175,0.9328168564409017
1772619335348065300,2.765065185546875,0.5145382528781891,0.5971151215389371,0.6482949083518237
1772619335358096400,2.775096435546875,0.8454080375790596,0.31159254503995176,0.3389301223639399
1772619335368127500,2.78512744140625,1.0053694669544697,0.09571779752373695,0.012294760362431406
1772619335378157300,2.7951572265625,0.99537238907516,-0.08929799360930919,-0.35773462994657457
1772619335388188400,2.8051884765625,0.8349094399183988,-0.1489294554904103,-0.6328741249233484
1772619335398219500,2.815219482421875,0.5187076475173235,0.013710545444488525,-0.6821580149870365
1772619335408250600,2.825250732421875,0.1041115318596363,0.28727175825387236,-0.5438960839834064
1772619335418281500,2.835281494140625,-0.34658582474887367,0.532559939520061,-0.3356454016048461
1772619335428312600,2.8453125,-0.8117395767331123,0.8016399152621626,-0.07213007425256072
1772619335438343400,2.855343505859375,-1.1594359930723905,1.0757666529998182,0.16660353427100927
1772619335448374000,2.8653740234375,-1.3587632181525229,1.206498480759561,0.33120763835310935
1772619335458405000,2.875405029296875,-1.3570932391136883,1.1991975100964307,0.34682653816957026
1772619335468436000,2.88543603515625,-1.2252537423729897,1.10801852504611,0.28407157397307453
1772619335478467000,2.895467041015625,-1.0085323148995637,0.9534785361975431,0.17788900799304247
1772619335488497000,2.905496826171875,-0.7142313886612653,0.8248089016646146,0.048802499754913145
1772619335498528000,2.915528076171875,-0.3991308355003595,0.7171236029714345,-0.0898131765898317
1772619335508559000,2.92555908203125,-0.036870471757650375,0.6323644218355416,-0.11950199321508406
1772619335518590000,2.93558984375,0.3093412589818239,0.5465507632106542,-0.10202058746237307
1772619335528621000,2.94562109375,0.6357850439339876,0.5302449405759573,-0.10224668783582747
1772619335538652000,2.95565185546875,0.952615197366476,0.49838528271764515,-0.04606207847297191
1772619335548683000,2.96568310546875,1.2255524330586194,0.4682651620030403,0.01984868287332356
1772619335558713900,2.9757138671875,1.4500935943722724,0.4258639441251755,0.053250455607101316
1772619335568745000,2.985744873046875,1.5715777013152836,0.338925665384531,0.07996544405333697
1772619335578776000,2.995776123046875,1.5912421867281197,0.2833639371603727,0.10965703715756535
1772619335588806000,3.005805908203125,1.5404367131203411,0.25437778891175983,0.12104191613346338
1772619335598837000,3.0158369140625,1.4584060801655052,0.20914427021741866,0.07378368667848408
1772619335608868000,3.0258681640625,1.3596049296736716,0.15295359643995762,0.019381138426810503
1772619335618899200,3.035899169921875,1.257265668183565,0.11996493455171585,-0.02381342178583145
1772619335628930000,3.045929931640625,1.1525462335586547,0.10834054773151874,-0.10306187667623162
1772619335638961200,3.055961181640625,1.0709639288932085,0.06203209328204393,-0.18873641909137368
1772619335648992000,3.065991943359375,0.9683324064582586,-0.014746902754902839,-0.2566352855149656
1772619335659023000,3.076023193359375,0.8841635924309491,-0.07626724712252617,-0.3146663264621049
1772619335669054000,3.086053955078125,0.8267787404328584,-0.12920710241049527,-0.3491676579356193
1772619335679085000,3.0960849609375,0.7884726829141377,-0.21509499531537293,-0.3778155141405761
1772619335689116000,3.106115966796875,0.7309060446083545,-0.3121063397809863,-0.3788086898963898
1772619335699146000,3.11614599609375,0.6857844618558884,-0.40157296795547004,-0.3577098608314991
1772619335709177000,3.126177001953125,0.6363882705241442,-0.498406033244729,-0.31317813373096287
1772619335719208000,3.1362080078125,0.5885673656851053,-0.6126464526697993,-0.2734438700400293
1772619335729239000,3.146239013671875,0.5181687183350324,-0.6994327557191252,-0.27755831962153316
1772619335739270000,3.156269775390625,0.43445057068467136,-0.7840788318693638,-0.2905798598885536
1772619335749301000,3.166301025390625,0.3096551472365856,-0.8223188384145498,-0.34529834222160277
1772619335759331800,3.176331787109375,0.05796645127832889,-0.80813512250036,-0.3782394386410713
1772619335769363000,3.186363037109375,-0.31673662993013857,-0.7294979313760995,-0.438601333688572
1772619335779393800,3.196393798828125,-0.7361655725717544,-0.5277677368074655,-0.5072578135464341
1772619335789425200,3.206425048828125,-1.0925491532355547,-0.36419103954434395,-0.5589258953329176
1772619335799456000,3.2164560546875,-1.3089946863770485,-0.12641747169196604,-0.4790870733339339
1772619335809485800,3.22648583984375,-1.3735416850894688,0.05046235925853252,-0.3094229459159076
1772619335819517000,3.236516845703125,-1.3963444685280322,0.07655629319697618,-0.1364651837799698
1772619335829548000,3.246548095703125,-1.3222522273570299,0.050772740381956095,0.023623890563100575
1772619335839579100,3.2565791015625,-1.198902326542139,-0.06805325326770544,0.1431162391670048
1772619335849610000,3.26660986328125,-1.0863438688546418,-0.3563058392524719,0.1779370483858511
1772619335859641000,3.27664111328125,-0.9959212551295756,-0.6269318753927946,0.0006878361336886882
1772619335869672000,3.286671875,-0.8697048589676618,-0.8280641040682792,-0.347713330941461
1772619335879703000,3.296703125,-0.6605857231914997,-1.0090721208646893,-0.5893656033907085
1772619335889734100,3.306734130859375,-0.4957324301213026,-1.0010799530670047,-0.8273375433593988
1772619335899765000,3.316764892578125,-0.3845177882581949,-0.7477867445215582,-0.9929697849128395
1772619335909796000,3.326796142578125,-0.46603988716900346,-0.3843658125668764,-0.9294820129297673
1772619335919826000,3.336825927734375,-0.9405477429538964,0.08173077322542667,-0.6630716947883367
1772619335929857000,3.34685693359375,-1.611325774335861,0.5845765424832702,-0.39575836339257653
1772619335939888000,3.35688818359375,-2.106255071380734,1.1017714473500848,-0.13402560860812662
1772619335949919000,3.3669189453125,-2.377244680136442,1.3783160598844288,0.24369115786571055
1772619335959950000,3.3769501953125,-2.3498598296046254,1.505706760522723,0.47894828591775146
1772619335969981000,3.38698095703125,-2.0348077917605636,1.4912924507230518,0.5420657267510891
1772619335980012000,3.397011962890625,-1.4273779046952724,1.2785890267193316,0.5236227459572256
1772619335990043000,3.40704296875,-0.6824976952701807,0.9798661923855543,0.4936322064390406
1772619336000074000,3.417073974609375,-0.02539806062877178,0.6597068945303559,0.4656059892637655
1772619336010105000,3.42710498046875,0.5333236173689365,0.40613720713108775,0.4549730611663311
1772619336020136200,3.43713623046875,0.945377062806487,0.23042963483035564,0.40127456953078505
1772619336030166000,3.447166015625,1.2811948253035546,0.007056055991351604,0.3115088488118723
1772619336040197000,3.457197021484375,1.5299889688640833,-0.19322072489857672,0.16696663196235895
1772619336050228200,3.467228271484375,1.6907500241845845,-0.3693298637375235,-0.056147236494533716
1772619336060259000,3.477259033203125,1.7296189762830734,-0.44624709920138117,-0.3034500089861452
1772619336070290200,3.487290283203125,1.6896733348637818,-0.39280163247883315,-0.5156938891867175
1772619336080321000,3.497321044921875,1.5047639267146586,-0.213854639865458,-0.558709439570643
1772619336090352000,3.50735205078125,1.1554098062962292,0.12125351305752992,-0.4211242387847975
1772619336100383000,3.517383056640625,0.6557710163861513,0.5298012884616852,-0.1821153204511851
1772619336110414000,3.5274140625,0.05918927107155323,0.9294617007941007,0.052089010612294075
1772619336120445000,3.53744482421875,-0.4657698380559683,1.2724518391385673,0.2704425693321973
1772619336130476000,3.54747607421875,-0.9109609984636307,1.5203998872637747,0.6251630390893668
1772619336140506000,3.557506103515625,-1.216215280392766,1.7013614345699548,0.7876841628849506
1772619336150537000,3.567536865234375,-1.313451081264019,1.6770622750937938,0.7716989505067468
1772619336160568000,3.577568115234375,-1.171385958585143,1.4458280458822845,0.6017416122958064
1772619336170599000,3.587598876953125,-0.7551210329324006,1.0964175191015004,0.3328282252922654
1772619336180630000,3.597630126953125,-0.15638766254186628,0.7724851324483751,0.13188556437212973
1772619336190660900,3.607660888671875,0.4380214149087667,0.49594227347970005,0.03596950432993471
1772619336200692000,3.61769189453125,0.9046715429306029,0.2541527479842305,-0.06647453270889818
1772619336210722800,3.627722900390625,1.2524813565164803,0.04249824851155281,-0.1974237295463681
1772619336220754000,3.63775390625,1.5529957504421472,-0.10725158345103263,-0.2618007785193622
1772619336230785000,3.647784912109375,1.768423046451807,-0.2355640751093626,-0.2892492688719183
1772619336240816000,3.657816162109375,1.8398925379037856,-0.3391609354451299,-0.30075390176996586
1772619336250846000,3.667845947265625,1.7588970932155847,-0.346721433827281,-0.29643077787384386
1772619336260877000,3.677876953125,1.5866414149343966,-0.3188566908240318,-0.2942858017344028
1772619336270908200,3.687908203125,1.2702280256092549,-0.2737310164183378,-0.28728381401784714
1772619336280939000,3.69793896484375,0.9088298316538334,-0.20228169097155332,-0.2772839596595615
1772619336290970000,3.70797021484375,0.5382072977572679,-0.14379618425518273,-0.32738048128038644
1772619336301001000,3.7180009765625,0.2031423994541168,-0.15906681862324476,-0.470932627646625
1772619336311032000,3.728031982421875,-0.056824295505881306,-0.1844713089928031,-0.557013339709863
1772619336321063200,3.738063232421875,-0.26416648473739623,-0.15585487083941696,-0.5993897154074161
1772619336331094000,3.748093994140625,-0.46493221818804736,-0.09183627991527318,-0.5724297392241656
1772619336341125000,3.758125,-0.5795768344998359,-0.045078328132629394,-0.5499933048799633
1772619336351156000,3.768156005859375,-0.6357862129777669,-0.023502163879573344,-0.5558981450095772
1772619336361186000,3.77818603515625,-0.6356412515491247,-0.05360387215465307,-0.5768553736466914
1772619336371217000,3.788216796875,-0.5842997713685035,-0.10813713411390781,-0.5983854337356984
1772619336381248000,3.798248046875,-0.4731400745630264,-0.13653349977582693,-0.5967116553045809
1772619336391279000,3.808279052734375,-0.35982875268161296,-0.2056996827214956,-0.5524366063788533
1772619336401310000,3.81831005859375,-0.22162264351844788,-0.27579934712499377,-0.5179113095078617
1772619336411341000,3.828341064453125,-0.03774140937328339,-0.36833617652505635,-0.5495012835793197
1772619336421372000,3.838371826171875,0.09100947370231151,-0.5000578921049833,-0.5579008631341159
1772619336431403000,3.848403076171875,0.2307575516104698,-0.574580341386795,-0.5590320591211319
1772619336441434000,3.85843408203125,0.38414018711745734,-0.6717804864227771,-0.5018583656556904
1772619336451465200,3.86846533203125,0.48490591568052765,-0.7122369999736547,-0.45735491480156776
1772619336461496000,3.87849609375,0.5535498283177613,-0.7210615269422531,-0.44086774425059555
1772619336471526100,3.888526123046875,0.5132008667945861,-0.7168301729828119,-0.4419365425258875
1772619336481557200,3.89855712890625,0.315516148224473,-0.6794423993527889,-0.4796477028913796
1772619336491588000,3.908588134765625,-0.006198854640126228,-0.6094491179332137,-0.4962232823781669
1772619336501619200,3.918619140625,-0.35841128709912295,-0.4972641697332263,-0.4766835193235427
1772619336511650000,3.928650146484375,-0.689464611673355,-0.4219230975449085,-0.36771373377777633
1772619336521681200,3.93868115234375,-0.9488064527332782,-0.3531546817451715,-0.25838921651020647
1772619336531712000,3.9487119140625,-1.0596399863243102,-0.3146475486963987,-0.12095051152296364
1772619336541743000,3.9587431640625,-1.032749056789279,-0.3939782750427723,0.10676971821822226
1772619336551774000,3.96877392578125,-0.8453565996527671,-0.5007379833236336,0.30092282859608527
1772619336561805300,3.978805419921875,-0.5162368734896182,-0.6348606225654483,0.38992607704252
1772619336571836200,3.988836181640625,-0.1551420463949442,-0.8088295345053076,0.3825544522959739
1772619336581866000,3.998865966796875,0.04963584530651569,-0.9492045121401548,0.14403452305570244
1772619336591897300,4.0088974609375,0.23861469485163686,-0.9771770994320511,-0.28840514619797464
1772619336601928200,4.01892822265625,0.18882862741947173,-0.8882005928620695,-0.5685110314104705
1772619336611959300,4.028959228515625,-0.3342114963442087,-0.43477030415832996,-0.571208526866138
1772619336621990100,4.038990234375,-1.2177309456527232,0.3457689554080367,-0.5017613350220024
1772619336632021200,4.049021240234375,-1.9280518828719853,1.0657996779978274,-0.3435939494565129
1772619336642052000,4.059052001953125,-2.3107231664806602,1.5960937184125183,-0.007596446478366851
1772619336652083200,4.069083251953125,-2.350039862346649,2.026660433401167,0.2512115069005638
1772619336662114000,4.079114013671875,-1.9678911413073539,2.2450819427907467,0.4135870847456157
1772619336672145200,4.089145263671875,-1.2313339390695095,2.2281065503314137,0.5088360226485877
1772619336682176000,4.099176025390625,-0.4526175110161304,1.9795681350976229,0.6127724171370268
1772619336692206000,4.1092060546875,0.21249474968910215,1.688227812230587,0.6570804915495216
1772619336702237200,4.1192373046875,0.7283014150679111,1.4133227835968136,0.6476751690182835
1772619336712268000,4.12926806640625,1.1495143185168504,1.0867679394856096,0.6547993948750197
1772619336722299100,4.139299072265625,1.4992337651163339,0.7867448362082242,0.6038443567287176
1772619336732330000,4.149330078125,1.7084698052704332,0.5185311219066381,0.5206009139180183
1772619336742361000,4.159361083984375,1.7956553367704151,0.27236440424025055,0.4129232140094042
1772619336752392000,4.169391845703125,1.7072990079253911,0.09428659567683935,0.18904943056330084
1772619336762423000,4.179423095703125,1.4485469494521617,-0.022866496324539184,-0.07054828495383263
1772619336772454100,4.1894541015625,1.0806196459889412,-0.03715425713509321,-0.22930691441074014
1772619336782485200,4.1994853515625,0.5523620798379183,0.06555354540646076,-0.23475042063891885
1772619336792516400,4.209516357421875,-0.13887538672685623,0.2896899253115058,-0.07408208510316908
1772619336802546000,4.2195458984375,-0.8675427124977111,0.5853700309485197,0.10110361874792724
1772619336812577300,4.229577392578125,-1.4191227020472288,0.8160197382703424,0.3110196770554408
1772619336822608100,4.239608154296875,-1.8266496099710463,0.9524500699326396,0.4926981404593214
1772619336832639200,4.24963916015625,-2.037341109630465,1.0166413870751858,0.5242630166221409
1772619336842670000,4.259670166015625,-1.9373311678707599,1.0063640309497714,0.4136472905002534
1772619336852701200,4.269701171875,-1.5730647250026464,0.771284232226014,0.2795908118298277
1772619336862732300,4.279732177734375,-1.211007774877548,0.5870306576371193,0.1653751615198329
1772619336872763100,4.28976318359375,-0.9201672182261943,0.47443858994096516,0.00020827245581895112
1772619336882794200,4.299794189453125,-0.62408700735569,0.4174164337754249,-0.0825248462125659
1772619336892825000,4.3098251953125,-0.2556441555857658,0.40656361584961415,-0.06931888928934932
1772619336902856200,4.319856201171875,0.11660685629546641,0.4090665385812521,-0.03294284998513758
1772619336912886000,4.329885986328125,0.4760381340920925,0.38993426034897566,0.005280132360011339
1772619336922917000,4.339917236328125,0.74018357604146,0.4081380255594849,0.08352160216495394
1772619336932948200,4.3499482421875,0.9666501524597406,0.39591625736802816,0.10951521753408014
1772619336942979000,4.35997900390625,1.1692471929907797,0.3098117991030216,0.04459624370411038
1772619336953010200,4.37001025390625,1.3766010726600884,0.2126975787848234,-0.0353949193123728
1772619336963041000,4.380041015625,1.5803326701790092,0.06876227831989526,-0.1278544456925243
1772619336973072100,4.390072021484375,1.7470464964240788,-0.08911679182350635,-0.17901961945816874
1772619336983103000,4.40010302734375,1.7862684997439384,-0.18995120170861482,-0.2655308318931609
1772619336993134300,4.41013427734375,1.8045207802712917,-0.2719318580418825,-0.3511399078566581
1772619337003165200,4.420165283203125,1.8056746264815329,-0.34507746601253747,-0.31867790019102393
1772619337013196300,4.4301962890625,1.5818892519712446,-0.3187719351500273,-0.2695188786160201
1772619337023227100,4.44022705078125,1.1754752737253904,-0.23133155210614204,-0.1929544751778245
1772619337033257200,4.45025732421875,0.6987801370292902,-0.1740481146559119,-0.1145139756694436
1772619337043288300,4.460288330078125,0.2701321151435375,-0.09764847332537174,-0.042004327514767646
1772619337053319200,4.470319091796875,-0.01910392892062664,-0.06090104342550039,-0.005538637165725231
1772619337063350300,4.480350341796875,-0.1715846471518278,-0.08745031991600989,0.014180354913324117
1772619337073381000,4.490381103515625,-0.2035959884405136,-0.13122399519085884,0.04312639034725725
1772619337083412200,4.500412109375,-0.09951251363158226,-0.17539982152581213,0.08333418983407317
1772619337093443000,4.510443115234375,0.0749281074732542,-0.2220712640687823,0.13880254068635403
1772619337103474200,4.52047412109375,0.31148236266374585,-0.3153577427923679,0.22512137235440313
1772619337113505000,4.530505126953125,0.5778174236118793,-0.40872167066633697,0.31254626556821163
1772619337123536100,4.5405361328125,0.7441314368844032,-0.5032242471814156,0.362771162809059
1772619337133566200,4.550566162109375,0.8211708374232053,-0.6028840603291988,0.4453115719169378
1772619337143597000,4.56059716796875,0.8033160317808389,-0.6495026036411523,0.4931356185611337
1772619337153628200,4.570628173828125,0.6430348689317703,-0.7118474161341786,0.5284273697599768
1772619337163659000,4.580658935546875,0.39553018065989015,-0.7310308400318026,0.504567697679624
1772619337173690000,4.590690185546875,0.06997779158949852,-0.703125765018165,0.48348275100961324
1772619337183721000,4.600720947265625,-0.31945056506395336,-0.6794640266627073,0.4726649313319474
1772619337193752000,4.610751953125,-0.7369675366044044,-0.5930579551026225,0.4943590228762477
1772619337203783000,4.620782958984375,-1.1107020650416612,-0.4969131643384695,0.5643165023300797
1772619337213814300,4.630814208984375,-1.389444187620282,-0.4753481060013175,0.7199928017321974
1772619337223845000,4.64084521484375,-1.5575573592692613,-0.5164245050162076,0.8496461866054683
1772619337233876200,4.650876220703125,-1.5348568671613931,-0.65797407938838,0.8780828842777758
1772619337243906300,4.66090625,-1.3452052329212427,-0.9248355022981762,0.8405214345812797
1772619337253937200,4.670937255859375,-1.0516308673918247,-1.1916586390241979,0.7205524814415722
1772619337263968300,4.68096826171875,-0.7738631428033113,-1.405712893114984,0.5729435339652001
1772619337273999000,4.6909990234375,-0.6521387973636389,-1.5893907136425376,0.3433675202894956
1772619337284030200,4.7010302734375,-0.5870253969401121,-1.6968302208811044,0.01704904221743345
1772619337294061000,4.71106103515625,-0.7003074927270412,-1.6970181446686385,-0.2266197942186147
1772619337304092200,4.721092041015625,-1.1632441531836986,-1.4158642847731708,-0.3279404532507062
1772619337314123300,4.731123291015625,-2.0060370398283003,-0.8348281913757324,-0.20865020309016108
1772619337324154000,4.741154052734375,-2.876478980898857,-0.15728402685970067,-0.10824074061885476
1772619337334185200,4.751185302734375,-3.4489018519908186,0.44978287211209533,0.08182371220588684
1772619337344216000,4.761216064453125,-3.6176088978797196,0.9740539989754557,0.312433745104447
1772619337354247200,4.7712470703125,-3.334147930085659,1.341465169610083,0.4235245779247954
1772619337364277200,4.78127734375,-2.6054560543954373,1.4626584769129751,0.4081136217705905
1772619337374308000,4.79130810546875,-1.5711977620869875,1.391432438828051,0.3289020648244768
1772619337384339200,4.801339111328125,-0.4781079261034727,1.2340721318617462,0.2637530085656792
1772619337394370000,4.8113701171875,0.45895606638789177,1.019352691860497,0.18104096921794116
1772619337404401200,4.821401123046875,1.2481260839164257,0.7941238405436277,0.015919965122267603
1772619337414432000,4.831431884765625,1.8814467835634945,0.5177095763906836,-0.15986746748164296
1772619337424463000,4.841463134765625,2.37109375629127,0.2124780908152461,-0.362497022042796
1772619337434494200,4.851494140625,2.643745160779357,-0.0947656113654375,-0.5525946464847773
1772619337444525300,4.861525390625,2.6659990781635043,-0.3174792649909854,-0.7407097188074141
1772619337454556200,4.87155615234375,2.3909406125336883,-0.4032654510870576,-0.9306113092206418
1772619337464587300,4.881587158203125,1.9513713836610316,-0.30859482452869413,-1.0538250164352356
1772619337474617300,4.891617431640625,1.3743237753778694,-0.06769406456649303,-1.009636622879654
1772619337484648200,4.901648193359375,0.7887398094177246,0.27749767547547816,-0.7990903769098222
1772619337494679300,4.91167919921875,0.3302022607028484,0.6523018789708614,-0.5527294153129682
1772619337504710100,4.921710205078125,-0.034171734192967415,0.985957787258923,-0.31255053988452997
1772619337514741200,4.9317412109375,-0.3555617428869009,1.1823360994055867,0.0022690043779090047
1772619337524772000,4.941772216796875,-0.6313292335689068,1.3517539239123464,0.25766079263780267
1772619337534803200,4.95180322265625,-0.7828630263388157,1.4428250646740197,0.4285679058542475
1772619337544834000,4.961833984375,-0.8056646407335997,1.4004355372339485,0.5403235957914964
1772619337554865200,4.971865234375,-0.7485141820132732,1.2726561295390129,0.6093108785063028
1772619337564896000,4.98189599609375,-0.5986702420264483,1.0884610071390866,0.5449553107127547
1772619337574926000,4.991926025390625,-0.3899520882666111,0.8865405506953596,0.4253619859524071
1772619337584957200,5.001957275390625,-0.1670364823281765,0.7042837028816342,0.3061974079981446
1772619337594988000,5.011988037109375,0.060112231135368344,0.612958587358892,0.24569471624046563
1772619337605019400,5.022019287109375,0.23416706779301166,0.5520087363556027,0.16700309151522813
1772619337615050200,5.03205029296875,0.3867459857016802,0.4391013190999627,0.03251921774558723
1772619337625081300,5.042081298828125,0.5004904383033514,0.35603842048794027,-0.05975698795691132
1772619337635112200,5.0521123046875,0.5431897623449564,0.2813143111541867,-0.17382307372838257
1772619337645143300,5.062143310546875,0.4446896406263113,0.2178822879463434,-0.2374807954508811
1772619337655174100,5.072174072265625,0.29652503202855585,0.23961159693449735,-0.2231945690102875
1772619337665205200,5.082205322265625,0.08974924450814724,0.28540830246955157,-0.17252258558906614
1772619337675236400,5.092236328125,-0.057959437015652655,0.36430063739866014,-0.1254444619413465
1772619337685267200,5.10226708984375,-0.1566577116549015,0.40396132439672944,-0.0796793936535716
1772619337695297300,5.11229736328125,-0.10143559064865111,0.3882853240981698,-0.045486981998756525
1772619337705328000,5.122328125,0.03454524368047714,0.3208016874119639,-0.05594583217091858
1772619337715359200,5.132359130859375,0.3197241213083267,0.2312880052253604,-0.12330942267403006
1772619337725390000,5.14239013671875,0.6965455098450184,0.057121232625842094,-0.24066278648786246
1772619337735421200,5.152421142578125,1.041007182046771,-0.14473580319285392,-0.3803255972653627
1772619337745452300,5.162452392578125,1.2800041542142628,-0.34204672001451253,-0.49133353757522996
1772619337755483100,5.172483154296875,1.3195078970849514,-0.5026981774806976,-0.5913200253941119
1772619337765514200,5.18251416015625,1.2234656899124383,-0.576247690077126,-0.6795277395486832
1772619337775545000,5.192545166015625,1.073463929015398,-0.5734510450959205,-0.6504217643126845
1772619337785576400,5.202576416015625,0.9332219301104545,-0.5495560825064778,-0.5861114969655871
1772619337795607300,5.212607177734375,0.8166811247885227,-0.5179299411430954,-0.5344765867963432
1772619337805637000,5.22263720703125,0.6494079110950232,-0.48820115783363577,-0.46856334123201665
1772619337815668200,5.232668212890625,0.45762569456696506,-0.4969985045343637,-0.4059208609666675
1772619337825699300,5.24269921875,0.25248832190334797,-0.4715568970248103,-0.3431409449920058
1772619337835730400,5.25273046875,0.06563070229589939,-0.5121721082687377,-0.26773374876491723
1772619337845761300,5.26276123046875,-0.04125438593029976,-0.5298328526437283,-0.2289652613662183
1772619337855792400,5.27279248046875,-0.09912848275005817,-0.5297463434040546,-0.18781141320094466
1772619337865823200,5.2828232421875,-0.12591302930116652,-0.5544195968896151,-0.1504820917598903
1772619337875854300,5.292854248046875,-0.18525602962970733,-0.6068140932545065,-0.1826432167828083
1772619337885885200,5.30288525390625,-0.29279928950369355,-0.6031739831864833,-0.24490619621127843
1772619337895916300,5.312916259765625,-0.44393619191050526,-0.5654235137239099,-0.28760391281768677
1772619337905947100,5.322947021484375,-0.6785393130332231,-0.5316717585086822,-0.28160087301060555
1772619337915978200,5.332978271484375,-0.9807470668733119,-0.48803953753113744,-0.2623153039127588
1772619337926008300,5.34300830078125,-1.2633797671496867,-0.46754620007872577,-0.2155577905215323
1772619337936039200,5.3530390625,-1.4797855528026818,-0.4560603449463844,-0.16520152198597787
1772619337946070300,5.3630703125,-1.6337462804585694,-0.4746230065971613,-0.129125561606884
1772619337956101000,5.37310107421875,-1.6365373724818228,-0.5838432597726583,-0.033763445653021334
1772619337966132200,5.38313232421875,-1.4586802209317684,-0.8195011506453156,0.12272110139206051
1772619337976163000,5.3931630859375,-1.1257324609130621,-1.1045973184257745,0.2994055559009313
1772619337986194200,5.403194091796875,-0.683465078997612,-1.3570564142346382,0.37831221161633727
1772619337996225000,5.41322509765625,-0.18193828338384627,-1.585756741054356,0.31664412934109565
1772619338006256400,5.42325634765625,0.18878361923396586,-1.7567396229207515,0.10412453747168182
1772619338016287200,5.433287353515625,0.3492939146637916,-1.7694813233330844,-0.19519348627626895
1772619338026318300,5.443318359375,0.09738894560635089,-1.567250193504989,-0.34950098154321313
1772619338036348400,5.453348388671875,-0.6304816768288612,-1.0643304822281003,-0.2409608195863664
1772619338046379300,5.463379150390625,-1.5127631087750195,-0.3365788099974394,-0.13671747804060577
1772619338056410400,5.473410400390625,-2.355666470056772,0.3085337419912219,-0.012625380556285381
1772619338066441200,5.483441162109375,-2.9050375513851643,0.9640712418824434,0.3225746884338557
1772619338076472300,5.493472412109375,-3.1829227648735046,1.5652221948087215,0.7726736407577991
1772619338086503200,5.503503173828125,-3.0870518226146695,2.031789028461277,1.0835232584759593
1772619338096534300,5.5135341796875,-2.5265672265976664,2.2393802240177987,1.2446610381543635
1772619338106565000,5.523565185546875,-1.5970312915235756,2.1052260205939413,1.2532841973319648
1772619338116596200,5.53359619140625,-0.4976859022766351,1.6892101012662053,1.0993350139833986
1772619338126627300,5.54362744140625,0.4077712380737066,1.2156608613803983,0.9085172585733234
1772619338136658200,5.553658203125,1.0590782607883213,0.8200757356628775,0.6309345351628959
1772619338146688300,5.563688232421875,1.4297785360962152,0.4614394076362252,0.25878815269991756
1772619338156719000,5.573718994140625,1.616305316314101,0.13553718221485614,-0.10598390160277485
1772619338166750200,5.583750244140625,1.6136843201607465,-0.01633066481500864,-0.4126616404637694
1772619338176781000,5.593781005859375,1.4206909742772578,-0.0055211015090346335,-0.5901712937504052
1772619338186812200,5.603812255859375,1.0896364806592465,0.19139292494952678,-0.6100444534778595
1772619338196843300,5.61384326171875,0.7408592833459376,0.5823179499015212,-0.4340797646109015
1772619338206874000,5.6238740234375,0.5274222843706607,0.9305606019467115,-0.19991729992777107
1772619338216905200,5.6339052734375,0.36108722831010814,1.1507122961297631,0.008335574407875537
1772619338226936300,5.643936279296875,0.2077472629010677,1.218197686381638,0.1343076404199004
1772619338236967400,5.653967529296875,0.24768705910146235,1.2080731827303766,0.23014599558338522
1772619338246997000,5.6639970703125,0.44196284601092334,1.1285723605141043,0.2720926015615463
1772619338257028400,5.6740283203125,0.7711492076694965,1.011163247925043,0.2023692961897701
1772619338267059200,5.68405908203125,1.1205874992400406,0.8427446635887026,0.1489697875007987
1772619338277090300,5.69409033203125,1.3587246397078037,0.6813844733312726,0.1151451862450689
1772619338287121400,5.704121337890625,1.3774381080061195,0.5859229886561632,0.044758886919915676
1772619338297152300,5.71415234375,1.2428262239426373,0.5277037316605449,-0.04477181946672499
1772619338307183400,5.724183349609375,1.0124825138300657,0.4393500331640243,-0.1499710734978318
1772619338317214200,5.734214111328125,0.7355103235334157,0.38394641811102626,-0.2449364452190697
1772619338327245300,5.744245361328125,0.4550754255622625,0.3587833352819085,-0.2543902100019157
1772619338337276200,5.754276123046875,0.20016309138238428,0.36007571318000553,-0.25241744862422344
1772619338347307300,5.764307373046875,-0.012575403934717178,0.3777174605935812,-0.20361915012039242
1772619338357337300,5.77433740234375,-0.13481763576865197,0.4348109284296632,-0.12459588228799402
1772619338367368200,5.7843681640625,-0.15607435880899428,0.5114972777470946,0.024479411413893103
1772619338377399300,5.7943994140625,-0.1239712475836277,0.5645464386284351,0.12526508678644896
1772619338387430100,5.80443017578125,0.004544657692313194,0.5456473846301436,0.15453955045714973
1772619338397461200,5.814461181640625,0.16004092435240744,0.439399133002758,0.10675437451861798
1772619338407492000,5.8244921875,0.3250011849284172,0.25899551184028385,-0.044237712590023875
1772619338417523200,5.834523193359375,0.4528314460277557,0.08728723830878735,-0.19759594430811703
1772619338427554000,5.844553955078125,0.499442975077033,-0.024073241765797136,-0.28913616388626395
1772619338437585200,5.854585205078125,0.4966787710607052,-0.08366992459446192,-0.34487149511165915
1772619338447615700,5.86461572265625,0.4792436521351337,-0.1213742168277502,-0.3322696415614336
1772619338457646800,5.874646728515625,0.4394651839762926,-0.12079203302562236,-0.30885026059448717
1772619338467678000,5.884677978515625,0.42346740437746044,-0.14339812484830616,-0.29515820065476
1772619338477707800,5.894707763671875,0.4888526074796915,-0.204223764950037,-0.29468203451037406
1772619338487739000,5.90473876953125,0.5582523069202899,-0.302798705470562,-0.27787549581192433
1772619338497769700,5.914769775390625,0.6697463502466678,-0.37906829068064685,-0.2683247734606266
1772619338507800800,5.92480078125,0.8001824099302292,-0.43188919576406476,-0.19685608572624622
1772619338517831700,5.934831787109375,0.8760515976458787,-0.4933414433315396,-0.05359072041213512
1772619338527862800,5.94486279296875,0.8114853097110987,-0.5251552162215113,0.07618694842793047
1772619338537894000,5.954893798828125,0.6642173576921224,-0.5651654473096132,0.12469378970451653
1772619338547924700,5.9649248046875,0.5231055902153253,-0.5643953397199512,0.13184183482825756
1772619338557955800,5.974955810546875,0.39669104113280773,-0.5469286566123366,0.061300783332809805
1772619338567987000,5.984987060546875,0.21257366014420984,-0.49808103907406326,0.04635543539635837
1772619338578018000,5.99501806640625,-0.051204702058434484,-0.42140521115064616,0.12743154410533605
1772619338588047600,6.005047607421875,-0.3908411460608244,-0.3053255935996771,0.11803820427283644
1772619338598079000,6.015078857421875,-0.7507429639786481,-0.20715397318303583,0.06355426134802401
1772619338608109800,6.02510986328125,-1.0617337437331675,-0.11175795495957136,-0.02968224075399339
1772619338618141000,6.035140869140625,-1.2503145338714121,-0.12338175725787877,-0.016902034962177275
1772619338628172000,6.045172119140625,-1.2318664385110139,-0.26044424934387206,0.09992029071487486
1772619338638203000,6.055202880859375,-0.8876689702033996,-0.3635036418020725,0.10820800739303231
1772619338648234000,6.06523388671875,-0.19304186120033262,-0.6478562977388501,0.46757696054317055
1772619338658264800,6.075264892578125,0.20836919419169425,-0.8290209664016962,0.7002693526737391
1772619338668296000,6.0852958984375,0.47619186334908004,-0.8164654362112284,0.6280253697179258
1772619338678326800,6.095326904296875,0.5144593424230813,-0.9463350941836833,0.4846728375770151
1772619338688358000,6.10535791015625,0.15665595808923244,-1.0551394600346684,-0.015317542249709366
1772619338698388000,6.115387939453125,-0.5638701468020677,-0.7744479569539428,-0.6231037684720009
1772619338708418800,6.125418701171875,-1.4844430232197046,-0.4068956242829561,-0.7008295438397676
