time,seconds_elapsed,z,y,x
1772619332659781400,0.076781494140625,0.32102763652801514,0.394629567861557,-0.10069219022989273
1772619332669812500,0.0868125,0.28884944319725037,0.39985814690589905,-0.14142470061779022
1772619332679843300,0.09684326171875,0.24729105830192566,0.33911290764808655,-0.16604959964752197
1772619332689874400,0.10687451171875,0.21959790587425232,0.2489481121301651,-0.15326537191867828
1772619332699905300,0.1169052734375,0.1963300108909607,0.1847427487373352,-0.12541009485721588
1772619332709936400,0.126936279296875,0.18282485008239746,0.12811541557312012,-0.09843361377716064
1772619332719967500,0.136967529296875,0.16615036129951477,0.08938057720661163,-0.08382458239793777
1772619332729998300,0.146998291015625,0.13825109601020813,0.06758446991443634,-0.09906931966543198
1772619332740029400,0.157029541015625,0.11284919083118439,0.0735931247472763,-0.13493217527866364
1772619332750059300,0.167059326171875,0.10570845752954483,0.11585083603858948,-0.1887224316596985
1772619332760090400,0.17709033203125,0.09442245960235596,0.16045014560222626,-0.24881112575531006
1772619332770121200,0.187121337890625,0.09445442259311676,0.1873999983072281,-0.29567450284957886
1772619332780152300,0.19715234375,0.09228252619504929,0.1913684606552124,-0.3277168571949005
1772619332790183400,0.207183349609375,0.09666982293128967,0.17884309589862823,-0.32355913519859314
1772619332800214300,0.21721435546875,0.10360908508300781,0.171232670545578,-0.2833065986633301
1772619332810245400,0.227245361328125,0.12220300734043121,0.19640593230724335,-0.2140588015317917
1772619332820276200,0.237276123046875,0.14415739476680756,0.22889794409275055,-0.13838841021060944
1772619332830307300,0.247307373046875,0.15891024470329285,0.23568953573703766,-0.07533008605241776
1772619332840338400,0.25733837890625,0.17962369322776794,0.21085810661315918,-0.03148100525140762
1772619332850369500,0.26736962890625,0.19459357857704163,0.16899241507053375,0.005826418288052082
1772619332860399400,0.2773994140625,0.203729510307312,0.12715895473957062,0.03093063086271286
1772619332870430200,0.28743017578125,0.20706085860729218,0.0683467760682106,0.0427289679646492
1772619332880461600,0.297461669921875,0.20157839357852936,0.007406685501337051,0.04007939249277115
1772619332890492400,0.307492431640625,0.1908027082681656,-0.059240251779556274,0.024553164839744568
1772619332900523500,0.3175234375,0.1755947321653366,-0.11799425631761551,0.006063351407647133
1772619332910554400,0.327554443359375,0.15113413333892822,-0.14778490364551544,-0.013611284084618092
1772619332920585500,0.33758544921875,0.12893353402614594,-0.143613800406456,-0.03143080696463585
1772619332930616300,0.3476162109375,0.11370157450437546,-0.10567360371351242,-0.04251834750175476
1772619332940647400,0.3576474609375,0.0966508686542511,-0.05562660098075867,-0.0468907356262207
1772619332950678300,0.36767822265625,0.07604758441448212,-0.014263182878494263,-0.045453161001205444
1772619332960709400,0.37770947265625,0.055384561419487,0.002712030429393053,-0.044901348650455475
1772619332970739500,0.387739501953125,0.033267542719841,-0.018064886331558228,-0.04001418128609657
1772619332980770300,0.397770263671875,0.0025945494417101145,-0.05351128801703453,-0.039495740085840225
1772619332990801400,0.407801513671875,-0.036729954183101654,-0.1280912458896637,-0.05090046301484108
1772619333000832300,0.417832275390625,-0.08075308054685593,-0.2301437109708786,-0.08993812650442123
1772619333010863400,0.42786328125,-0.12306910753250122,-0.3127427101135254,-0.13320276141166687
1772619333020894200,0.437894287109375,-0.16132581233978271,-0.33723199367523193,-0.16998085379600525
1772619333030925300,0.44792529296875,-0.17678146064281464,-0.30962565541267395,-0.18869061768054962
1772619333040956200,0.4579560546875,-0.17066407203674316,-0.25452128052711487,-0.17687182128429413
1772619333050987300,0.4679873046875,-0.12344754487276077,-0.1568669080734253,-0.11094767600297928
1772619333061018400,0.478018310546875,-0.050337206572294235,-0.02180173061788082,0.013487869873642921
1772619333071049500,0.488049560546875,0.03435903787612915,0.13415244221687317,0.17128707468509674
1772619333081079300,0.498079345703125,0.11464661359786987,0.28681889176368713,0.3183412253856659
1772619333091110400,0.5081103515625,0.17381353676319122,0.4126551151275635,0.4104463756084442
1772619333101141500,0.5181416015625,0.2121397703886032,0.4995919167995453,0.4358791708946228
1772619333111172400,0.52817236328125,0.22551576793193817,0.5430440306663513,0.38191768527030945
1772619333121203500,0.538203369140625,0.22384436428546906,0.5397636890411377,0.29732730984687805
1772619333131234300,0.548234375,0.21735849976539612,0.5166359543800354,0.22103041410446167
1772619333141265400,0.558265380859375,0.2112150490283966,0.4930042028427124,0.17435531318187714
1772619333151296300,0.568296142578125,0.21357408165931702,0.4722965359687805,0.16606488823890686
1772619333161327400,0.578327392578125,0.2118176817893982,0.4322762191295624,0.16785778105258942
1772619333171358500,0.5883583984375,0.1827109307050705,0.34497833251953125,0.1637117713689804
1772619333181389300,0.598389404296875,0.1256265640258789,0.23163394629955292,0.14285807311534882
1772619333191420400,0.60842041015625,0.05156325176358223,0.11328998953104019,0.11129775643348694
1772619333201450200,0.6184501953125,-0.017326347529888153,0.014604564756155014,0.08391515165567398
1772619333211481300,0.6284814453125,-0.07360799610614777,-0.03013760596513748,0.06494253128767014
1772619333221512200,0.63851220703125,-0.10508859902620316,-0.01817437820136547,0.05835279822349548
1772619333231543300,0.648543212890625,-0.11082371324300766,0.0314544253051281,0.07640636712312698
1772619333241574400,0.658574462890625,-0.09539424628019333,0.08284080773591995,0.12254549562931061
1772619333251605200,0.668605224609375,-0.059221331030130386,0.1314096748828888,0.20512400567531586
1772619333261636400,0.67863623046875,-0.01797686703503132,0.13672706484794617,0.3109922409057617
1772619333271667200,0.688667236328125,0.02256762981414795,0.07401813566684723,0.4359549582004547
1772619333281698600,0.698698486328125,0.04221075400710106,-0.03048095852136612,0.5600048303604126
1772619333291729400,0.7087294921875,0.03584633022546768,-0.13683855533599854,0.6807195544242859
1772619333301760500,0.718760498046875,0.0015150427352637053,-0.20481374859809875,0.7813407778739929
1772619333311790600,0.72879052734375,-0.051424868404865265,-0.2146213799715042,0.8412221670150757
1772619333321821400,0.738821533203125,-0.10474473983049393,-0.1733427345752716,0.8608195781707764
1772619333331852500,0.7488525390625,-0.15992943942546844,-0.07715281844139099,0.8458907008171082
1772619333341883400,0.75888330078125,-0.22671139240264893,0.07498124986886978,0.7881186604499817
1772619333351914500,0.76891455078125,-0.3099961280822754,0.2646832764148712,0.6569212079048157
1772619333361945300,0.7789453125,-0.39210739731788635,0.4378367066383362,0.473109632730484
1772619333371976400,0.7889765625,-0.47153884172439575,0.5822727084159851,0.25537997484207153
1772619333382007300,0.79900732421875,-0.5467989444732666,0.7027996182441711,0.05503497272729874
1772619333392038400,0.809038330078125,-0.6028960347175598,0.7768427133560181,-0.10835874825716019
1772619333402069200,0.8190693359375,-0.6349693536758423,0.7920774221420288,-0.2071055769920349
1772619333412100400,0.829100341796875,-0.6333917379379272,0.7557883858680725,-0.2470252960920334
1772619333422130400,0.83913037109375,-0.602160632610321,0.6636426448822021,-0.22384262084960938
1772619333432161300,0.849161376953125,-0.5476595759391785,0.5188678503036499,-0.15463025867938995
1772619333442192100,0.859192138671875,-0.48438021540641785,0.32948631048202515,-0.04817264527082443
1772619333452223000,0.869222900390625,-0.41672074794769287,0.13245846331119537,0.08382080495357513
1772619333462254000,0.879254150390625,-0.36298760771751404,-0.047950759530067444,0.2185886800289154
1772619333472285000,0.889284912109375,-0.3250751197338104,-0.15637923777103424,0.3454291522502899
1772619333482316000,0.89931591796875,-0.29030296206474304,-0.18932294845581055,0.43845823407173157
1772619333492347000,0.909346923828125,-0.2559204697608948,-0.16588526964187622,0.4723634719848633
1772619333502378000,0.9193779296875,-0.2342831939458847,-0.10751733928918839,0.45189765095710754
1772619333512409000,0.9294091796875,-0.21477288007736206,-0.025086380541324615,0.389027863740921
1772619333522440200,0.939440185546875,-0.1903032809495926,0.05064288154244423,0.3010425269603729
1772619333532470000,0.949469970703125,-0.15810540318489075,0.10383392870426178,0.21630822122097015
1772619333542501000,0.959501220703125,-0.1258637011051178,0.12974226474761963,0.14419947564601898
1772619333552532200,0.9695322265625,-0.10094504058361053,0.11543602496385574,0.09198419749736786
1772619333562563000,0.97956298828125,-0.08507858216762543,0.06643275916576385,0.05167452245950699
1772619333572594200,0.98959423828125,-0.07224507629871368,0.013568748719990253,0.03987698629498482
1772619333582625000,0.999625,-0.05490444228053093,-0.01470143347978592,0.03000665456056595
1772619333592656100,1.00965625,-0.04328480362892151,-0.03505171090364456,0.016684724017977715
1772619333602687200,1.019687255859375,-0.035934582352638245,-0.04102170094847679,-0.006996871903538704
1772619333612718000,1.029718017578125,-0.03381044417619705,-0.029714452102780342,-0.04241984710097313
1772619333622749200,1.039749267578125,-0.042658206075429916,0.004079254809767008,-0.07946304976940155
1772619333632780000,1.049780029296875,-0.05055927112698555,0.04841023311018944,-0.11138290166854858
1772619333642810000,1.05981005859375,-0.06373108923435211,0.0858222097158432,-0.1421622484922409
1772619333652841200,1.06984130859375,-0.07556511461734772,0.12627190351486206,-0.17956875264644623
1772619333662872000,1.0798720703125,-0.087136410176754,0.1662004441022873,-0.2132352888584137
1772619333672903200,1.089903076171875,-0.09532137215137482,0.17812767624855042,-0.24471384286880493
1772619333682934000,1.09993408203125,-0.09561359137296677,0.14216169714927673,-0.254300594329834
1772619333692965000,1.109965087890625,-0.09185720235109329,0.0949276015162468,-0.24097679555416107
1772619333702996000,1.119995849609375,-0.0822572335600853,0.03739259019494057,-0.19666576385498047
1772619333713027000,1.130027099609375,-0.0661725327372551,-0.01500537060201168,-0.131769061088562
1772619333723058000,1.140057861328125,-0.0433930866420269,-0.05118044465780258,-0.06701765209436417
1772619333733089300,1.15008935546875,-0.013210415840148926,-0.08873368054628372,-0.025000695139169693
1772619333743120100,1.1601201171875,0.021643955260515213,-0.1249282956123352,-0.008489875122904778
1772619333753150000,1.17014990234375,0.058729272335767746,-0.16240376234054565,-0.012159178964793682
1772619333763181300,1.180181396484375,0.09579338878393173,-0.20308224856853485,-0.03042541816830635
1772619333773212200,1.190212158203125,0.12210515141487122,-0.24798047542572021,-0.044950030744075775
1772619333783243300,1.2002431640625,0.14485527575016022,-0.2861906588077545,-0.04800198972225189
1772619333793274000,1.210274169921875,0.17756235599517822,-0.29593780636787415,-0.03084137663245201
1772619333803305200,1.22030517578125,0.2224181741476059,-0.26229408383369446,0.0007393030682578683
1772619333813336000,1.230336181640625,0.26641732454299927,-0.19113922119140625,0.019593950361013412
1772619333823367200,1.2403671875,0.31784433126449585,-0.12741972506046295,-0.0056108031421899796
1772619333833398000,1.25039794921875,0.34990158677101135,-0.10723428428173065,-0.07699976861476898
1772619333843429000,1.26042919921875,0.35043156147003174,-0.1576271653175354,-0.19144858419895172
1772619333853460000,1.2704599609375,0.30509230494499207,-0.29296502470970154,-0.32024621963500977
1772619333863490000,1.280489990234375,0.24284566938877106,-0.4569229185581207,-0.40545788407325745
1772619333873521200,1.290521240234375,0.21129386126995087,-0.5668275952339172,-0.3828127384185791
1772619333883552000,1.300552001953125,0.2241232842206955,-0.5681735873222351,-0.2504456341266632
1772619333893583000,1.3105830078125,0.26709818840026855,-0.4578196406364441,-0.04478888586163521
1772619333903614000,1.320614013671875,0.31996265053749084,-0.3173889219760895,0.168258398771286
1772619333913645000,1.33064501953125,0.3636755049228668,-0.218118816614151,0.3261875808238983
1772619333923676000,1.340676025390625,0.3898329734802246,-0.18556548655033112,0.3926723599433899
1772619333933707000,1.35070703125,0.4047306776046753,-0.1935453861951828,0.3970697820186615
1772619333943737900,1.36073779296875,0.4313647747039795,-0.20233498513698578,0.3842065632343292
1772619333953769200,1.370769287109375,0.45343947410583496,-0.19584539532661438,0.3768370449542999
1772619333963800000,1.380800048828125,0.4668106436729431,-0.2005680352449417,0.34754258394241333
1772619333973830000,1.390829833984375,0.467937171459198,-0.2367476224899292,0.29416778683662415
1772619333983861200,1.400861328125,0.4491616487503052,-0.29378053545951843,0.21717454493045807
1772619333993892000,1.41089208984375,0.40629062056541443,-0.3530116379261017,0.12504196166992188
1772619334003923200,1.420923095703125,0.33904287219047546,-0.3984878659248352,0.028125114738941193
1772619334013954000,1.4309541015625,0.2590521574020386,-0.4156857430934906,-0.06734814494848251
1772619334023985200,1.440985107421875,0.18345047533512115,-0.3893588185310364,-0.13008803129196167
1772619334034016300,1.451016357421875,0.12199138849973679,-0.3005421459674835,-0.1560695618391037
1772619334044047000,1.461047119140625,0.09295178204774857,-0.18738336861133575,-0.15191814303398132
1772619334054078200,1.471078125,0.09841472655534744,-0.08053815364837646,-0.12854383885860443
1772619334064109000,1.481109130859375,0.12056130170822144,0.011193097569048405,-0.09783680737018585
1772619334074139100,1.49113916015625,0.15156583487987518,0.08087683469057083,-0.07287180423736572
1772619334084170000,1.501169921875,0.19225409626960754,0.13727760314941406,-0.05564161762595177
1772619334094201000,1.511201171875,0.23732303082942963,0.16312837600708008,-0.05877961963415146
1772619334104232200,1.521232177734375,0.2775050699710846,0.14245133101940155,-0.06018177419900894
1772619334114263000,1.531262939453125,0.3090403378009796,0.08903071284294128,-0.051412250846624374
1772619334124294100,1.541294189453125,0.33105790615081787,0.013114877045154572,-0.02490987442433834
1772619334134325000,1.551324951171875,0.34251776337623596,-0.06975257396697998,0.016723323613405228
1772619334144356000,1.561356201171875,0.34713587164878845,-0.1313534677028656,0.06812246143817902
1772619334154387000,1.571386962890625,0.34073787927627563,-0.18137295544147491,0.1089247539639473
1772619334164418000,1.58141796875,0.32457196712493896,-0.2103249728679657,0.12454446405172348
1772619334174449200,1.59144921875,0.30561384558677673,-0.2054840475320816,0.11788011342287064
1772619334184479000,1.60147900390625,0.2820056080818176,-0.17296908795833588,0.07399473339319229
1772619334194510000,1.611510009765625,0.2557838559150696,-0.14383836090564728,0.003055310808122158
1772619334204541200,1.621541259765625,0.22947025299072266,-0.12444443255662918,-0.07775237411260605
1772619334214572300,1.631572265625,0.20559847354888916,-0.10388829559087753,-0.1502137929201126
1772619334224603100,1.64160302734375,0.18564194440841675,-0.07306589931249619,-0.19357930123806
1772619334234634200,1.65163427734375,0.1699756234884262,-0.03181539475917816,-0.20575660467147827
1772619334244665000,1.6616650390625,0.1624930500984192,-0.01870248280465603,-0.19628986716270447
1772619334254696200,1.6716962890625,0.17039145529270172,-0.028794799000024796,-0.17872366309165955
1772619334264727000,1.68172705078125,0.18630331754684448,-0.05324941501021385,-0.1559177041053772
1772619334274758100,1.691758056640625,0.19271966814994812,-0.08302541822195053,-0.13387712836265564
1772619334284789000,1.7017890625,0.19662773609161377,-0.13283981382846832,-0.11375553160905838
1772619334294819000,1.711819091796875,0.18181335926055908,-0.15679654479026794,-0.08390096575021744
1772619334304850200,1.72185009765625,0.14941799640655518,-0.14080342650413513,-0.04742969945073128
1772619334314881000,1.731881103515625,0.10884474217891693,-0.11884273588657379,-0.011502326466143131
1772619334324912000,1.741912109375,0.05528749153017998,-0.09105391055345535,0.020975064486265182
1772619334334943000,1.75194287109375,-0.004811795894056559,-0.0826399177312851,0.04496748372912407
1772619334344974000,1.76197412109375,-0.05886633321642876,-0.1034349873661995,0.0809105783700943
1772619334355005000,1.7720048828125,-0.09816500544548035,-0.143733412027359,0.10405530780553818
1772619334365036000,1.7820361328125,-0.12929873168468475,-0.20525021851062775,0.11598367244005203
1772619334375067000,1.79206689453125,-0.15748456120491028,-0.27463090419769287,0.10397414863109589
1772619334385098000,1.802097900390625,-0.19590264558792114,-0.33703118562698364,0.06741952896118164
1772619334395129000,1.812129150390625,-0.2480665147304535,-0.3722434937953949,0.022122621536254883
1772619334405159000,1.822158935546875,-0.3139474391937256,-0.3773488700389862,-0.01806020736694336
1772619334415190000,1.83218994140625,-0.38394784927368164,-0.3323334753513336,-0.0460958369076252
1772619334425221000,1.84222119140625,-0.4557967185974121,-0.2556833028793335,-0.06622109562158585
1772619334435252200,1.852252197265625,-0.5208295583724976,-0.1541907638311386,-0.0817774161696434
1772619334445283300,1.862283447265625,-0.5663418173789978,-0.03022501990199089,-0.10446615517139435
1772619334455314400,1.872314453125,-0.5804488658905029,0.09175840765237808,-0.129799485206604
1772619334465345300,1.88234521484375,-0.5625783205032349,0.19507083296775818,-0.14523467421531677
1772619334475376400,1.89237646484375,-0.5195895433425903,0.25657573342323303,-0.14801663160324097
1772619334485407500,1.902407470703125,-0.46146276593208313,0.2767399847507477,-0.1361212134361267
1772619334495438600,1.9124384765625,-0.41071730852127075,0.2558051347732544,-0.1110568717122078
1772619334505468400,1.922468505859375,-0.3742201626300812,0.2049800604581833,-0.08039795607328415
1772619334515499500,1.93249951171875,-0.3479166626930237,0.11602090299129486,-0.05428566411137581
1772619334525530600,1.942530517578125,-0.3443794548511505,0.005102904513478279,-0.034353502094745636
1772619334535561500,1.9525615234375,-0.34860506653785706,-0.11083674430847168,-0.034600645303726196
1772619334545592600,1.962592529296875,-0.37686851620674133,-0.23433688282966614,-0.05947916582226753
1772619334555623400,1.97262353515625,-0.4328228831291199,-0.3784959316253662,-0.10837746411561966
1772619334565654500,1.982654541015625,-0.5107200741767883,-0.5596954822540283,-0.17604394257068634
1772619334575685400,1.992685302734375,-0.5738503336906433,-0.7427883744239807,-0.22369535267353058
1772619334585716500,2.002716552734375,-0.6071951985359192,-0.8472517132759094,-0.19383050501346588
1772619334595747600,2.01274755859375,-0.5839375257492065,-0.7868579030036926,-0.06482698023319244
1772619334605778400,2.0227783203125,-0.49869927763938904,-0.577373743057251,0.11857885122299194
1772619334615808500,2.03280859375,-0.37030747532844543,-0.3275929391384125,0.319410502910614
1772619334625839400,2.04283935546875,-0.24667099118232727,-0.10452578216791153,0.4837246835231781
1772619334635870500,2.052870361328125,-0.14880727231502533,0.08597225695848465,0.5770666599273682
1772619334645901600,2.062901611328125,-0.07872538268566132,0.23460978269577026,0.564242959022522
1772619334655932400,2.072932373046875,-0.025693589821457863,0.31920430064201355,0.45931386947631836
1772619334665963500,2.082963623046875,-0.01638043113052845,0.3505367934703827,0.2866452932357788
1772619334675994400,2.092994384765625,-0.0548335462808609,0.31671464443206787,0.07631601393222809
1772619334686025500,2.103025390625,-0.1252128779888153,0.23348045349121094,-0.11964782327413559
1772619334696056300,2.113056396484375,-0.21027369797229767,0.13675764203071594,-0.26443055272102356
1772619334706087700,2.123087646484375,-0.28558894991874695,0.05394870787858963,-0.33649107813835144
1772619334716118500,2.133118408203125,-0.3351525068283081,0.0024058856070041656,-0.3327232301235199
1772619334726148400,2.1431484375,-0.3491731584072113,-0.006853883154690266,-0.26988300681114197
1772619334736179700,2.1531796875,-0.3295232951641083,-0.00016482127830386162,-0.18741664290428162
1772619334746210600,2.16321044921875,-0.2905963063240051,-0.0016550850123167038,-0.09620576351881027
1772619334756241700,2.17324169921875,-0.2467489391565323,0.010331537574529648,-0.008816802874207497
1772619334766272500,2.1832724609375,-0.2135990858078003,0.03472239151597023,0.07013168931007385
1772619334776303600,2.1933037109375,-0.18117430806159973,0.05875316262245178,0.12064733356237411
1772619334786334500,2.20333447265625,-0.16311168670654297,0.07957953959703445,0.13745971024036407
1772619334796365600,2.213365478515625,-0.14883127808570862,0.09097174555063248,0.12395109981298447
1772619334806396400,2.223396484375,-0.14640000462532043,0.10029465705156326,0.07512938976287842
1772619334816427500,2.233427490234375,-0.15071725845336914,0.0923222154378891,0.01223404984921217
1772619334826458400,2.243458251953125,-0.17229540646076202,0.08367536962032318,-0.059673987329006195
1772619334836488400,2.253488525390625,-0.19735494256019592,0.0766821801662445,-0.11875861138105392
1772619334846519600,2.26351953125,-0.2280723601579666,0.05794050917029381,-0.1803482472896576
1772619334856550400,2.27355029296875,-0.2604691982269287,0.011036651208996773,-0.23748290538787842
1772619334866581500,2.28358154296875,-0.28034114837646484,-0.03736929967999458,-0.29384511709213257
1772619334876612400,2.2936123046875,-0.2787027955055237,-0.07309507578611374,-0.32855597138404846
1772619334886643500,2.3036435546875,-0.2512122392654419,-0.08365438878536224,-0.34810778498649597
1772619334896674300,2.31367431640625,-0.19746913015842438,-0.07975472509860992,-0.35026973485946655
1772619334906705400,2.323705322265625,-0.1345333456993103,-0.08717227727174759,-0.32712212204933167
1772619334916736300,2.333736328125,-0.06534948945045471,-0.10710897296667099,-0.2797679305076599
1772619334926767600,2.343767578125,0.006673543248325586,-0.12727469205856323,-0.19348745048046112
1772619334936797400,2.35379736328125,0.08463731408119202,-0.12027296423912048,-0.084540456533432
1772619334946828300,2.363828369140625,0.14979057013988495,-0.10170122981071472,0.03264876455068588
1772619334956859600,2.373859619140625,0.19336095452308655,-0.08159942179918289,0.1392311453819275
1772619334966890500,2.383890380859375,0.2205228954553604,-0.05068547651171684,0.2227810025215149
1772619334976921600,2.393921630859375,0.23218700289726257,0.007826833985745907,0.28382810950279236
1772619334986952400,2.403952392578125,0.23145247995853424,0.08344190567731857,0.3151361346244812
1772619334996983600,2.413983642578125,0.22537915408611298,0.17008225619792938,0.3167377710342407
1772619335007014400,2.424014404296875,0.22567933797836304,0.25362062454223633,0.30807337164878845
1772619335017045500,2.43404541015625,0.22400981187820435,0.325557142496109,0.2857736349105835
1772619335027076600,2.44407666015625,0.2253289520740509,0.36547768115997314,0.2557845413684845
1772619335037107500,2.454107421875,0.22556836903095245,0.3753793239593506,0.2159423530101776
1772619335047137500,2.464137451171875,0.22302164137363434,0.3593316376209259,0.1762879639863968
1772619335057168400,2.47416845703125,0.2261628359556198,0.32419469952583313,0.14641554653644562
1772619335067199500,2.484199462890625,0.23436011373996735,0.28252020478248596,0.13348646461963654
1772619335077230300,2.494230224609375,0.2334602326154709,0.23196379840373993,0.11853441596031189
1772619335087261400,2.504261474609375,0.22192300856113434,0.15886732935905457,0.10323131084442139
1772619335097292500,2.51429248046875,0.19482721388339996,0.09267871826887131,0.08762332051992416
1772619335107323400,2.524323486328125,0.16262906789779663,0.0689249187707901,0.08650799095630646
1772619335117354500,2.5343544921875,0.14333605766296387,0.08388283103704453,0.09401730448007584
1772619335127385300,2.54438525390625,0.14132162928581238,0.12994013726711273,0.11572887003421783
1772619335137416400,2.55441650390625,0.16609008610248566,0.18259163200855255,0.14129921793937683
1772619335147447600,2.564447509765625,0.2025054693222046,0.22770161926746368,0.17024704813957214
1772619335157477400,2.574477294921875,0.2562291622161865,0.30843108892440796,0.20638960599899292
1772619335167508500,2.584508544921875,0.32668057084083557,0.4247400164604187,0.2363843023777008
1772619335177539600,2.59453955078125,0.4002772867679596,0.5083997249603271,0.24200782179832458
1772619335187570700,2.60457080078125,0.4654390811920166,0.5247970819473267,0.22830337285995483
1772619335197601500,2.6146015625,0.51584792137146,0.4822653532028198,0.18540410697460175
1772619335207632600,2.624632568359375,0.5323014855384827,0.3735102117061615,0.11212986707687378
1772619335217663500,2.63466357421875,0.5078980922698975,0.20416009426116943,0.0021495698019862175
1772619335227694600,2.644694580078125,0.428987056016922,-0.029754068702459335,-0.1582881510257721
1772619335237725400,2.654725341796875,0.31731486320495605,-0.3065316081047058,-0.33973783254623413
1772619335247756500,2.664756591796875,0.22435712814331055,-0.5352181792259216,-0.4694368541240692
1772619335257787400,2.674787353515625,0.18969501554965973,-0.6217246055603027,-0.4964519739151001
1772619335267817500,2.6848173828125,0.1969679296016693,-0.5356268286705017,-0.4047658443450928
1772619335277848600,2.6948486328125,0.2777900695800781,-0.3071422576904297,-0.22019973397254944
1772619335287879400,2.70487939453125,0.4228258728981018,0.0062411390244960785,0.01333572342991829
1772619335297910500,2.71491064453125,0.5865503549575806,0.30216893553733826,0.24802732467651367
1772619335307941400,2.72494140625,0.7204716205596924,0.4733363091945648,0.42819082736968994
1772619335317972500,2.734972412109375,0.8073963522911072,0.4889003336429596,0.5198089480400085
1772619335328003300,2.74500341796875,0.8449463248252869,0.4128304421901703,0.5486825704574585
1772619335338034400,2.755034423828125,0.8519594669342041,0.2990620732307434,0.5282867550849915
1772619335348065300,2.765065185546875,0.8119128346443176,0.16166383028030396,0.46954381465911865
1772619335358096400,2.775096435546875,0.7364252805709839,0.010198940522968769,0.3770698010921478
1772619335368127500,2.78512744140625,0.6295398473739624,-0.13388970494270325,0.26886242628097534
1772619335378157300,2.7951572265625,0.4851679801940918,-0.2425759732723236,0.14314179122447968
1772619335388188400,2.8051884765625,0.34079509973526,-0.3073710799217224,0.01641661301255226
1772619335398219500,2.815219482421875,0.22733564674854279,-0.3102734088897705,-0.0959557294845581
1772619335408250600,2.825250732421875,0.14931440353393555,-0.27160412073135376,-0.18136714398860931
1772619335418281500,2.835281494140625,0.10653179883956909,-0.19794827699661255,-0.22388450801372528
1772619335428312600,2.8453125,0.10087139904499054,-0.10226326435804367,-0.22404706478118896
1772619335438343400,2.855343505859375,0.12893393635749817,0.004213106818497181,-0.17893284559249878
1772619335448374000,2.8653740234375,0.166510209441185,0.09703941643238068,-0.10562089830636978
1772619335458405000,2.875405029296875,0.19081421196460724,0.13853305578231812,-0.024159330874681473
1772619335468436000,2.88543603515625,0.20393621921539307,0.1444486528635025,0.05887511372566223
1772619335478467000,2.895467041015625,0.2016482949256897,0.14284010231494904,0.13492220640182495
1772619335488497000,2.905496826171875,0.18675364553928375,0.14529411494731903,0.19062653183937073
1772619335498528000,2.915528076171875,0.1629825383424759,0.16233088076114655,0.2144216150045395
1772619335508559000,2.92555908203125,0.14430491626262665,0.19914311170578003,0.21475890278816223
1772619335518590000,2.93558984375,0.12730808556079865,0.2584801912307739,0.18614882230758667
1772619335528621000,2.94562109375,0.11338543146848679,0.3187660276889801,0.13855400681495667
1772619335538652000,2.95565185546875,0.10437968373298645,0.36010414361953735,0.07377688586711884
1772619335548683000,2.96568310546875,0.10243277251720428,0.37340694665908813,0.007961191236972809
1772619335558713900,2.9757138671875,0.09494583308696747,0.3492771089076996,-0.05077535659074783
1772619335568745000,2.985744873046875,0.08708009123802185,0.2854817807674408,-0.09191254526376724
1772619335578776000,2.995776123046875,0.08066906780004501,0.20892812311649323,-0.11445140838623047
1772619335588806000,3.005805908203125,0.07532697916030884,0.13796302676200867,-0.11857031285762787
1772619335598837000,3.0158369140625,0.06487860530614853,0.0671280026435852,-0.11699531972408295
1772619335608868000,3.0258681640625,0.05398543179035187,0.003921946045011282,-0.11633825302124023
1772619335618899200,3.035899169921875,0.043205223977565765,-0.03806065768003464,-0.11475367099046707
1772619335628930000,3.045929931640625,0.029063552618026733,-0.05445940047502518,-0.12081898003816605
1772619335638961200,3.055961181640625,0.023550543934106827,-0.05681896209716797,-0.12736955285072327
1772619335648992000,3.065991943359375,0.009775444865226746,-0.043847858905792236,-0.1290898621082306
1772619335659023000,3.076023193359375,-0.009653646498918533,-0.030955763533711433,-0.12400402873754501
1772619335669054000,3.086053955078125,-0.02695656195282936,-0.024230455979704857,-0.10487279295921326
1772619335679085000,3.0960849609375,-0.054238781332969666,-0.03567139804363251,-0.08321037888526917
1772619335689116000,3.106115966796875,-0.07640647888183594,-0.054746273905038834,-0.0558960847556591
1772619335699146000,3.11614599609375,-0.10224127024412155,-0.08981531113386154,-0.0260859914124012
1772619335709177000,3.126177001953125,-0.13112404942512512,-0.12936778366565704,0.0035169085022062063
1772619335719208000,3.1362080078125,-0.1672476977109909,-0.16574496030807495,0.014967702329158783
1772619335729239000,3.146239013671875,-0.208370640873909,-0.19971278309822083,0.008719660341739655
1772619335739270000,3.156269775390625,-0.261284202337265,-0.22432757914066315,-0.020766593515872955
1772619335749301000,3.166301025390625,-0.3166753053665161,-0.25280362367630005,-0.07147365063428879
1772619335759331800,3.176331787109375,-0.3805254101753235,-0.2836531400680542,-0.11431378871202469
1772619335769363000,3.186363037109375,-0.4372800290584564,-0.29052916169166565,-0.13860875368118286
1772619335779393800,3.196393798828125,-0.47727563977241516,-0.2527239918708801,-0.13650670647621155
1772619335789425200,3.206425048828125,-0.49191176891326904,-0.20522034168243408,-0.09949783235788345
1772619335799456000,3.2164560546875,-0.48592737317085266,-0.17652344703674316,-0.03858574852347374
1772619335809485800,3.22648583984375,-0.4562247693538666,-0.19297315180301666,0.026225611567497253
1772619335819517000,3.236516845703125,-0.40840452909469604,-0.24423234164714813,0.09043309092521667
1772619335829548000,3.246548095703125,-0.3559994101524353,-0.28554800152778625,0.14814545214176178
1772619335839579100,3.2565791015625,-0.3100034296512604,-0.3289199769496918,0.17712198197841644
1772619335849610000,3.26660986328125,-0.28355076909065247,-0.3672391474246979,0.18218465149402618
1772619335859641000,3.27664111328125,-0.3031010329723358,-0.3903404772281647,0.16281308233737946
1772619335869672000,3.286671875,-0.3594554662704468,-0.4308808743953705,0.08601788431406021
1772619335879703000,3.296703125,-0.4440843462944031,-0.49445053935050964,-0.04180692136287689
1772619335889734100,3.306734130859375,-0.5485703349113464,-0.5991938710212708,-0.2201787680387497
1772619335899765000,3.316764892578125,-0.6417868137359619,-0.706707775592804,-0.4287588596343994
1772619335909796000,3.326796142578125,-0.6950799226760864,-0.7486892938613892,-0.6031436920166016
1772619335919826000,3.336825927734375,-0.6975857019424438,-0.6727577447891235,-0.6764131188392639
1772619335929857000,3.34685693359375,-0.6646320819854736,-0.5014126896858215,-0.6418976783752441
1772619335939888000,3.35688818359375,-0.5859146118164062,-0.28357329964637756,-0.510467529296875
1772619335949919000,3.3669189453125,-0.4668387770652771,-0.029166651889681816,-0.3004022240638733
1772619335959950000,3.3769501953125,-0.34436267614364624,0.20375128090381622,-0.04869435727596283
1772619335969981000,3.38698095703125,-0.23735041916370392,0.3474026620388031,0.20134125649929047
1772619335980012000,3.397011962890625,-0.17053064703941345,0.36657077074050903,0.4091317057609558
1772619335990043000,3.40704296875,-0.13728474080562592,0.2960016429424286,0.5607370138168335
1772619336000074000,3.417073974609375,-0.11265157163143158,0.1904008984565735,0.6497902274131775
1772619336010105000,3.42710498046875,-0.09275847673416138,0.05859038978815079,0.6933444738388062
1772619336020136200,3.43713623046875,-0.09599395096302032,-0.07541561126708984,0.696707546710968
1772619336030166000,3.447166015625,-0.12438847869634628,-0.21488699316978455,0.6586388349533081
1772619336040197000,3.457197021484375,-0.1835506111383438,-0.3364882469177246,0.5691230297088623
1772619336050228200,3.467228271484375,-0.2762640714645386,-0.414034366607666,0.42459923028945923
1772619336060259000,3.477259033203125,-0.39005693793296814,-0.4537455439567566,0.24041661620140076
1772619336070290200,3.487290283203125,-0.5141416788101196,-0.4617440104484558,0.015066295862197876
1772619336080321000,3.497321044921875,-0.611248791217804,-0.42940258979797363,-0.20813536643981934
1772619336090352000,3.50735205078125,-0.6655316352844238,-0.36258354783058167,-0.40259799361228943
1772619336100383000,3.517383056640625,-0.6798934936523438,-0.27775895595550537,-0.5409441590309143
1772619336110414000,3.5274140625,-0.6592204570770264,-0.17927280068397522,-0.6011433601379395
1772619336120445000,3.53744482421875,-0.5866740942001343,-0.07797814160585403,-0.570618212223053
1772619336130476000,3.54747607421875,-0.47312045097351074,0.0436481237411499,-0.4585827887058258
1772619336140506000,3.557506103515625,-0.3436056077480316,0.1754879206418991,-0.2818530201911926
1772619336150537000,3.567536865234375,-0.23144219815731049,0.28946027159690857,-0.0766400396823883
1772619336160568000,3.577568115234375,-0.1586550772190094,0.35403767228126526,0.12307919561862946
1772619336170599000,3.587598876953125,-0.12437605857849121,0.37195709347724915,0.28023841977119446
1772619336180630000,3.597630126953125,-0.10966209322214127,0.34829890727996826,0.367287278175354
1772619336190660900,3.607660888671875,-0.10513822734355927,0.30588406324386597,0.3918900191783905
1772619336200692000,3.61769189453125,-0.11392932385206223,0.2836250960826874,0.37865278124809265
1772619336210722800,3.627722900390625,-0.1372433304786682,0.27722975611686707,0.3261960744857788
1772619336220754000,3.63775390625,-0.16882896423339844,0.2502250373363495,0.23569121956825256
1772619336230785000,3.647784912109375,-0.20351485908031464,0.20628026127815247,0.11469783633947372
1772619336240816000,3.657816162109375,-0.23277528584003448,0.1594666838645935,-0.015135261230170727
1772619336250846000,3.667845947265625,-0.25318968296051025,0.11193835735321045,-0.13801226019859314
1772619336260877000,3.677876953125,-0.2658703029155731,0.059140656143426895,-0.236851766705513
1772619336270908200,3.687908203125,-0.26794350147247314,0.01926419325172901,-0.3025669753551483
1772619336280939000,3.69793896484375,-0.2567172050476074,0.007255733013153076,-0.33303993940353394
1772619336290970000,3.70797021484375,-0.25063252449035645,0.006686376873403788,-0.3371591567993164
1772619336301001000,3.7180009765625,-0.24361883103847504,0.014042027294635773,-0.31561604142189026
1772619336311032000,3.728031982421875,-0.2426488995552063,0.01311611756682396,-0.28415173292160034
1772619336321063200,3.738063232421875,-0.22462356090545654,0.016095928847789764,-0.23732617497444153
1772619336331094000,3.748093994140625,-0.19563084840774536,0.040556274354457855,-0.1820954829454422
1772619336341125000,3.758125,-0.1577998399734497,0.07943203300237656,-0.11569968611001968
1772619336351156000,3.768156005859375,-0.11052743345499039,0.11785772442817688,-0.046268489211797714
1772619336361186000,3.77818603515625,-0.06551921367645264,0.15480881929397583,0.027330361306667328
1772619336371217000,3.788216796875,-0.02158713899552822,0.18587511777877808,0.0956818014383316
1772619336381248000,3.798248046875,0.026943378150463104,0.19885802268981934,0.1629103720188141
1772619336391279000,3.808279052734375,0.0707164853811264,0.20150978863239288,0.2186928540468216
1772619336401310000,3.81831005859375,0.10947000235319138,0.2107994258403778,0.2622954547405243
1772619336411341000,3.828341064453125,0.14010323584079742,0.2295445054769516,0.2955971658229828
1772619336421372000,3.838371826171875,0.1636892557144165,0.2459612786769867,0.31366539001464844
1772619336431403000,3.848403076171875,0.1782752424478531,0.23426657915115356,0.3130870461463928
1772619336441434000,3.85843408203125,0.18697232007980347,0.19311220943927765,0.2893926203250885
1772619336451465200,3.86846533203125,0.19200047850608826,0.13182947039604187,0.25078344345092773
1772619336461496000,3.87849609375,0.18930348753929138,0.054396726191043854,0.18956373631954193
1772619336471526100,3.888526123046875,0.18188035488128662,-0.01083451695740223,0.13033504784107208
1772619336481557200,3.89855712890625,0.1752682626247406,-0.044136278331279755,0.08487222343683243
1772619336491588000,3.908588134765625,0.16919387876987457,-0.030826741829514503,0.05384238064289093
1772619336501619200,3.918619140625,0.17497454583644867,0.019159458577632904,0.04970888793468475
1772619336511650000,3.928650146484375,0.1889527589082718,0.0950368270277977,0.07156413793563843
1772619336521681200,3.93868115234375,0.2119041383266449,0.18228678405284882,0.1053822860121727
1772619336531712000,3.9487119140625,0.2415645569562912,0.2711940407752991,0.14443621039390564
1772619336541743000,3.9587431640625,0.28589072823524475,0.34309297800064087,0.17104065418243408
1772619336551774000,3.96877392578125,0.3272838592529297,0.3885933756828308,0.17565546929836273
1772619336561805300,3.978805419921875,0.35864898562431335,0.3785351514816284,0.13769210875034332
1772619336571836200,3.988836181640625,0.37834233045578003,0.29540151357650757,0.07832823693752289
1772619336581866000,3.998865966796875,0.3366183340549469,0.09326490759849548,-0.03581883758306503
1772619336591897300,4.0088974609375,0.22574499249458313,-0.2434147447347641,-0.2121451497077942
1772619336601928200,4.01892822265625,0.11297716945409775,-0.5570469498634338,-0.38176479935646057
1772619336611959300,4.028959228515625,0.05106937885284424,-0.6862485408782959,-0.46694517135620117
1772619336621990100,4.038990234375,0.0401938259601593,-0.6121639013290405,-0.43616780638694763
1772619336632021200,4.049021240234375,0.08374909311532974,-0.40158936381340027,-0.3107926845550537
1772619336642052000,4.059052001953125,0.17809262871742249,-0.10421521961688995,-0.11843788623809814
1772619336652083200,4.069083251953125,0.28931841254234314,0.2108558565378189,0.09614765644073486
1772619336662114000,4.079114013671875,0.3948701322078705,0.44073301553726196,0.2835572361946106
1772619336672145200,4.089145263671875,0.48561984300613403,0.5122007131576538,0.41284435987472534
1772619336682176000,4.099176025390625,0.5525818467140198,0.4820646345615387,0.5156087875366211
1772619336692206000,4.1092060546875,0.5885571837425232,0.3958660364151001,0.5830848813056946
1772619336702237200,4.1192373046875,0.6071500182151794,0.28403618931770325,0.6041606068611145
1772619336712268000,4.12926806640625,0.6182675957679749,0.14785583317279816,0.5813035368919373
1772619336722299100,4.139299072265625,0.6032924056053162,-0.011678163893520832,0.5199286341667175
1772619336732330000,4.149330078125,0.5682063102722168,-0.1954924762248993,0.4169287383556366
1772619336742361000,4.159361083984375,0.503278374671936,-0.3822905123233795,0.2843971252441406
1772619336752392000,4.169391845703125,0.40960100293159485,-0.5295773148536682,0.12882816791534424
1772619336762423000,4.179423095703125,0.28876781463623047,-0.6349546313285828,-0.05279729515314102
1772619336772454100,4.1894541015625,0.173310324549675,-0.686847448348999,-0.23596026003360748
1772619336782485200,4.1994853515625,0.07224521785974503,-0.6954403519630432,-0.3916257619857788
1772619336792516400,4.209516357421875,0.008607137948274612,-0.6335427165031433,-0.48277392983436584
1772619336802546000,4.2195458984375,-0.02234411984682083,-0.5111749768257141,-0.5127789378166199
1772619336812577300,4.229577392578125,-0.017086029052734375,-0.3288186192512512,-0.4835854470729828
1772619336822608100,4.239608154296875,0.025588463991880417,-0.07858026772737503,-0.4106433391571045
1772619336832639200,4.24963916015625,0.06428314000368118,0.16704700887203217,-0.30593782663345337
1772619336842670000,4.259670166015625,0.07969885319471359,0.33365675806999207,-0.20055975019931793
1772619336852701200,4.269701171875,0.07743848860263824,0.4093555510044098,-0.10951098799705505
1772619336862732300,4.279732177734375,0.0486166886985302,0.42803868651390076,-0.008139891549944878
1772619336872763100,4.28976318359375,0.00447133369743824,0.41378411650657654,0.09991946816444397
1772619336882794200,4.299794189453125,-0.0276637002825737,0.371648371219635,0.19002299010753632
1772619336892825000,4.3098251953125,-0.05727458745241165,0.31404608488082886,0.2377772033214569
1772619336902856200,4.319856201171875,-0.078785739839077,0.25453266501426697,0.24355439841747284
1772619336912886000,4.329885986328125,-0.08905249089002609,0.20475366711616516,0.2124561369419098
1772619336922917000,4.339917236328125,-0.09493620693683624,0.17964352667331696,0.1549297273159027
1772619336932948200,4.3499482421875,-0.10194509476423264,0.16955652832984924,0.08292005211114883
1772619336942979000,4.35997900390625,-0.1150108277797699,0.17561309039592743,-0.008340348489582539
1772619336953010200,4.37001025390625,-0.14201819896697998,0.17371678352355957,-0.10463690012693405
1772619336963041000,4.380041015625,-0.1724727749824524,0.15605123341083527,-0.20380955934524536
1772619336973072100,4.390072021484375,-0.21278074383735657,0.12241710722446442,-0.3011157214641571
1772619336983103000,4.40010302734375,-0.26571691036224365,0.08266782760620117,-0.395565003156662
1772619336993134300,4.41013427734375,-0.3171520233154297,0.016984589397907257,-0.4992065727710724
1772619337003165200,4.420165283203125,-0.36370331048965454,-0.07718851417303085,-0.592140793800354
1772619337013196300,4.4301962890625,-0.3927638828754425,-0.16844993829727173,-0.6553704142570496
1772619337023227100,4.44022705078125,-0.40336084365844727,-0.22405435144901276,-0.6657945513725281
1772619337033257200,4.45025732421875,-0.40869295597076416,-0.22505192458629608,-0.618439257144928
1772619337043288300,4.460288330078125,-0.3998613655567169,-0.19218264520168304,-0.5294651389122009
1772619337053319200,4.470319091796875,-0.3883383274078369,-0.15326178073883057,-0.4120233654975891
1772619337063350300,4.480350341796875,-0.38082581758499146,-0.12190385907888412,-0.2808437943458557
1772619337073381000,4.490381103515625,-0.3712805509567261,-0.09029099345207214,-0.1441633552312851
1772619337083412200,4.500412109375,-0.36511215567588806,-0.07478447258472443,-0.03575379401445389
1772619337093443000,4.510443115234375,-0.36313048005104065,-0.08052745461463928,0.035166431218385696
1772619337103474200,4.52047412109375,-0.36263591051101685,-0.10574758797883987,0.06226462498307228
1772619337113505000,4.530505126953125,-0.3735293447971344,-0.15267986059188843,0.045016463845968246
1772619337123536100,4.5405361328125,-0.3809976577758789,-0.19791924953460693,0.0004308862844482064
1772619337133566200,4.550566162109375,-0.3852628171443939,-0.23736463487148285,-0.049681395292282104
1772619337143597000,4.56059716796875,-0.3880189061164856,-0.284589946269989,-0.11123877018690109
1772619337153628200,4.570628173828125,-0.39285004138946533,-0.322485089302063,-0.1674327254295349
1772619337163659000,4.580658935546875,-0.3991662561893463,-0.3581850230693817,-0.20809972286224365
1772619337173690000,4.590690185546875,-0.40580061078071594,-0.3897506892681122,-0.23315836489200592
1772619337183721000,4.600720947265625,-0.3999890685081482,-0.3828238248825073,-0.23331068456172943
1772619337193752000,4.610751953125,-0.3772377669811249,-0.3372513949871063,-0.20897778868675232
1772619337203783000,4.620782958984375,-0.3393111526966095,-0.2510477900505066,-0.16063342988491058
1772619337213814300,4.630814208984375,-0.28036293387413025,-0.14595070481300354,-0.09859074652194977
1772619337223845000,4.64084521484375,-0.21991769969463348,-0.029163647443056107,-0.027761580422520638
1772619337233876200,4.650876220703125,-0.1755998581647873,0.056735701858997345,0.0033898111432790756
1772619337243906300,4.66090625,-0.15600831806659698,0.11943051218986511,-0.019112035632133484
1772619337253937200,4.670937255859375,-0.15111351013183594,0.157524973154068,-0.0964646264910698
1772619337263968300,4.68096826171875,-0.15043359994888306,0.17918740212917328,-0.2050158828496933
1772619337273999000,4.6909990234375,-0.18312066793441772,0.14881689846515656,-0.33814629912376404
1772619337284030200,4.7010302734375,-0.25819677114486694,-0.004386234097182751,-0.48486942052841187
1772619337294061000,4.71106103515625,-0.34392401576042175,-0.24827884137630463,-0.6073689460754395
1772619337304092200,4.721092041015625,-0.39411795139312744,-0.457968145608902,-0.6349513530731201
1772619337314123300,4.731123291015625,-0.40484437346458435,-0.5773916244506836,-0.5457696318626404
1772619337324154000,4.741154052734375,-0.37247127294540405,-0.5700452923774719,-0.3521791100502014
1772619337334185200,4.751185302734375,-0.2836688458919525,-0.4377824068069458,-0.07441744953393936
1772619337344216000,4.761216064453125,-0.15850800275802612,-0.21642711758613586,0.2469635158777237
1772619337354247200,4.7712470703125,-0.0330171138048172,0.009820917621254921,0.573913037776947
1772619337364277200,4.78127734375,0.0569939985871315,0.18112502992153168,0.842892050743103
1772619337374308000,4.79130810546875,0.12442556768655777,0.26692384481430054,1.0259828567504883
1772619337384339200,4.801339111328125,0.18156367540359497,0.2998996675014496,1.119316577911377
1772619337394370000,4.8113701171875,0.2122735232114792,0.30929985642433167,1.1420384645462036
1772619337404401200,4.821401123046875,0.22162628173828125,0.26542243361473083,1.1153064966201782
1772619337414432000,4.831431884765625,0.18564577400684357,0.14412757754325867,1.0261880159378052
1772619337424463000,4.841463134765625,0.11428370326757431,-0.039540521800518036,0.8854421377182007
1772619337434494200,4.851494140625,0.006249428726732731,-0.25612422823905945,0.7148907780647278
1772619337444525300,4.861525390625,-0.13502860069274902,-0.43797844648361206,0.5274668335914612
1772619337454556200,4.87155615234375,-0.2821896970272064,-0.5430764555931091,0.3442428708076477
1772619337464587300,4.881587158203125,-0.41223716735839844,-0.5776671767234802,0.17266817390918732
1772619337474617300,4.891617431640625,-0.5165559649467468,-0.5477012991905212,0.02291802130639553
1772619337484648200,4.901648193359375,-0.5794632434844971,-0.46979478001594543,-0.09713488817214966
1772619337494679300,4.91167919921875,-0.6058512330055237,-0.35422903299331665,-0.18851593136787415
1772619337504710100,4.921710205078125,-0.5889492034912109,-0.22548064589500427,-0.2490607649087906
1772619337514741200,4.9317412109375,-0.5365870594978333,-0.09202256798744202,-0.2673890292644501
1772619337524772000,4.941772216796875,-0.4522410035133362,0.037185218185186386,-0.24633409082889557
1772619337534803200,4.95180322265625,-0.3612064719200134,0.14209234714508057,-0.20479656755924225
1772619337544834000,4.961833984375,-0.2688238322734833,0.19196456670761108,-0.14019040763378143
1772619337554865200,4.971865234375,-0.19344237446784973,0.2053712159395218,-0.06566416472196579
1772619337564896000,4.98189599609375,-0.13926543295383453,0.20372776687145233,0.0009188581025227904
1772619337574926000,4.991926025390625,-0.10474472492933273,0.1941765397787094,0.04180649295449257
1772619337584957200,5.001957275390625,-0.07240276038646698,0.1786910593509674,0.05330415815114975
1772619337594988000,5.011988037109375,-0.04410673677921295,0.17506299912929535,0.03210574761033058
1772619337605019400,5.022019287109375,-0.023250991478562355,0.20097582042217255,-0.023843804374337196
1772619337615050200,5.03205029296875,-0.013425163924694061,0.23767820000648499,-0.10418792068958282
1772619337625081300,5.042081298828125,-0.006837834604084492,0.26650744676589966,-0.20002204179763794
1772619337635112200,5.0521123046875,-0.012113852426409721,0.290988564491272,-0.3036121726036072
1772619337645143300,5.062143310546875,-0.01566065102815628,0.3128986656665802,-0.3805144131183624
1772619337655174100,5.072174072265625,-0.009031618013978004,0.327920526266098,-0.42187580466270447
1772619337665205200,5.082205322265625,0.010064045898616314,0.3422973155975342,-0.4205564558506012
1772619337675236400,5.092236328125,0.04027952626347542,0.3514097034931183,-0.375007301568985
1772619337685267200,5.10226708984375,0.07568119466304779,0.3588220775127411,-0.3067038953304291
1772619337695297300,5.11229736328125,0.11445580422878265,0.37332284450531006,-0.225812166929245
1772619337705328000,5.122328125,0.14960287511348724,0.4073580503463745,-0.15935644507408142
1772619337715359200,5.132359130859375,0.17721065878868103,0.42020872235298157,-0.12860709428787231
1772619337725390000,5.14239013671875,0.18314097821712494,0.3972640037536621,-0.13519655168056488
1772619337735421200,5.152421142578125,0.17135733366012573,0.33132404088974,-0.1749134212732315
1772619337745452300,5.162452392578125,0.13963189721107483,0.25116127729415894,-0.2206886261701584
1772619337755483100,5.172483154296875,0.10111596435308456,0.19070027768611908,-0.2517906725406647
1772619337765514200,5.18251416015625,0.0650240108370781,0.14617356657981873,-0.2706104516983032
1772619337775545000,5.192545166015625,0.0408560149371624,0.11455179750919342,-0.2810460329055786
1772619337785576400,5.202576416015625,0.02202054299414158,0.10089057683944702,-0.2806234061717987
1772619337795607300,5.212607177734375,0.012313084676861763,0.09339589625597,-0.276734858751297
1772619337805637000,5.22263720703125,0.009580948390066624,0.10335665196180344,-0.2648315727710724
1772619337815668200,5.232668212890625,0.013041934929788113,0.13558678328990936,-0.24328863620758057
1772619337825699300,5.24269921875,0.029940757900476456,0.1939275860786438,-0.21219542622566223
1772619337835730400,5.25273046875,0.04803845286369324,0.25490602850914,-0.18131637573242188
1772619337845761300,5.26276123046875,0.07145217061042786,0.2952960431575775,-0.1515566110610962
1772619337855792400,5.27279248046875,0.09718368202447891,0.2859969437122345,-0.12776148319244385
1772619337865823200,5.2828232421875,0.10978017002344131,0.2407761812210083,-0.11988864839076996
1772619337875854300,5.292854248046875,0.12017399072647095,0.1777590662240982,-0.10273715853691101
1772619337885885200,5.30288525390625,0.12436340749263763,0.10167121887207031,-0.08926156163215637
1772619337895916300,5.312916259765625,0.12575359642505646,0.017937369644641876,-0.07950840890407562
1772619337905947100,5.322947021484375,0.13901108503341675,-0.04288070648908615,-0.04725167527794838
1772619337915978200,5.332978271484375,0.1604304313659668,-0.04953263700008392,0.00022250635083764791
1772619337926008300,5.34300830078125,0.19681879878044128,-0.012973827309906483,0.06666651368141174
1772619337936039200,5.3530390625,0.2372763454914093,0.07370571047067642,0.1390712708234787
1772619337946070300,5.3630703125,0.287397563457489,0.20344746112823486,0.220546692609787
1772619337956101000,5.37310107421875,0.33463460206985474,0.3497590720653534,0.2705119848251343
1772619337966132200,5.38313232421875,0.3777290880680084,0.48064491152763367,0.27188989520072937
1772619337976163000,5.3931630859375,0.4084245264530182,0.5949481129646301,0.22035034000873566
1772619337986194200,5.403194091796875,0.4193621277809143,0.6526047587394714,0.10484985262155533
1772619337996225000,5.41322509765625,0.39648789167404175,0.6228058338165283,-0.05050284042954445
1772619338006256400,5.42325634765625,0.32395216822624207,0.4921671152114868,-0.22713272273540497
1772619338016287200,5.433287353515625,0.2113851010799408,0.24917227029800415,-0.3789762854576111
1772619338026318300,5.443318359375,0.10678279399871826,-0.042410582304000854,-0.4599369168281555
1772619338036348400,5.453348388671875,0.03286050260066986,-0.293741911649704,-0.4240897595882416
1772619338046379300,5.463379150390625,-0.024769768118858337,-0.4833725690841675,-0.29466092586517334
1772619338056410400,5.473410400390625,-0.032015472650527954,-0.5747489929199219,-0.09161482006311417
1772619338066441200,5.483441162109375,0.03662217780947685,-0.5520942807197571,0.16677306592464447
1772619338076472300,5.493472412109375,0.17117939889431,-0.39135754108428955,0.44582733511924744
1772619338086503200,5.503503173828125,0.34364384412765503,-0.141249418258667,0.6926365494728088
1772619338096534300,5.5135341796875,0.5160049200057983,0.11973890662193298,0.838466227054596
1772619338106565000,5.523565185546875,0.6470223069190979,0.30874159932136536,0.8684651255607605
1772619338116596200,5.53359619140625,0.7343465685844421,0.4102431833744049,0.8038999438285828
1772619338126627300,5.54362744140625,0.7710385322570801,0.42849966883659363,0.6841477155685425
1772619338136658200,5.553658203125,0.7539385557174683,0.36783209443092346,0.5472822189331055
1772619338146688300,5.563688232421875,0.6815740466117859,0.24536210298538208,0.4042760729789734
1772619338156719000,5.573718994140625,0.563287079334259,0.07728855311870575,0.2710384428501129
1772619338166750200,5.583750244140625,0.4262717068195343,-0.10274086892604828,0.15764158964157104
1772619338176781000,5.593781005859375,0.29291221499443054,-0.22841408848762512,0.06899157911539078
1772619338186812200,5.603812255859375,0.1955140382051468,-0.2672930657863617,0.012195941992104053
1772619338196843300,5.61384326171875,0.14830425381660461,-0.2522253096103668,-0.024301212280988693
1772619338206874000,5.6238740234375,0.1337684541940689,-0.21487312018871307,-0.03704550117254257
1772619338216905200,5.6339052734375,0.1410236358642578,-0.17493727803230286,-0.0076150475069880486
1772619338226936300,5.643936279296875,0.15996377170085907,-0.13574565947055817,0.03601232171058655
1772619338236967400,5.653967529296875,0.18337112665176392,-0.10280457139015198,0.06950017809867859
1772619338246997000,5.6639970703125,0.20396721363067627,-0.06288298964500427,0.08175045251846313
1772619338257028400,5.6740283203125,0.21306897699832916,-0.03747832775115967,0.0464794747531414
1772619338267059200,5.68405908203125,0.20811869204044342,-0.04892352968454361,-0.030333546921610832
1772619338277090300,5.69409033203125,0.19520917534828186,-0.06688453257083893,-0.12572605907917023
1772619338287121400,5.704121337890625,0.16898050904273987,-0.0840856209397316,-0.21772310137748718
1772619338297152300,5.71415234375,0.13543745875358582,-0.10120142251253128,-0.28971078991889954
1772619338307183400,5.724183349609375,0.08668111264705658,-0.1223815456032753,-0.3308664858341217
1772619338317214200,5.734214111328125,0.03636813908815384,-0.14405514299869537,-0.33623141050338745
1772619338327245300,5.744245361328125,-0.016840219497680664,-0.16928726434707642,-0.322140634059906
1772619338337276200,5.754276123046875,-0.06330369412899017,-0.18003122508525848,-0.2745724022388458
1772619338347307300,5.764307373046875,-0.09576709568500519,-0.1830986589193344,-0.203145369887352
1772619338357337300,5.77433740234375,-0.10961352288722992,-0.1852298378944397,-0.13258834183216095
1772619338367368200,5.7843681640625,-0.1072039008140564,-0.17555244266986847,-0.07775118201971054
1772619338377399300,5.7943994140625,-0.09243074059486389,-0.14687573909759521,-0.033238403499126434
1772619338387430100,5.80443017578125,-0.08272378146648407,-0.12096477299928665,-0.008354625664651394
1772619338397461200,5.814461181640625,-0.08802638947963715,-0.10944113880395889,-0.0027264636009931564
1772619338407492000,5.8244921875,-0.11256609112024307,-0.12865345180034637,-0.0016862329794093966
1772619338417523200,5.834523193359375,-0.15359555184841156,-0.15981456637382507,-0.006410414353013039
1772619338427554000,5.844553955078125,-0.199569970369339,-0.18751144409179688,-0.0018023469019681215
1772619338437585200,5.854585205078125,-0.24521248042583466,-0.2092965841293335,-0.004730843938887119
1772619338447615700,5.86461572265625,-0.2775978744029999,-0.22018811106681824,0.008047536015510559
1772619338457646800,5.874646728515625,-0.3038907051086426,-0.2084771990776062,0.023470554500818253
1772619338467678000,5.884677978515625,-0.3333236873149872,-0.18899351358413696,0.03898240253329277
1772619338477707800,5.894707763671875,-0.36542919278144836,-0.17113268375396729,0.050382472574710846
1772619338487739000,5.90473876953125,-0.40069422125816345,-0.1551462560892105,0.054769497364759445
1772619338497769700,5.914769775390625,-0.4352417290210724,-0.1376880556344986,0.049045708030462265
1772619338507800800,5.92480078125,-0.4695456624031067,-0.13510745763778687,0.02847971022129059
1772619338517831700,5.934831787109375,-0.4892101287841797,-0.15375365316867828,-0.007704804185777903
1772619338527862800,5.94486279296875,-0.5040974617004395,-0.1615188866853714,-0.05001657456159592
1772619338537894000,5.954893798828125,-0.513339638710022,-0.16795219480991364,-0.08940024673938751
1772619338547924700,5.9649248046875,-0.519385814666748,-0.18708540499210358,-0.12428286671638489
1772619338557955800,5.974955810546875,-0.535821259021759,-0.27112776041030884,-0.14770644903182983
1772619338567987000,5.984987060546875,-0.5431015491485596,-0.4141320586204529,-0.15589646995067596
1772619338578018000,5.99501806640625,-0.5462684631347656,-0.5557950735092163,-0.13732655346393585
1772619338588047600,6.005047607421875,-0.5454506278038025,-0.6399403214454651,-0.0873107984662056
1772619338598079000,6.015078857421875,-0.5388997197151184,-0.6750489473342896,-0.007343881763517857
1772619338608109800,6.02510986328125,-0.5328301191329956,-0.6196261644363403,0.08852964639663696
1772619338618141000,6.035140869140625,-0.5114692449569702,-0.4080447554588318,0.18764087557792664
1772619338628172000,6.045172119140625,-0.5129416584968567,-0.12371103465557098,0.29176807403564453
1772619338638203000,6.055202880859375,-0.4901792109012604,0.006079871207475662,0.2307322919368744
1772619338648234000,6.06523388671875,-0.46004125475883484,0.11128458380699158,0.10684682428836823
1772619338658264800,6.075264892578125,-0.4488859176635742,0.1622304916381836,-0.05576140061020851
1772619338668296000,6.0852958984375,-0.46874484419822693,0.09192728996276855,-0.27760618925094604
1772619338678326800,6.095326904296875,-0.517332911491394,-0.019869662821292877,-0.5327416658401489
1772619338688358000,6.10535791015625,-0.6372407078742981,-0.11260013282299042,-0.7637453079223633
1772619338698388000,6.115387939453125,-0.765741765499115,-0.24669094383716583,-0.8924612402915955
1772619338708418800,6.125418701171875,-0.8245267868041992,-0.4258985221385956,-0.8758659958839417
