time,seconds_elapsed,z,y,x
1772785791898836700,0.053836669921875,0.9547866961866617,-0.518766757293418,-0.35583898892570287
1772785791908853000,0.06385302734375,1.3558131361752748,-0.5723549204222858,-0.2915566690314561
1772785791918869000,0.073868896484375,1.593860260272026,-0.5724369726825506,-0.22188034460656345
1772785791928884000,0.083884033203125,1.689197534045577,-0.5022098459744826,-0.15251323226131497
1772785791938900000,0.09389990234375,1.751979276651144,-0.348344431919232,-0.14111673591285942
1772785791948916000,0.103916015625,1.7127303853243587,-0.23971958735361693,-0.05615805014949292
1772785791958931000,0.113930908203125,1.6796289107114075,-0.11534032522467896,0.03420644018016755
1772785791968947000,0.123947021484375,1.7476725193679332,-0.043310185948945576,-0.046623402150161565
1772785791978962000,0.1339619140625,1.2605161944121122,-0.06694783104276285,-0.3101811073394492
1772785791988978000,0.14397802734375,0.9895563962727785,0.21321789459818974,-0.5836764153057709
1772785791998994000,0.153993896484375,1.194299216660857,0.39928587993159886,-0.6700422644533216
1772785792009009000,0.1640087890625,1.3484972602039575,0.46899533944111316,-0.7497181509755552
1772785792019025000,0.17402490234375,1.245844694980979,0.9481387826047837,-0.975571417801082
1772785792029041200,0.184041259765625,1.192695288595557,1.3785345249406993,-0.7186164718776941
1772785792039056000,0.194055908203125,0.9909247620165348,0.9073789021931589,0.2232185161414556
1772785792049072000,0.204072021484375,0.8086281667143106,0.3442013407651335,0.9105901193246245
1772785792059088000,0.214087890625,1.0028694668322802,0.28001139359576627,1.0438132524434476
1772785792069103900,0.224103759765625,0.8556260647326708,0.22995832752417772,0.7822806233409791
1772785792079118800,0.234118896484375,1.0884224286943673,0.5286350576939061,0.04692149918074719
1772785792089134800,0.244134765625,1.9295546886503696,0.7065783896900713,-0.37884547824282194
1772785792099149800,0.25414990234375,2.777978859180212,0.6207050367671996,-0.2293496393076144
1772785792109165800,0.264165771484375,3.859475288003683,0.5776297190200537,0.0446192957861349
1772785792119181800,0.274181884765625,5.113579277285933,0.3137332103304565,0.17783629142511634
1772785792129196800,0.28419677734375,6.05067600300312,0.10933788820579647,0.05461465663239359
1772785792139212800,0.294212890625,5.685879983302951,0.08832710275053977,0.3692858784653246
1772785792149229000,0.30422900390625,5.569844789415598,-0.27264702057391405,0.16690335746780036
1772785792159243500,0.314243408203125,5.380774754455685,-1.0583682128228247,-0.34596133617497976
1772785792169259800,0.324259765625,5.610222977033257,-0.9607124329738318,0.1164116990495473
1772785792179275800,0.33427587890625,4.81706768926084,0.09272826031893491,1.4992247050270437
1772785792189290800,0.344290771484375,1.9202070145905017,0.6070180913940072,2.9325778847396373
1772785792199306800,0.354306640625,0.6470978805869817,1.0329049780033528,2.89303380985856
1772785792209322800,0.36432275390625,0.04199497516453266,0.8845855441700666,2.0143194227442143
1772785792219337700,0.374337646484375,-1.2470365351140498,0.17526370099075136,0.95652659865655
1772785792229353700,0.384353759765625,-2.4260119259148833,-0.8430717035859823,0.40310353852361436
1772785792239369700,0.39436962890625,-2.531629770684242,-1.1427801148910075,0.02640131938718259
1772785792249384700,0.404384765625,-4.027234823909402,-1.1696093043014406,0.7059770627960562
1772785792259400700,0.414400634765625,-5.947364097088575,-0.6863683992236852,1.092460525104031
1772785792269416400,0.42441650390625,-8.87838013933897,-0.535093366987817,0.5419511604607105
1772785792279431700,0.434431640625,-10.021789126718044,-0.015347864322736859,-0.49937166340649125
1772785792289447700,0.44444775390625,-10.131417376172543,-0.08013528419490903,-1.1606947609618306
1772785792299463700,0.454463623046875,-8.781630660679935,-0.22803393533285707,-1.5868746391683817
1772785792309478700,0.464478759765625,-7.090151737698912,-1.335135674327612,-0.6491764404267072
1772785792319494700,0.47449462890625,-4.377894181707501,-1.3625871603548525,-0.12217917653508484
1772785792329510700,0.4845107421875,-4.14452790890336,-1.4703024157948792,0.1970495624717325
1772785792339525600,0.494525634765625,-5.858294651538134,-1.5744401050090788,-0.8860960948634892
1772785792349541600,0.504541748046875,-8.843022410231828,-0.2640966709041968,-1.7638772197157144
1772785792359557600,0.5145576171875,-10.690132624429463,1.315203039497882,-0.7988892283145338
1772785792369572600,0.524572509765625,-11.49196221704483,2.4382664273321626,0.8483655722104012
1772785792379588600,0.534588623046875,-11.784651031911373,2.9583830648645755,2.001643188783526
1772785792389604600,0.5446044921875,-11.683673706424235,2.6923285744234917,1.919441875436902
1772785792399619600,0.55461962890625,-11.051357799905539,1.5783350666210054,1.2441162637531757
1772785792409635800,0.5646357421875,-11.005095230424404,0.7693997336536645,0.6898853943686932
1772785792419651800,0.57465185546875,-10.750744037258624,0.3071843001436442,0.44142040969729424
1772785792429666800,0.584666748046875,-10.553234090733527,-0.15713807905036956,0.5422017742209136
1772785792439682800,0.594682861328125,-11.129216115611792,-0.9149249336585402,-0.01820727234184742
1772785792449698600,0.604698486328125,-12.07363865417242,-1.1759080391194672,-1.5513022443972526
1772785792459713800,0.6147138671875,-10.774873100864887,-0.47524340351782735,-1.8890262789070604
1772785792469729500,0.6247294921875,-7.525566184979676,-0.22300664522275326,-0.9163438605457543
1772785792479745500,0.63474560546875,-4.200395926597714,0.15958463195227085,0.4712694583855569
1772785792489760500,0.644760498046875,-2.9583915404319763,0.4286092242453247,1.2333503934584558
1772785792499776500,0.654776611328125,-3.540965218660235,0.9005169074691831,1.2188033971898258
1772785792509792800,0.664792724609375,-3.901184431964159,1.4946058130547404,1.0208373774603008
1772785792519807500,0.674807373046875,-3.4169027856618164,1.8511970451198516,0.5666112622037529
1772785792529823700,0.68482373046875,-1.5055121147334576,1.9544006683543322,-0.20047069602683185
1772785792539839700,0.69483984375,2.2818752576589585,1.7790606141917407,0.09448591764122247
1772785792549854700,0.704854736328125,5.64376927280426,1.7744969595380127,0.7122557046741247
1772785792559870700,0.71487060546875,7.903945324352383,1.4094671310819684,-0.08985285101309418
1772785792569886700,0.72488671875,8.840677892932295,1.0759770808801055,-1.075984241273254
1772785792579901700,0.734901611328125,9.022689826074242,1.7261078994221983,-2.580573249812424
1772785792589917700,0.744917724609375,9.68415817731917,3.3805402634263038,-3.689278295817971
1772785792599933700,0.75493359375,11.061029299092292,3.2660166431456803,-4.598889048716425
1772785792609948700,0.76494873046875,13.673802398502826,2.2097700986519455,-5.418903117319942
1772785792619964700,0.774964599609375,15.484115790700912,1.6600870287649332,-5.409015929555893
1772785792629981000,0.78498095703125,16.633977899742124,0.7738564208015799,-4.733455924594402
1772785792639995600,0.79499560546875,18.246330094516278,0.006494111259654164,-3.426715739145875
1772785792650012000,0.805011962890625,18.736945035493374,-0.4756581948637962,-2.5623478572919964
1772785792660027600,0.815027587890625,18.063626087456942,-0.38154096440449353,-1.7941783960856497
1772785792670043000,0.82504296875,14.568167651474475,-0.34893560274541374,-0.886252308338508
1772785792680058600,0.83505859375,9.067055622023343,0.2836799443069845,-0.4474131473060697
1772785792690074600,0.84507470703125,7.865679014322161,2.604682147413492,-1.9135759060129522
1772785792700089600,0.855089599609375,7.376519532850384,1.9493240957424043,-1.3092811021029949
1772785792710105600,0.865105712890625,8.871261831766367,0.9229940391499548,-0.17313560292087493
1772785792720121600,0.87512158203125,10.282087245589494,0.1368978395761922,0.02421078707296401
1772785792730136600,0.885136474609375,11.101323900079727,-0.5701426512002945,-0.12763382521178573
1772785792740152600,0.895152587890625,10.650706622970104,-1.018152814551443,-0.5497078390020876
1772785792750168800,0.9051689453125,9.31333515241444,-1.6842082013256847,-1.4531627726845442
1772785792760183600,0.91518359375,8.3237255646497,-2.2054805847644805,-2.2921270409516987
1772785792770199800,0.92519970703125,8.126115080359577,-2.1369489003300663,-2.78279356598556
1772785792780215800,0.9352158203125,8.296856846946477,-1.8942802539125083,-2.7682188049271703
1772785792790230800,0.945230712890625,8.258296522405743,-1.5750757725641131,-1.867330726058036
1772785792800246800,0.955246826171875,8.620305541735886,-0.35821393789611755,-0.0919177659199573
1772785792810262800,0.9652626953125,9.070627050769328,0.5316095799926668,1.3748502834700047
1772785792820277800,0.97527783203125,9.258602276229858,0.9417639138106256,2.5043644548788664
1772785792830293800,0.985293701171875,8.459976448091863,1.4889189995899796,3.2646476928800343
1772785792840308700,0.995308837890625,6.701931003269553,1.6036771592788397,3.116746119132638
1772785792850324700,1.00532470703125,4.92618857371509,1.296485041154921,2.0881363541051745
1772785792860340500,1.015340576171875,3.3590205055356024,0.6619084962278604,1.3920643069908023
1772785792870355700,1.025355712890625,0.9435428331166505,-0.5529116765446961,1.4580265793286262
1772785792880371500,1.035371337890625,-2.3878233572959897,-1.163562133091688,2.937544567236304
1772785792890387700,1.0453876953125,-6.566150075426697,-0.15798611071445046,5.32850797612369
1772785792900402700,1.055402587890625,-10.917440327847004,2.340775628786534,5.543534290117025
1772785792910418700,1.065418701171875,-15.430065051561593,5.36476411537528,3.864062908054888
1772785792920434700,1.0754345703125,-18.784424579548833,8.127962754052877,3.0140204886734483
1772785792930449700,1.08544970703125,-23.138483712160586,6.588612667125463,1.9111638764351606
1772785792940465700,1.095465576171875,-30.764128227961063,5.484266108590364,-1.633719100190699
1772785792950481700,1.105481689453125,-35.06298511331081,1.2096202660419046,-9.85032781368494
1772785792960496600,1.11549658203125,-32.15905698447227,-1.1738079250350595,-9.440992979556322
1772785792970512600,1.1255126953125,-29.486681357014177,1.5396500927872956,-3.9705893921017643
1772785792980528600,1.135528564453125,-25.48202135300636,2.4498686023205516,-1.1617441238842905
1772785792990543600,1.145543701171875,-18.202414964944122,0.30515739742591974,1.7263257799565792
1772785793000559900,1.155559814453125,-14.343421322977543,-0.11121128086224198,3.413358244922757
1772785793010576000,1.165575927734375,-12.956965795779228,-0.2133234555982053,2.7168691414400934
1772785793020590800,1.1755908203125,-11.59291382356882,-0.4232898558534682,0.2574254495119676
1772785793030606800,1.18560693359375,-11.768906350290775,-0.5407654578074813,-1.7493020202659069
1772785793040622600,1.19562255859375,-11.16439264293313,-0.5747520446918905,-1.145926523157954
1772785793050637800,1.205637939453125,-11.704099239337443,-0.4520755130939185,-1.011084921991825
1772785793060653600,1.215653564453125,-11.291395221036671,-0.7128421262599527,-3.5456033998548984
1772785793070669600,1.225669677734375,-7.789240502285957,-0.5655876182444394,-5.580182643556594
1772785793080684500,1.2356845703125,-5.072670928314328,-0.8720202963031828,-4.022014458912611
1772785793090700500,1.245700439453125,0.8220546345204115,1.394571029114723,-1.2122400931514798
1772785793100716500,1.255716552734375,7.554389543882012,2.6822067011207342,1.255269672060758
1772785793110731500,1.2657314453125,11.96473988803625,2.861960041680932,2.84998055781275
1772785793120747800,1.275747802734375,13.568021472126246,3.121662240485847,4.221771892103552
1772785793130763800,1.285763671875,12.849029152673483,3.4972415200069547,3.7882144708663223
1772785793140778800,1.29577880859375,12.358693613159655,3.8390702133566137,0.4589934757888317
1772785793150794800,1.305794677734375,13.470475290131569,2.6075974503383037,-1.3898945617362857
1772785793160810500,1.315810546875,15.371824459517,1.1029913445338606,-1.9314424020931125
1772785793170825500,1.325825439453125,16.810282561153173,0.14137872045044786,-2.3997318217545747
1772785793180841500,1.335841552734375,16.754889759755134,-0.8646752673026173,-3.1836852736786008
1772785793190857700,1.345857666015625,16.632804179787634,-1.8119880474120378,-4.094808769227564
1772785793200872700,1.355872802734375,16.760781740403175,-1.997567025385797,-4.651002682313322
1772785793210888700,1.365888671875,15.954377679479121,-1.2844994198068975,-4.620525710985064
1772785793220904700,1.37590478515625,13.834125062406063,-0.6838372733108699,-3.8634053209289907
1772785793230919700,1.385919677734375,11.403079818499087,-0.47343686555251474,-2.88180689792335
1772785793240935700,1.395935791015625,9.612544308960437,-0.21053788000028578,-2.5213234807252882
1772785793250951400,1.405951416015625,8.421631227606534,-0.3631250908132642,-2.242655300165713
1772785793260966700,1.415966552734375,7.629141125744581,-0.28359979174286126,-1.539051396241784
1772785793270982400,1.425982421875,7.134757187622785,-0.18240717953722924,-0.8551233759075403
1772785793280998400,1.435998291015625,6.933872796228528,-0.20686295434720814,-0.37218291508108375
1772785793291013400,1.446013427734375,6.900655001759529,-0.06210987122599035,0.11849387561846524
1772785793301029400,1.456029296875,7.075778928953409,0.04517647301116958,0.7278200612917543
1772785793311045600,1.466045654296875,6.9099401319772005,0.023990002195443956,1.5280232217490672
1772785793321060600,1.476060546875,6.7704492437005035,0.4841485945072025,1.7886890048891304
1772785793331076600,1.48607666015625,6.858060891658067,1.0984200910955666,1.373424926842004
1772785793341091600,1.496091552734375,7.274971129477024,1.4003662713900207,1.2498932397194207
1772785793351107600,1.506107666015625,7.70486067585647,1.7348888795100152,1.2818896756999194
1772785793361123600,1.51612353515625,8.466581545445322,2.10870597166419,1.3885153823375702
1772785793371138600,1.526138671875,9.521517884123325,2.3545940185196694,1.7254688708662986
1772785793381154600,1.536154541015625,9.720224346956611,2.4764953279614446,1.8247594123102724
1772785793391170600,1.546170654296875,9.675022684705256,2.5934967365324497,1.1293621226523072
1772785793401185500,1.556185546875,9.853644390887021,2.4255253114417195,0.5374256093276665
1772785793411201500,1.566201416015625,9.74211995242238,2.1654311907097696,0.07961217363625764
1772785793421217800,1.5762177734375,8.96961640753448,2.3167129084147513,-0.7557908950179815
1772785793431232500,1.586232421875,6.406057128626108,2.888808008857071,-2.257119148195535
1772785793441248800,1.596248779296875,2.813376920297742,3.3109622848093507,-3.8485266084879632
1772785793451264500,1.606264404296875,-1.1702899800419806,2.4691513949394226,-4.540848947679996
1772785793461279700,1.61627978515625,-2.1672101830810306,1.3172636252894996,-4.488491276194155
1772785793471295500,1.62629541015625,-0.6402203960329294,2.3192457878932355,-6.027036768740415
1772785793481311500,1.6363115234375,-6.963325685206056,5.248488098469377,-12.368178065341711
1772785793491326500,1.646326416015625,-17.935973521012066,-0.5542381028428673,-10.200541765803099
1772785793501342500,1.656342529296875,-29.750826798963544,-2.476076810288429,-1.5344244670934974
1772785793511358500,1.6663583984375,-40.433544178700444,3.837935656368732,4.64436894338727
1772785793521373400,1.67637353515625,-41.73770603809356,8.234682422584294,9.175043703055382
1772785793531389400,1.686389404296875,-42.875456853580474,13.773451690256595,14.712757324194907
1772785793541405700,1.69640576171875,-36.66456573870182,17.39673571116328,17.28507917075157
1772785793551420400,1.70642041015625,-27.190162656974792,14.17173321545124,15.541678337353467
1772785793561436700,1.716436767578125,-22.726426175069808,8.893927252560854,7.781541179955005
1772785793571452700,1.72645263671875,-21.777812614560126,4.489522665068507,-2.605280697828531
1772785793581467600,1.736467529296875,-22.306807262814043,0.24824323167949913,-12.693293816560507
1772785793591483600,1.746483642578125,-22.093417025589943,-2.751948638127744,-14.045760564917325
1772785793601499600,1.756499755859375,-19.888958185088633,-2.355429446430504,-7.818432694500684
1772785793611514600,1.7665146484375,-14.906121841478347,-2.811087640316784,-4.719596326068044
1772785793621530600,1.776530517578125,-6.8901447136610745,-4.326695324867964,-2.2259578478649256
1772785793631546600,1.786546630859375,0.7439549112737178,-3.400460184904933,1.8371935080781578
1772785793641561600,1.7965615234375,4.347192753973603,-0.7863138974450529,4.952772044736147
1772785793651577600,1.80657763671875,4.549990285512805,1.0330952398784459,7.494096695482731
1772785793661593600,1.816593505859375,3.7151866440564394,1.0590326680809259,7.999143481916189
1772785793671608600,1.826608642578125,4.442748054412007,0.43851036746948957,6.096044253993034
1772785793681624600,1.83662451171875,5.65477289737761,0.7391266143344343,4.139197069269419
1772785793691640600,1.846640625,7.54167385469377,1.7026318928971886,2.4714877289325
1772785793701655600,1.856655517578125,10.586848775565624,2.454933776755631,1.10350543153584
1772785793711671600,1.866671630859375,13.037092056417464,3.3444916294455527,-0.8245321305498481
1772785793721686500,1.8766865234375,14.052299026775358,4.585874961103499,-2.072546863046288
1772785793731702500,1.88670263671875,16.008918247961997,5.947804242071509,-3.950270826694369
1772785793741718500,1.896718505859375,17.659449074482918,4.896544546079635,-5.578226248791814
1772785793751733500,1.9067333984375,18.711284524536133,3.1214059276372192,-6.047789633911847
1772785793761749500,1.91674951171875,19.304609313881397,1.3499497970998287,-6.213895557391643
1772785793771765500,1.926765625,19.13607996264696,-0.0014524638306349514,-6.5793117548167706
1772785793781780500,1.936780517578125,16.748975567275284,0.6244257377907634,-6.986725265493988
1772785793791796500,1.94679638671875,11.215127973914147,2.1147236245185135,-5.9378457426369184
1772785793801812700,1.956812744140625,10.374998168998957,4.073682102307677,-6.491306139105558
1772785793811827700,1.96682763671875,9.964481431609391,3.653679451431334,-5.946207912790775
1772785793821843700,1.97684375,10.078677135109901,2.5467095586553214,-4.858531041766703
1772785793831859700,1.986859619140625,9.653106036451458,1.7616303175717591,-4.3254958859503265
1772785793841874700,1.996874755859375,8.789386097112297,0.8139147288151085,-4.389249103936553
1772785793851890700,2.006890625,7.746494416493177,0.18898531581852585,-4.409418031740189
1772785793861906400,2.016906494140625,6.989910325270891,-0.027419446921162306,-4.082048071853817
1772785793871921700,2.026921630859375,6.7042743515253065,0.15185195534098891,-3.478355325490236
1772785793881937400,2.0369375,6.526451686766744,0.3688519074948504,-2.6995278382778167
1772785793891953400,2.046953369140625,6.802595025023818,0.5406601342694833,-1.9433228095009922
1772785793901968400,2.056968505859375,7.160448678240179,0.5037244152558967,-1.4940470101282
1772785793911984400,2.066984375,7.660861375132202,0.6961912895798683,-0.9911952495209873
1772785793922000600,2.077000732421875,7.900700058820843,0.9489137125000358,-0.3057837126307189
1772785793932015600,2.087015625,8.032610867232084,1.2708841514304279,0.4245931935369968
1772785793942031600,2.097031494140625,8.074051131123303,1.5070863783128559,0.9998086179569363
1772785793952047600,2.107047607421875,8.059338130638002,1.3791327830947935,1.2602446839943526
1772785793962062600,2.1170625,8.324185583376885,0.9918602893009781,1.3216760349042713
1772785793972078600,2.12707861328125,8.264390747627615,0.412582145486772,1.6760300094366072
1772785793982094600,2.137094482421875,7.739256866455078,-0.15147112106354907,2.5927023712843655
1772785793992109600,2.147109619140625,6.936808849680423,-0.3114193073648959,3.3948090272754428
1772785794002125600,2.15712548828125,5.9547770036935805,0.19880833403887227,2.8673358895003793
1772785794012141600,2.1671416015625,5.284361960405111,1.040459923427552,0.6842386937186121
1772785794022156500,2.177156494140625,3.999980321758985,1.413353470996022,-2.003355837920308
1772785794032172800,2.1871728515625,1.6403057851046323,1.4157012031659484,-4.594266065090895
1772785794042188500,2.1971884765625,-4.655785240414739,1.649948350457847,-6.882894888663292
1772785794052203800,2.207203857421875,-19.47980104561448,1.3518730202473699,-10.711284133529663
1772785794062219500,2.217219482421875,-28.85399252552986,-2.373549625010788,-10.65722053490877
1772785794072235500,2.227235595703125,-32.45909908471107,-4.867186641909182,-4.606727487257123
1772785794082250500,2.23725048828125,-32.20839998431205,-2.8665321719020604,4.88149456872493
1772785794092266500,2.2472666015625,-23.86481762654781,0.3851430805496871,11.405680940908193
1772785794102282500,2.257282470703125,-17.85510257948637,3.151369104224443,15.265780498290061
1772785794112297500,2.26729736328125,-13.63026253198385,4.960442725494504,16.078915913295745
1772785794122313500,2.2773134765625,-11.548504188477992,2.495679920902848,9.163556094357372
1772785794132329500,2.28732958984375,-19.63786160980463,-0.624404841133207,-1.8188365981325507
1772785794142344400,2.297344482421875,-30.774824978542327,-2.678572144010663,-10.457848301643132
1772785794152360700,2.307360595703125,-28.51401822787523,-4.322980688259006,-7.63641550066173
1772785794162376200,2.317376220703125,-24.88962244633436,-3.367831880761683,0.12276917831748724
1772785794172391200,2.32739111328125,-22.621263672852514,-1.1365841097950935,1.8467711915016174
1772785794182407200,2.3374072265625,-18.60291299714446,-2.5448002179026603,2.2208191698022186
1772785794192423200,2.347423095703125,-14.470494043707847,-2.4371039594240487,2.41638514265269
1772785794202438100,2.357438232421875,-10.663126544082164,-1.377155783933401,2.6435987380459904
1772785794212454100,2.3674541015625,-7.530026086997985,0.056599400708824396,2.4648601274862885
1772785794222469000,2.37746923828125,-4.324667033910751,1.8017296882480383,3.471266244012117
1772785794232485400,2.3874853515625,-0.8568892165362835,3.0518069062322377,3.7535569989830253
1772785794242501400,2.39750146484375,3.166130620026588,3.624549510797858,2.5247517016083
1772785794252516400,2.407516357421875,6.460941395980119,2.461560209158063,0.4442082868501544
1772785794262532400,2.417532470703125,9.46113911100626,1.05426457689628,-2.0411166826464235
1772785794272548000,2.427548095703125,12.25918811379075,0.23480828830599784,-3.736055829083919
1772785794282563300,2.437563232421875,13.379103997379541,0.11421236237436533,-5.194904976841807
1772785794292579000,2.4475791015625,13.181352058792113,1.2668784229204058,-7.461886616751551
1772785794302595000,2.457594970703125,12.853075213193893,3.6275583372250195,-8.634959505510329
1772785794312610000,2.467610107421875,13.534690864932536,5.781906992906332,-8.243504026943445
1772785794322626000,2.4776259765625,14.285072009861468,6.210225344446301,-7.119960600507259
1772785794332642000,2.48764208984375,15.294383492439984,5.71950694309473,-4.883744685739279
1772785794342657000,2.497656982421875,15.89805665732026,4.993205761933327,-2.41032423517853
1772785794352673300,2.50767333984375,14.519081841266154,4.341899908262491,-1.0721987313851713
1772785794362689300,2.517689208984375,11.862056927675008,3.4605841064780947,-1.3989672182470558
1772785794372704300,2.527704345703125,10.19587377399206,3.3131501502424476,-1.5583663375645875
1772785794382720300,2.53772021484375,9.213654881000519,3.248167098200321,-1.1454705960839986
1772785794392736300,2.547736328125,9.053847765403985,3.4353999808609483,-0.2141211818471551
1772785794402751200,2.557751220703125,9.339760802525282,3.7401767084062096,0.7950123138159513
1772785794412767200,2.567767333984375,9.627211132216454,3.7464404449760913,1.0531628992646933
1772785794422783200,2.577783203125,9.779918644940853,3.6623558021008966,0.5417173517048358
1772785794432798200,2.587798095703125,9.86476433531642,3.189759332895279,-0.059714463989436625
1772785794442814200,2.597814208984375,10.13181017488241,2.4322855993568897,-0.5833491926454007
1772785794452830000,2.607829833984375,10.214309594392775,1.9109101939350366,-0.8135119932331144
1772785794462845200,2.61784521484375,9.761415020000934,1.630722987114638,-0.6599849808193743
1772785794472861200,2.627861083984375,8.980069412487746,1.6133688244707882,-0.7372697344213723
1772785794482877200,2.637877197265625,7.643109445342421,1.6788002048023043,-2.002656165218353
1772785794492892200,2.64789208984375,7.007364733418822,1.8835025470495224,-3.7770337361603974
1772785794502908200,2.657908203125,7.406790167951583,1.6850246322751044,-4.573492157131433
1772785794512924200,2.667924072265625,8.499549749067425,1.2245451557122171,-3.9877638142645355
1772785794522939100,2.677939208984375,9.257060307484865,1.0152159573819488,-2.4019604575894773
1772785794532955100,2.687955078125,9.678655488249658,0.9508564440656453,-0.7983968416877091
1772785794542971100,2.69797119140625,9.301069545081257,0.7887482119198888,-0.042402971443533895
1772785794552986000,2.707986083984375,8.102958076655865,0.6434008526999503,-0.4834796822696924
1772785794563002000,2.718002197265625,6.362593834474683,0.45724349031634626,-1.3268420393653213
1772785794573018000,2.72801806640625,5.236828055813908,-0.05506755149904638,-2.655184838682413
1772785794583033000,2.738033203125,5.563706140530109,-0.5432522696545348,-3.515338609972596
1772785794593049300,2.74804931640625,5.189793332916498,-0.2446226300295442,-3.9458068330228326
1772785794603065300,2.7580654296875,2.9004548997700215,1.7435954791873693,-5.972640577164292
1772785794613080300,2.768080322265625,-2.5588638145685194,2.7280200655296443,-7.632174794352054
1772785794623096300,2.778096435546875,-9.265435921642183,2.2739111469119786,-5.178750545376539
1772785794633112300,2.7881123046875,-14.53147370532751,2.585384741747379,-0.16154402239173649
1772785794643127300,2.798127197265625,-16.0873914806962,2.32235193721503,2.27028155823797
1772785794653143000,2.80814306640625,-17.428403938102722,1.4497360131062567,3.4206419721901415
1772785794663159000,2.818158935546875,-22.572996193289754,-3.1514567825078963,10.522895066571236
1772785794673174000,2.828174072265625,-24.456356116998194,0.1696403812162578,17.003659937918187
1772785794683190000,2.83818994140625,-23.569136059606073,1.5765050747148692,13.801741380673645
1772785794693206000,2.8482060546875,-20.601614287257192,2.7436948967844246,13.131069147753715
1772785794703221000,2.858220947265625,-17.016173382532596,5.3321232440114015,15.301097310864925
1772785794713237200,2.8682373046875,-15.304323871695994,5.835526354891061,16.26708520002365
1772785794723253200,2.878253173828125,-18.418008849692345,3.9730879309192297,15.446661966097354
1772785794733268200,2.888268310546875,-26.3040461769104,2.6293703062072393,9.231837018901109
1772785794743284200,2.8982841796875,-34.23533485074043,0.7474978445775806,-0.9095978934168815
1772785794753300200,2.90830029296875,-34.4696065479517,-1.4490122288763523,-5.100449746599793
1772785794763315200,2.918315185546875,-27.172358120214938,-0.9699825117528438,-3.6481849456682798
1772785794773331200,2.928331298828125,-19.720580809545517,0.06372355350032448,-1.1308297840520738
1772785794783346200,2.93834619140625,-13.627173918318748,0.6047304188482463,1.0120201570153236
1772785794793362200,2.948362060546875,-9.171376412719487,1.1888916585288942,4.370361155854165
1772785794803378200,2.958378173828125,-6.934383083838224,3.054678954537213,5.917154836785793
1772785794813393200,2.96839306640625,-3.9462282733052967,4.357947372221947,5.37907028862536
1772785794823409200,2.9784091796875,0.6601128449827433,4.2356130781903865,4.631804060846567
1772785794833425400,2.98842529296875,5.178131536695361,4.078675965072215,2.7525562486320734
1772785794843440400,2.9984404296875,9.326512029373646,3.314999577501416,1.2165680393531917
1772785794853456400,3.008456298828125,12.42597442075014,3.139571698924899,1.3302543320268392
1772785794863472000,3.01847216796875,13.680242660683392,4.089535504999756,0.27332477370500563
1772785794873487400,3.0284873046875,14.368373393404482,5.616598941805958,-2.0354969430685044
1772785794883503000,3.038503173828125,15.241990457379817,6.458620844078063,-3.754130122695863
1772785794893519000,3.04851904296875,15.857094532334804,6.619051060009002,-5.16686721535921
1772785794903534000,3.0585341796875,15.81961381972432,4.976617615225911,-6.325224765545129
1772785794913550000,3.068550048828125,15.176404763269424,3.879992006331682,-7.357154907166957
1772785794923566000,3.078566162109375,15.486343988144396,3.8323067105710504,-8.346419627016783
1772785794933581000,3.0885810546875,15.471279690003394,3.3496731237366792,-9.080801238781213
1772785794943597000,3.09859716796875,14.148852690601348,3.5324767917782065,-10.13915995312333
1772785794953613300,3.10861328125,13.625358393329382,3.836545371054113,-10.660976672571897
1772785794963628300,3.118628173828125,12.371457233142852,4.061550058226287,-9.713200731930137
1772785794973644300,3.128644287109375,11.632301246583461,4.601505953216552,-8.128785176351666
1772785794983660300,3.138660400390625,10.811377661919593,4.495284881857037,-6.354605758330226
1772785794993675300,3.14867529296875,9.74128174803257,4.0788551210314035,-4.7369557494089
1772785795003691300,3.158691162109375,9.14267229628265,3.888304492124915,-3.359766939988732
1772785795013707300,3.168707275390625,8.121531259700655,3.6193577873736618,-2.362427634754777
1772785795023722200,3.17872216796875,6.447001133432984,2.6188234854906796,-2.483719726257026
1772785795033738200,3.18873828125,4.841915130269527,1.3085850826628505,-3.284370630481839
1772785795043754000,3.19875390625,3.1028654778182503,0.49329913855977353,-4.153454142680764
1772785795053769200,3.208769287109375,2.9234558361291882,-0.17435082392953336,-4.612664183829724
1772785795063785000,3.218784912109375,3.689806703606248,-0.6899969649843871,-4.472090468752384
1772785795073801200,3.22880126953125,5.039271347537636,-0.7643881891019642,-3.6390731261909006
1772785795083816200,3.238816162109375,6.5519000162780285,-0.3179656602684408,-2.639107856367528
1772785795093832200,3.248832275390625,8.069353913217782,0.4618680813770741,-1.9650833904102443
1772785795103848200,3.25884814453125,9.35673531820178,0.9653771368492394,-1.7381269846484064
1772785795113863200,3.26886328125,10.230728814274071,1.173181902091205,-1.9287027479961514
1772785795123879200,3.278879150390625,10.996644212943314,1.2633492258809507,-2.1964707643568513
1772785795133895200,3.288895263671875,10.233516983687878,1.272245502911508,-2.584908940929174
1772785795143910100,3.29891015625,10.307427438551187,1.5730886904001236,-2.4589663932725787
1772785795153926100,3.308926025390625,11.244604243767261,1.585679438034445,-1.97395964756608
1772785795163942700,3.318942626953125,11.036381180047988,1.5142676681190728,-1.4016599644623695
1772785795173957600,3.32895751953125,10.84789742054343,1.2800602683156728,-1.4064860694445669
1772785795183973600,3.3389736328125,9.387975090596079,0.23760456796102225,-1.6335972273766994
1772785795193989600,3.34898974609375,7.296859720680117,-1.2230526521321385,-1.0743960952989757
1772785795204004600,3.359004638671875,3.970193086260557,-1.4269270921878516,-0.022500001099705694
1772785795214020600,3.3690205078125,-0.2639104641497135,0.45962859535459427,0.7745271596699953
1772785795224036400,3.379036376953125,-6.081612993058562,5.074068520152569,-1.8663081050120294
1772785795234051600,3.389051513671875,-12.207699918615818,4.755362343715131,-1.0995765676543117
1772785795244067300,3.3990673828125,-25.131144553065297,3.2727018199980256,5.9138441048026085
1772785795254083300,3.409083251953125,-30.73406276004314,5.7672600433945655,11.75410859413147
1772785795264098300,3.419098388671875,-34.58186514590978,6.5428855196952815,12.428559176546335
1772785795274114300,3.4291142578125,-35.98332418097257,5.107336583504081,11.796429147988556
1772785795284130600,3.439130615234375,-30.34233723236322,4.97570634559989,13.201155660414695
1772785795294145500,3.4491455078125,-25.674995409667492,5.556701814725995,10.470233151441812
1772785795304161500,3.45916162109375,-20.859748506093023,2.2809208795435727,7.104533314272761
1772785795314177500,3.469177490234375,-17.859098371124265,-0.2894632769487798,5.394868161737919
1772785795324192500,3.479192626953125,-18.993663542312383,-1.2028984104409812,3.001580109295249
1772785795334208500,3.48920849609375,-20.872301698195933,-1.2241519186109304,1.341118548129499
1772785795344224500,3.499224609375,-21.428747832477093,-0.5178446009472012,0.8236156002268195
1772785795354239500,3.509239501953125,-19.00448304249048,-0.26036519275829195,0.11805880866944789
1772785795364255500,3.51925537109375,-16.10993999711275,0.2562982355803251,-0.22147212913185357
1772785795374271500,3.529271484375,-13.219285191345215,1.1487807435452937,0.22103519901931284
1772785795384286500,3.539286376953125,-9.225016817492246,2.5983456378683445,1.7340797550842164
1772785795394302500,3.549302490234375,-5.848236783382296,3.95925843527019,3.91445220207721
1772785795404318500,3.559318359375,-3.221799315756559,4.213687369847298,6.064574764496087
1772785795414333700,3.569333740234375,0.2742074017584324,3.6435008795052766,6.697359457570314
1772785795424349400,3.579349365234375,3.0455297256588936,2.025972743397951,5.384511602896452
1772785795434365400,3.589365478515625,4.956142397952079,0.33168957665115595,2.0780144808024166
1772785795444380400,3.59938037109375,6.736757986500859,-1.0555026673238723,-0.35227994473725555
1772785795454396400,3.609396484375,8.968396510350704,-0.7050559293631464,-1.2352435137286781
1772785795464412400,3.619412353515625,11.215611958038807,0.036487956979777664,-2.0266084109529854
1772785795474427400,3.629427490234375,13.4741460875988,0.7018678008463233,-3.411651733265817
1772785795484443400,3.639443359375,15.049036274462937,1.4423967562593518,-4.840083238667249
1772785795494459400,3.64945947265625,15.149643013072012,1.628778428918123,-5.918169566786289
1772785795504474400,3.659474365234375,14.246530974543093,1.5923784972816706,-6.556788372841477
1772785795514490400,3.669490478515625,13.099901271551847,1.9323307292349636,-6.708264297944307
1772785795524506600,3.679506591796875,12.054739892435073,2.4846646058917043,-6.605591858977079
1772785795534521600,3.689521484375,11.235139665329456,2.5458760304406285,-5.726524712902307
1772785795544537600,3.69953759765625,10.426572873413562,2.3545731218621135,-4.697910563960671
1772785795554553600,3.7095537109375,10.006437243807316,2.062230343954265,-4.456839123606682
1772785795564568600,3.719568603515625,9.790085818690061,1.990666452217102,-4.564672014077008
1772785795574584600,3.72958447265625,9.718175597733259,1.884060765454173,-4.152899723668396
1772785795584599600,3.739599609375,9.243366713175178,1.6649974510297179,-3.056725950194895
1772785795594615600,3.749615478515625,9.401911261489987,1.39735569139719,-2.6449302789106963
1772785795604631300,3.75963134765625,8.801663394883274,0.7296331020630895,-2.983517506121099
1772785795614647300,3.769647216796875,7.474549114447831,0.6199769416883587,-3.1966867940708994
1772785795624662300,3.779662353515625,6.588583441030979,0.5740005687374621,-3.1957334388688206
1772785795634678300,3.78967822265625,6.914585911956429,0.4106519080765545,-3.117238286563754
1772785795644693200,3.799693359375,8.014426975765824,0.25976386586427685,-2.702763166937232
1772785795654709500,3.80970947265625,9.097485831600427,0.3454559439361095,-2.0273732578456403
1772785795664725500,3.8197255859375,9.708566642388702,0.6516048366174102,-1.2398268959961831
1772785795674741500,3.829741455078125,9.980194549047946,1.0345731304112822,-0.5389021481536328
1772785795684756500,3.839756591796875,9.626028059911727,1.4804618446290492,0.11545330234616995
1772785795694772500,3.8497724609375,8.784875926211475,1.3221737552933395,0.2652661165423691
1772785795704787500,3.859787353515625,8.09876997731626,1.0398030669540166,-0.2705830737814307
1772785795714803500,3.869803466796875,7.935576141890883,0.9606219782114028,-0.617509090270102
1772785795724819500,3.8798193359375,8.320278639066219,0.7327711808931082,-0.4016352195367217
1772785795734834400,3.88983447265625,8.772562972605227,0.7632184146702289,-0.037708383886516095
1772785795744850400,3.899850341796875,9.071157212123275,0.8394184417754411,0.36057065709009767
1772785795754866400,3.909866455078125,8.822734824484586,0.6976990637943148,0.6993745957911014
1772785795764881400,3.91988134765625,7.818585254713892,0.7168601297296583,0.27632892395704983
1772785795774897700,3.929897705078125,6.569529780992865,0.6035898705109953,-0.7932539258413016
1772785795784913700,3.93991357421875,4.572666812223196,0.8793058502014726,-3.7552427601128815
1772785795794928600,3.9499287109375,3.524510927465558,1.173162832064554,-7.832534869611263
1772785795804944600,3.959944580078125,4.43315663472414,0.6308442265309393,-10.195178192943334
1772785795814960400,3.96996044921875,3.6147552620142696,-0.6110829296801239,-8.103910847336053
1772785795824975600,3.9799755859375,-1.2447025392085314,-1.1092724706299602,-3.443130867373943
1772785795834991400,3.989991455078125,-10.574915176665783,0.4083265338689089,-1.2562738806672393
1772785795845007400,4.00000732421875,-21.279299613809584,3.177511261218786,-0.5814739002928138
1772785795855022300,4.010022216796875,-27.346889342212677,3.9127553350314495,4.768678044623136
1772785795865038300,4.020038330078125,-31.217071902191638,1.6565918801255524,12.87327862778902
1772785795875054600,4.0300546875,-32.81543765718937,3.777442901483178,15.498209782505034
1772785795885069300,4.0400693359375,-30.578023472547528,3.0407471675574778,10.3864045291543
1772785795895085600,4.05008544921875,-25.213300273704526,3.0365099683791397,8.127772199916839
1772785795905101600,4.0601015625,-19.682194088006018,2.8817992991387844,6.566579699015617
1772785795915116500,4.070116455078125,-16.77957295011282,3.1813749509096145,3.7643385052382943
1772785795925132500,4.080132568359375,-20.1201693256855,3.9811306598603724,-0.29187004582956433
1772785795935148500,4.0901484375,-24.1294096432209,3.1911826436966657,-5.382937485447526
1772785795945163500,4.10016357421875,-23.55552371383905,2.624344294738769,-6.790969469159841
1772785795955179500,4.110179443359375,-21.131483380258082,2.2992579157449304,-4.121585424733162
1772785795965195500,4.120195556640625,-18.747429020106793,1.3867442810118198,-2.1135091341622174
1772785795975210500,4.13021044921875,-15.894384690809249,0.004765460836142301,-0.2735074367955327
1772785795985226500,4.1402265625,-12.444303858166933,-1.0198280542872846,1.947536335542798
1772785795995242500,4.150242431640625,-9.847930104893445,-0.3443538279131055,4.204703560663759
1772785796005257500,4.160257568359375,-7.995623491096496,2.1048899205073712,5.9586254958152765
1772785796015273500,4.1702734375,-4.507410788458586,4.553968249233066,7.59969408198595
1772785796025289500,4.18028955078125,-0.8672317468523979,4.935806296887994,7.974314161086082
1772785796035304400,4.190304443359375,3.402612394502759,3.60544791996479,6.782433696004748
1772785796045320400,4.200320556640625,7.598996747371554,1.51458550189659,5.167879607272148
1772785796055336400,4.21033642578125,10.496446620106697,-0.6615257805205881,3.2135794766828414
1772785796065351400,4.220351318359375,11.531943514299392,-1.4445277769386768,0.9077107644960284
1772785796075367400,4.230367431640625,10.405696089601516,-0.07864599548522383,-1.855645695091784
1772785796085383400,4.240383544921875,10.7356470058918,1.3232380235239862,-4.08850323934257
1772785796095398400,4.2503984375,12.551027033829689,2.179351725643128,-5.298717818015813
1772785796105414400,4.260414306640625,14.265046289920805,2.8977710675135255,-5.710442177629471
1772785796115430700,4.2704306640625,15.301679494667052,3.05225055834651,-6.548457766869664
1772785796125445400,4.2804453125,15.98144104297161,1.5463076509803533,-6.407401528972387
1772785796135461600,4.290461669921875,15.752115569990872,0.9886195538140833,-6.4655696403026575
1772785796145477600,4.3004775390625,14.525699798101186,2.1616581019118426,-7.401556358951329
1772785796155492600,4.31049267578125,13.708512477356194,2.475006842969358,-8.060729877257346
1772785796165508900,4.3205087890625,13.446956467378138,2.7829601547241207,-7.64182525075078
1772785796175524900,4.33052490234375,13.183266952502727,3.128820003286004,-6.569191342818737
1772785796185539800,4.340539794921875,12.315015799474715,3.061733841484785,-5.299096588200331
1772785796195555800,4.350555908203125,10.922993285799025,2.8225591746628282,-4.80369616651237
1772785796205571800,4.36057177734375,9.214912772107123,2.2858289637207982,-4.674141858099401
1772785796215586800,4.3705869140625,7.688866403388976,1.475513428441435,-4.326414754360914
1772785796225602800,4.380602783203125,6.5696911090344186,0.6677689857590943,-3.894061155955493
1772785796235618800,4.390618896484375,6.282549991422891,-0.08552505094185471,-3.323184929783642
1772785796245633800,4.4006337890625,6.185434017539024,-0.6526336682084948,-2.658642577920854
1772785796255649800,4.41064990234375,6.107175304338336,-0.9183996240317821,-2.084304813118279
1772785796265665800,4.420665771484375,6.070349840766191,-1.0043011801358313,-1.8875497766137121
1772785796275680800,4.4306806640625,5.879973983904719,-0.8270713667038828,-2.254749642585218
1772785796285696800,4.44069677734375,5.400025982892513,-0.23187356829466296,-3.4372572991654273
1772785796295713000,4.450713134765625,5.610785871613025,0.3949121583594009,-4.424426800301671
1772785796305728000,4.46072802734375,7.040107896113395,0.9660444416515529,-4.159308129405975
1772785796315744000,4.470743896484375,9.17249109596312,1.3110107023745774,-3.061149904116988
1772785796325760000,4.480760009765625,10.846074881291388,1.2334762117952107,-1.97270511746034
1772785796335775000,4.49077490234375,11.900235559421777,1.1998206104308367,-1.0928647950559853
1772785796345791000,4.500791015625,12.257538593018054,1.0874375093102455,-0.7722498623877764
1772785796355806700,4.510806640625,11.4226776684165,0.7798517156936228,-1.0685489767059684
1772785796365822000,4.520822021484375,9.817723182678222,1.1177206385668366,-1.7270441573590039
1772785796375837700,4.530837646484375,9.065082860645651,2.002772192813456,-1.995869866079092
1772785796385853700,4.540853759765625,9.019474371159076,2.495688980992138,-1.9678993246138095
1772785796395868700,4.55086865234375,6.8701277615487575,2.622394329714775,-2.497489016151428
1772785796405884700,4.560884765625,2.69875685390532,2.0689267728529868,-3.60228711784631
1772785796415901000,4.57090087890625,-2.6092390800654885,2.298718840432167,-2.7456016071885823
1772785796425916000,4.580916015625,-8.65330940119326,2.725178412362933,-1.5061436906352639
1772785796435932000,4.590931884765625,-14.418841013360023,2.673265854296088,-1.3826006053358315
1772785796445948000,4.600947998046875,-19.084616317391394,1.9151367255888878,0.18177724760323763
1772785796455963000,4.610962890625,-19.94237413345575,1.5697159990966318,5.375061052983999
1772785796465979000,4.620978759765625,-21.965392703223227,-0.18379326360076664,8.97679725894928
1772785796475995000,4.630994873046875,-23.278920941376686,-2.9161855528652665,14.967676672637461
1772785796486009900,4.641009765625,-20.63524066252708,-0.9055117931470275,17.649816153740883
1772785796496025900,4.65102587890625,-20.08255417304039,1.6542594916552305,15.6673949672997
1772785796506041900,4.661041748046875,-20.472498078000545,2.517838561218977,9.970836353594065
1772785796516056800,4.671056884765625,-20.176224974906443,1.8634306498795747,2.030909030756354
1772785796526072800,4.68107275390625,-19.645392589831353,-0.06783098881915212,-2.680123465105891
1772785796536088800,4.6910888671875,-19.012923538577557,-0.1063049502506852,-2.289193471717834
1772785796546104000,4.70110400390625,-19.892958652901648,2.44307441213578,0.4491229468986392
1772785796556119800,4.711119873046875,-20.563117675602435,3.62328723577708,2.792624347387254
1772785796566135800,4.7211357421875,-21.42095966281891,3.300956146840751,4.75379874766022
1772785796576150800,4.73115087890625,-20.532121648836135,2.040745072855055,4.49312536573559
1772785796586166800,4.741166748046875,-17.61964313379526,0.09216945739239454,3.9189588658466934
1772785796596182800,4.751182861328125,-14.022275644433497,-1.3698856467999516,4.1956008012756705
1772785796606197800,4.76119775390625,-10.743612870204448,-1.9406464298985897,4.863495678436756
1772785796616213800,4.7712138671875,-8.10675162371993,-1.6654361347079276,5.689831935799122
1772785796626229800,4.781229736328125,-5.623684516152739,-1.2187506440892815,5.6103895657718175
1772785796636244700,4.79124462890625,-3.2627187706440686,-0.6635171004682779,5.307530070024728
1772785796646260700,4.8012607421875,-0.9873667772740125,0.2331460541822016,4.9098476797670125
1772785796656277000,4.811277099609375,1.245870413944125,0.8240453699462116,3.8852518265560265
1772785796666292000,4.8212919921875,4.030509900057315,0.8487834322962909,2.2067221092581746
1772785796676308000,4.831307861328125,6.819314689156412,1.0488664441797881,0.27738077109754083
1772785796686324000,4.841323974609375,8.997427374523877,1.8469469864599406,-2.21897514937073
1772785796696339000,4.8513388671875,9.577840659847855,2.272052513433248,-4.021219801403582
1772785796706355000,4.86135498046875,9.14099062680602,4.084278315123916,-6.028690965688228
1772785796716371000,4.871370849609375,9.23955504593253,6.825470873698592,-9.19569369237423
1772785796726386000,4.881385986328125,10.801001229333878,7.746640546965598,-11.24055935229063
1772785796736402000,4.89140185546875,12.66768006735444,7.238933601412176,-11.645362972730398
1772785796746417700,4.901417724609375,14.147418273884057,6.652954498654603,-10.815838732981682
1772785796756433000,4.911432861328125,15.530021801829337,4.899923959384858,-9.180610105010867
1772785796766448600,4.92144873046875,16.642949141705035,2.7742084007307883,-7.126614797699451
1772785796776465000,4.93146484375,17.36467468551397,1.510629457747191,-5.49839283362031
1772785796786479900,4.94147998046875,17.659916691994667,1.20425786222592,-4.787548164787888
1772785796796496000,4.951495849609375,16.876292618155478,0.937961818113923,-4.808135318003594
1772785796806511900,4.961511962890625,15.368422542119026,0.6778541803132743,-4.426369458802044
1772785796816526800,4.97152685546875,10.68242044261694,-0.04427241857722401,-2.2653230590477587
1772785796826542800,4.98154296875,5.768952818787097,-0.17167071800008415,-0.6505953673139214
1772785796836558800,4.991558837890625,5.79339927777946,0.9064061116382479,-0.7051002799615264
1772785796846573800,5.00157373046875,4.213901304858923,0.7755634439151734,-0.7113241229124366
1772785796856589800,5.01158984375,3.702977150824666,1.4775632005780934,-0.4855513739772141
1772785796866605800,5.021605712890625,4.74257914224863,2.0314885842099786,0.15212196792140603
1772785796876620800,5.031620849609375,6.775974729123711,1.802038461936265,0.7023626716911793
1772785796886637000,5.041636962890625,8.478935415583848,1.5948612540081142,0.8618860019102692
1772785796896653000,5.051653076171875,9.273008402723073,1.4021256822779773,0.6861455502532422
1772785796906668000,5.06166796875,9.19837664784789,1.5194664058059453,-0.0494853309199214
1772785796916684000,5.07168408203125,8.702056188705564,2.1994357516422864,-1.4288739884719253
1772785796926699800,5.08169970703125,8.369920914113521,2.5649624237045643,-2.4176287129729985
1772785796936715000,5.091715087890625,8.81998815612495,2.711183789280057,-2.5318320152580736
1772785796946730800,5.101730712890625,9.802727273598313,2.6859511483460663,-1.9435500423856078
1772785796956746800,5.111746826171875,10.713383736157416,2.4310414445146917,-1.3393629366338253
1772785796966761700,5.12176171875,11.470278793025017,2.1147613261803984,-0.8837835070721805
1772785796976777700,5.13177783203125,11.93137654761672,1.837941111575067,-0.2100909034177661
1772785796986793700,5.141793701171875,11.810568732500075,1.2077689390867947,0.26735110612288115
1772785796996808700,5.15180859375,11.04538281714916,0.3703293961688876,0.03283522489219904
1772785797006825000,5.161824951171875,9.567867547366022,-0.3620934096779674,-0.8365550882335752
1772785797016841000,5.171841064453125,8.05000097797215,-0.6794855078421532,-1.648506627216935
1772785797026856000,5.18185595703125,6.602181758272647,-0.648675212906301,-2.6638860315322876
1772785797036872000,5.191871826171875,4.160580633559823,-0.2706716836466454,-5.450208940687776
1772785797046888000,5.201887939453125,-0.8643477158486843,-0.3739282974436879,-9.953326415866613
1772785797056903000,5.21190283203125,-11.332710397243499,-0.7023486431658268,-11.762837844032049
1772785797066919000,5.2219189453125,-14.459203418886661,-0.42759748991951346,0.009899316593259572
1772785797076935000,5.231934814453125,-20.87294233418703,-1.7327863542728126,7.184316460561752
1772785797086950000,5.241949951171875,-25.545182450318336,-0.3134875650063157,9.173507579529286
1772785797096966000,5.2519658203125,-29.938785657811163,-0.6976911727488041,7.793435031366347
1772785797106981600,5.261981689453125,-34.8022088555336,0.31064371988251804,6.811993552488088
1772785797116996900,5.271996826171875,-32.883800999319554,3.750720898774266,11.75140108873844
1772785797127012900,5.282012939453125,-30.372412052631375,6.59915451940596,13.276318161165714
1772785797137028900,5.29202880859375,-25.036877538871764,6.999764195287227,10.86434937365055
1772785797147043800,5.3020439453125,-18.505030130541325,6.266126679888368,7.788575316375494
1772785797157059800,5.312059814453125,-14.437636899244785,5.229775799214839,1.9708891540795563
1772785797167075000,5.322074951171875,-9.682875151771306,2.7484225098282096,-3.1354771230876444
1772785797177090000,5.332090087890625,-4.544167278447747,0.6248727509059011,-3.808237852719426
1772785797187106000,5.34210595703125,-3.5710131509214635,0.08755904098749161,-3.1677211040884257
1772785797197122000,5.3521220703125,-4.266375588461757,0.38486733234822745,-2.224340475796163
1772785797207137000,5.362136962890625,-3.3170746302098033,-0.04174991436228156,-0.5548106420338154
1772785797217153000,5.372153076171875,-2.5494132646560668,0.06858166105598211,1.52161189340204
1772785797227169000,5.3821689453125,-2.652010884821415,1.1415616059467195,3.266470232132077
1772785797237184000,5.39218408203125,-3.0474264991909266,2.5656299477025866,4.329730162519216
1772785797247200000,5.402199951171875,-3.3393513439476488,3.5283854308113454,4.407573865178227
1772785797257216000,5.412216064453125,-3.378161843857169,3.5779040794789787,3.1596099860861897
1772785797267231000,5.42223095703125,-2.226410560068488,3.6179321384847163,1.6080086126118898
1772785797277247000,5.4322470703125,-0.08214695281088352,3.094395463375747,0.5328925324752927
1772785797287263200,5.44226318359375,2.412883564272523,2.2129440525129436,-0.07003215212523937
1772785797297278200,5.4522783203125,4.71009141561985,1.5497466855183242,-0.583780423669517
1772785797307294200,5.462294189453125,6.619734366098046,1.1033927649416029,-0.9703870009005069
1772785797317310200,5.472310302734375,7.897180652523041,0.647392918010801,-1.3438666777938604
1772785797327325200,5.4823251953125,8.491785544806719,0.187575522085838,-1.9048361347183584
1772785797337341200,5.492341064453125,8.703452611500024,0.12106328771505503,-2.5296204766884443
1772785797347357000,5.50235693359375,8.824476115193962,0.35857104423809794,-2.8559587554395196
1772785797357372200,5.5123720703125,9.17782661177218,0.41572957666702565,-2.8862285137578843
1772785797367388000,5.522387939453125,9.6297532179147,0.3689731592543423,-2.89296980471164
1772785797377404000,5.53240380859375,9.974718747985362,0.3686929540734738,-2.928738452707231
1772785797387419000,5.5424189453125,10.32657637565732,0.28173180591389535,-3.1062542434737086
1772785797397435000,5.552434814453125,10.445177036118507,0.01974821817353368,-3.423414359512925
1772785797407451100,5.562451171875,10.049048889565467,-0.334777898055315,-3.931695305562019
1772785797417466000,5.572466064453125,9.552548397681116,-0.7042575455270708,-4.481227714931965
1772785797427482000,5.582482177734375,9.222691004893184,-0.690765611269325,-4.703263615426421
1772785797437498000,5.592498046875,9.123711575224995,-0.32437311615794895,-4.429067611844838
1772785797447513000,5.60251318359375,9.19009747980237,0.25902707602232694,-3.6930560607910152
1772785797457529000,5.612529052734375,8.705092779922484,0.9068554628409444,-2.6536320562824605
1772785797467545000,5.622545166015625,7.918780489912629,1.4171815048515797,-1.3572873003810644
1772785797477560000,5.63256005859375,7.023634900218248,1.3860596597485244,-0.2390914455179125
1772785797487576000,5.642576171875,5.456322455132007,1.041763699502498,0.23614673383552579
1772785797497592000,5.652592041015625,3.512656823542714,0.9150850926563143,0.27628581546768544
1772785797507607000,5.66260693359375,1.8325638024508952,1.085900947392732,-0.19278273534011095
1772785797517623000,5.672623046875,-0.35614626477658745,1.0871163145318627,-1.0092976001836358
1772785797527639000,5.68263916015625,-2.851838460639119,0.6311752120509744,-1.5868753698207436
1772785797537654300,5.692654296875,-4.64703494772613,0.13154252308811992,-1.5336059903174637
1772785797547670000,5.702669921875,-4.743440727514028,-0.37338936826139685,-0.9713904788546264
1772785797557686000,5.71268603515625,-5.394672346904874,-0.6591563479755074,-0.5810937053361908
1772785797567701000,5.722700927734375,-6.857024534347653,-0.6531205018773675,-0.6311592107642442
1772785797577717000,5.732717041015625,-7.893468354001641,0.49333033741563553,-0.478024850929901
1772785797587733000,5.74273291015625,-8.504805769899487,1.9464483941756188,0.37675606821551916
1772785797597748000,5.752748046875,-8.2117171420604,2.8971266321301457,1.54015000513345
1772785797607764000,5.762763916015625,-7.22490390701592,2.5553613594055173,2.0304117487587034
1772785797617780000,5.772780029296875,-6.199021228864789,2.055124895863235,2.115412045174092
1772785797627795000,5.782794921875,-5.7234530503720045,1.771304447107017,1.9954149619184434
1772785797637811000,5.79281103515625,-5.4133752938091755,1.4348048398256301,1.5124346074730157
1772785797647827200,5.8028271484375,-5.08488275963366,1.0650747247241437,1.2181237443625925
1772785797657842200,5.81284228515625,-4.136122484129667,0.9543751197110861,1.496449102833867
1772785797667858200,5.822858154296875,-3.042035453802347,0.9469831828288734,2.1273718014284966
1772785797677874200,5.832874267578125,-2.5260803198635577,0.9558223959099501,2.5470062035143375
1772785797687889200,5.84288916015625,-2.935124062091112,1.2874734671816228,2.3684600467868147
1772785797697905200,5.8529052734375,-2.9943910745739934,1.88252785679847,1.7471531716689466
1772785797707921200,5.862921142578125,-2.689209857881069,2.2309907274655996,1.5831822143912315
1772785797717936000,5.87293603515625,-1.4828092845380305,2.6032439313039184,1.8506660069830714
1772785797727952100,5.8829521484375,0.43125382046997546,2.576108379358053,2.0975842736691237
1772785797737967900,5.8929677734375,2.55088041459918,1.8843039265602826,2.1641578097730876
1772785797747983000,5.902983154296875,3.675279581081867,0.9236192583762108,1.932603993218392
1772785797757999000,5.9129990234375,3.706766606235504,0.40616351061612366,1.39499203100577
1772785797768015000,5.92301513671875,3.5608483152598143,0.22475758054330944,0.9064815149620175
1772785797778030000,5.933030029296875,3.762309629759192,0.25479616045430303,0.80429788242504
1772785797788046000,5.943046142578125,4.485502908033133,0.22725831131786106,1.0641985994767398
1772785797798062000,5.95306201171875,5.464316961017251,0.23825872102081774,1.3989496825903653
1772785797808077000,5.9630771484375,6.6235086239397525,-0.04362579123675823,1.1933336595643311
1772785797818093000,5.973093017578125,6.710412415888905,-0.4629340301081538,0.6536132538303733
1772785797828109000,5.983109130859375,5.590850168043374,-0.4550632967330515,-0.16641652379892766
1772785797838124000,5.9931240234375,4.116391947743296,-0.7406498783789575,-1.521603563965112
1772785797848140000,6.00314013671875,3.231471399465203,-1.3178430326126516,-2.8280513423383233
1772785797858156000,6.013156005859375,2.4990759930819273,-1.95115043438673,-3.4782121176272627
1772785797868171000,6.0231708984375,1.7104612713485956,-2.316118888044357,-3.6566418083682652
1772785797878187300,6.033187255859375,0.805242615929246,-2.3414766166627405,-3.8037870107904075
1772785797888203300,6.043203369140625,-0.6599766513824462,-1.9215939389042556,-4.150436548425257
1772785797898218200,6.05321826171875,-2.1820441795974967,-1.205111483380571,-4.11711324775517
1772785797908234200,6.063234130859375,-3.6447798133999108,-1.1681342633128164,-3.326074513745308
1772785797918250000,6.07325,-4.082454022306203,-1.0071278549291194,-2.6644734760314224
1772785797928265200,6.08326513671875,-3.6435751137852668,-0.5360752906972542,-1.790411590898037
1772785797938281000,6.093281005859375,-3.504590421465039,-0.010195449995622038,-1.0201461803257466
1772785797948297000,6.103296875,-3.6326071450471877,0.02544482237994671,-0.48510881784148513
1772785797958312000,6.11331201171875,-3.6444407907038925,0.2784821564681828,0.001956212101690471
1772785797968328000,6.123327880859375,-3.2764187946945427,0.12159450851492583,0.5196745563207193
1772785797978344000,6.133343994140625,-2.1288041723191737,-0.37995983269289135,0.6655252254202961
1772785797988359000,6.14335888671875,-0.6150187347590923,-0.6740884711042047,0.7929181180156767
1772785797998375200,6.153375244140625,0.5774135189861059,-0.7494114231139422,1.0748622515060007
1772785798008391200,6.16339111328125,1.288859076321125,-0.4345608991913497,1.449465817862749
1772785798018406100,6.17340625,1.3982429956257343,0.0035213790591806173,1.8101913732536137
1772785798028422100,6.183422119140625,0.6824322288185357,0.43243879247084255,2.163229589012265
1772785798038438100,6.193438232421875,0.26728549354076386,0.7341618315339088,2.3116809055969116
1772785798048453000,6.203453125,0.36452421702146526,0.7277550332315266,2.323269636581838
1772785798058469000,6.21346923828125,0.685052055928111,0.695490082507953,2.240451944902539
1772785798068485000,6.223485107421875,0.8740770827025175,0.6135637136451899,2.0476433079361915
1772785798078500000,6.2335,0.8207605030566454,0.5148622241355478,1.773119095313549
1772785798088516000,6.24351611328125,0.9582295301169157,0.496686698638834,1.5436990759171545
1772785798098531800,6.25353173828125,1.1818249350130556,0.3229576233368367,1.2389239558070897
1772785798108547000,6.263547119140625,1.084167109337449,0.03526515545286238,0.9201575005497783
1772785798118563000,6.27356298828125,1.0775888999909162,-0.417361342587322,0.6470983920436352
1772785798128579000,6.2835791015625,1.8034294779032467,-0.9299578868132085,0.527109747822769
1772785798138594000,6.293593994140625,2.285652438110113,-1.0519381067100912,0.6974585330367088
1772785798148610000,6.303610107421875,2.2926643626987935,-0.7030467814978212,1.0854496964938938
1772785798158626000,6.3136259765625,1.8153934719413518,-0.05890533956363797,1.5734775435872375
1772785798168641000,6.32364111328125,1.0399836842179297,0.5018049549680202,1.906960141135007
1772785798178657300,6.3336572265625,-0.3814344352900982,0.9361210125528275,2.008118668407947
1772785798188673300,6.34367333984375,-1.5679279466360807,1.2914908861294387,1.8167003167562186
1772785798198688300,6.353688232421875,-1.480613235798478,1.3109252160482108,1.3399986041888594
1772785798208704300,6.363704345703125,-1.6220856532812118,0.6935735082969069,0.6040512044124305
1772785798218720300,6.37372021484375,-1.6203285804808139,0.004887625911086798,-0.25068633224898945
1772785798228735200,6.3837353515625,-1.1768845560014247,-0.5823543363891541,-1.0081298715785145
1772785798238751200,6.393751220703125,-0.7510556831896305,-1.3130804943859575,-1.6008387209825217
1772785798248767200,6.403767333984375,-0.4295253892421722,-1.9281579735949634,-2.0528321087509394
1772785798258782200,6.4137822265625,-0.21052081926763055,-2.247363185595721,-2.406076222345233
1772785798268798200,6.423798095703125,-0.7789613427251577,-2.1817127556860445,-2.541506729315221
1772785798278814000,6.43381396484375,-1.3259189331710337,-1.7681575273834167,-2.2652149224981666
1772785798288829200,6.4438291015625,-1.5828332548230886,-1.088626426833868,-1.6357574741505085
1772785798298845200,6.45384521484375,-2.040367179453373,-0.3051179421983659,-0.8794177130781113
1772785798308861200,6.463861083984375,-2.1033605189830062,0.12743322460576892,-0.2978937630984932
1772785798318876200,6.473876220703125,-1.9104197800695895,0.20466215636730192,-0.23602153655327854
1772785798328892200,6.48389208984375,-1.563585533517599,0.18564941286146638,-0.4478986658006906
1772785798338908200,6.493908203125,-0.9138801007807255,0.038569969151914116,-0.6868877469226717
1772785798348923100,6.503923095703125,0.02645955238044262,-0.35244244182258844,-0.6990323582246899
1772785798358939100,6.513939208984375,0.9059785338759422,-0.597852934294194,-0.4471531811956316
1772785798368955100,6.523955078125,1.51942022857666,-0.7416111246265471,-0.12721256759241223
1772785798378970000,6.53397021484375,1.7689958779036998,-0.5421762013882399,0.15070596364364028
