time,seconds_elapsed,z,y,x
1772785791898836700,0.053836669921875,0.07206474989652634,0.038578372448682785,0.0812826082110405
1772785791908853000,0.06385302734375,0.03864341229200363,0.017204105854034424,0.014349653385579586
1772785791918869000,0.073868896484375,0.01581542193889618,-0.023784587159752846,-0.05311039462685585
1772785791928884000,0.083884033203125,0.0027496889233589172,-0.08410518616437912,-0.11048846691846848
1772785791938900000,0.09389990234375,0.004507665056735277,-0.16302500665187836,-0.172310471534729
1772785791948916000,0.103916015625,0.039623040705919266,-0.22131627798080444,-0.22669808566570282
1772785791958931000,0.113930908203125,0.10359196364879608,-0.22107301652431488,-0.2717203199863434
1772785791968947000,0.123947021484375,0.15114670991897583,-0.14073850214481354,-0.3107401430606842
1772785791978962000,0.1339619140625,0.18119554221630096,0.040836889296770096,-0.28554242849349976
1772785791988978000,0.14397802734375,0.17448997497558594,0.2449015974998474,-0.21165648102760315
1772785791998994000,0.153993896484375,0.13722123205661774,0.3804100453853607,-0.14874149858951569
1772785792009009000,0.1640087890625,0.12294909358024597,0.4905115067958832,-0.10301581025123596
1772785792019025000,0.17402490234375,0.11284232884645462,0.6116266250610352,-0.061386991292238235
1772785792029041200,0.184041259765625,0.09254158288240433,0.7024006843566895,0.019417842850089073
1772785792039056000,0.194055908203125,0.09097391366958618,0.7794497013092041,0.19075439870357513
1772785792049072000,0.204072021484375,0.17660146951675415,0.774226188659668,0.4454335570335388
1772785792059088000,0.214087890625,0.3143959641456604,0.7142566442489624,0.6950315237045288
1772785792069103900,0.224103759765625,0.3769967555999756,0.7644103765487671,0.9254181385040283
1772785792079118800,0.234118896484375,0.36795711517333984,0.8710457682609558,1.126368522644043
1772785792089134800,0.244134765625,0.32538408041000366,0.9254800081253052,1.2651301622390747
1772785792099149800,0.25414990234375,0.3266744017601013,0.9787139296531677,1.3377351760864258
1772785792109165800,0.264165771484375,0.37219715118408203,0.9440893530845642,1.325485110282898
1772785792119181800,0.274181884765625,0.36976948380470276,0.8118270039558411,1.2068634033203125
1772785792129196800,0.28419677734375,0.35589203238487244,0.6836695671081543,1.0213907957077026
1772785792139212800,0.294212890625,0.4276507794857025,0.7347278594970703,0.8554248213768005
1772785792149229000,0.30422900390625,0.37982332706451416,0.809022068977356,0.6344953775405884
1772785792159243500,0.314243408203125,0.16873207688331604,0.937620997428894,0.37588199973106384
1772785792169259800,0.324259765625,0.049915947020053864,0.7430187463760376,0.04475492984056473
1772785792179275800,0.33427587890625,0.20210063457489014,0.4726317822933197,-0.28256312012672424
1772785792189290800,0.344290771484375,0.5148324370384216,0.6266999244689941,-0.4129594564437866
1772785792199306800,0.354306640625,0.7653720378875732,0.5058176517486572,-0.4967488944530487
1772785792209322800,0.36432275390625,0.910413920879364,0.29081690311431885,-0.458994597196579
1772785792219337700,0.374337646484375,0.965351402759552,0.0776762068271637,-0.4458076059818268
1772785792229353700,0.384353759765625,0.8420175313949585,0.014695375226438046,-0.44873493909835815
1772785792239369700,0.39436962890625,0.6857109665870667,-0.10827912390232086,-0.564816415309906
1772785792249384700,0.404384765625,0.6457291841506958,-0.2521366775035858,-0.5851190090179443
1772785792259400700,0.414400634765625,0.6596993207931519,-0.3680470287799835,-0.4602399170398712
1772785792269416400,0.42441650390625,0.6249219179153442,-0.25879138708114624,-0.21512390673160553
1772785792279431700,0.434431640625,0.47145509719848633,-0.1142345517873764,0.03740493953227997
1772785792289447700,0.44444775390625,0.29052045941352844,0.06958109140396118,0.22120486199855804
1772785792299463700,0.454463623046875,0.10613122582435608,0.1684218943119049,0.35907432436943054
1772785792309478700,0.464478759765625,0.030393056571483612,0.16854120790958405,0.23082579672336578
1772785792319494700,0.47449462890625,0.04140814393758774,0.07974802702665329,-0.051151394844055176
1772785792329510700,0.4845107421875,0.1332421898841858,-0.12964273989200592,-0.41737836599349976
1772785792339525600,0.494525634765625,0.07286876440048218,-0.16575434803962708,-0.703728199005127
1772785792349541600,0.504541748046875,-0.03146536275744438,-0.01665647327899933,-0.844865620136261
1772785792359557600,0.5145576171875,-0.07781117409467697,0.2132711261510849,-0.9276815056800842
1772785792369572600,0.524572509765625,-0.005925801116973162,0.2753896117210388,-0.9304711818695068
1772785792379588600,0.534588623046875,0.21584630012512207,0.23959772288799286,-0.8531713485717773
1772785792389604600,0.5446044921875,0.37888315320014954,0.15332062542438507,-0.8510035872459412
1772785792399619600,0.55461962890625,0.4260145127773285,0.23017235100269318,-0.9722732305526733
1772785792409635800,0.5646357421875,0.390634685754776,0.4141230285167694,-1.0800998210906982
1772785792419651800,0.57465185546875,0.3174987733364105,0.707438051700592,-1.2719931602478027
1772785792429666800,0.584666748046875,0.24218697845935822,1.0433175563812256,-1.5917249917984009
1772785792439682800,0.594682861328125,0.06366472691297531,1.237802505493164,-1.71060049533844
1772785792449698600,0.604698486328125,-0.23385296761989594,1.4377821683883667,-1.5575499534606934
1772785792459713800,0.6147138671875,-0.46184656023979187,1.5657695531845093,-1.3303813934326172
1772785792469729500,0.6247294921875,-0.45657989382743835,1.4160120487213135,-1.1723952293395996
1772785792479745500,0.63474560546875,-0.2808116376399994,1.0210483074188232,-1.1031179428100586
1772785792489760500,0.644760498046875,-0.09447586536407471,0.49618852138519287,-0.8790780305862427
1772785792499776500,0.654776611328125,0.0629824548959732,-0.036365944892168045,-0.3434540629386902
1772785792509792800,0.664792724609375,0.1846417784690857,-0.4416140913963318,0.335709810256958
1772785792519807500,0.674807373046875,0.25350964069366455,-0.4230389893054962,0.9829701781272888
1772785792529823700,0.68482373046875,0.16045157611370087,-0.23052465915679932,1.4799798727035522
1772785792539839700,0.69483984375,0.17970335483551025,-0.11214085668325424,1.7847925424575806
1772785792549854700,0.704854736328125,0.2847280502319336,-0.09260683506727219,1.9144532680511475
1772785792559870700,0.71487060546875,0.34825050830841064,-0.03513088822364807,1.851598858833313
1772785792569886700,0.72488671875,0.3302376866340637,0.27558010816574097,1.605875015258789
1772785792579901700,0.734901611328125,0.23327094316482544,0.7502589821815491,1.3668770790100098
1772785792589917700,0.744917724609375,0.2231581211090088,0.9941321015357971,1.4394091367721558
1772785792599933700,0.75493359375,0.04547767713665962,0.7769417762756348,1.778009057044983
1772785792609948700,0.76494873046875,-0.15420746803283691,0.10736209154129028,2.0036447048187256
1772785792619964700,0.774964599609375,-0.3813476264476776,-0.6025424003601074,2.0059051513671875
1772785792629981000,0.78498095703125,-0.5193910002708435,-1.2292275428771973,1.6900250911712646
1772785792639995600,0.79499560546875,-0.5998387932777405,-1.828378438949585,1.0708240270614624
1772785792650012000,0.805011962890625,-0.6350213289260864,-2.1980574131011963,0.2531665861606598
1772785792660027600,0.815027587890625,-0.6365579962730408,-2.336782455444336,-0.597846508026123
1772785792670043000,0.82504296875,-0.6149557828903198,-2.180806875228882,-1.038469910621643
1772785792680058600,0.83505859375,-0.4972662627696991,-1.5707050561904907,-0.9658307433128357
1772785792690074600,0.84507470703125,-0.6172046065330505,-1.1603713035583496,-0.6223127841949463
1772785792700089600,0.855089599609375,-0.6936361193656921,-1.0583133697509766,-0.17350873351097107
1772785792710105600,0.865105712890625,-0.6799695491790771,-1.2554165124893188,0.2065563052892685
1772785792720121600,0.87512158203125,-0.6479367017745972,-1.5382386445999146,0.4208451807498932
1772785792730136600,0.885136474609375,-0.6242423057556152,-1.6235793828964233,0.39046597480773926
1772785792740152600,0.895152587890625,-0.6856677532196045,-1.4241430759429932,0.2443203330039978
1772785792750168800,0.9051689453125,-0.8873446583747864,-0.982968270778656,0.17156542837619781
1772785792760183600,0.91518359375,-1.1472175121307373,-0.47231003642082214,0.17829905450344086
1772785792770199800,0.92519970703125,-1.4216769933700562,0.05809178203344345,0.142120823264122
1772785792780215800,0.9352158203125,-1.6780494451522827,0.6036948561668396,0.024483058601617813
1772785792790230800,0.945230712890625,-1.7535349130630493,0.9565336108207703,-0.0513528473675251
1772785792800246800,0.955246826171875,-1.5900667905807495,0.9822648763656616,-0.031784363090991974
1772785792810262800,0.9652626953125,-1.2940207719802856,0.6974800229072571,-0.014622153714299202
1772785792820277800,0.97527783203125,-0.9215824604034424,0.2265162318944931,-0.012578705325722694
1772785792830293800,0.985293701171875,-0.48586902022361755,-0.2306412011384964,-0.01165325753390789
1772785792840308700,0.995308837890625,-0.1319243460893631,-0.5884063839912415,0.006377642974257469
1772785792850324700,1.00532470703125,0.030576683580875397,-0.7804412841796875,-0.11181344091892242
1772785792860340500,1.015340576171875,0.04866025969386101,-0.6536731123924255,-0.5761285424232483
1772785792870355700,1.025355712890625,-0.02485150843858719,-0.1286737471818924,-1.3581420183181763
1772785792880371500,1.035371337890625,0.11828749626874924,0.5802477598190308,-2.248420476913452
1772785792890387700,1.0453876953125,0.6652834415435791,0.9547343254089355,-2.8600680828094482
1772785792900402700,1.055402587890625,1.410200595855713,0.5796988010406494,-2.8867948055267334
1772785792910418700,1.065418701171875,2.127896785736084,-0.3149677813053131,-2.524423360824585
1772785792920434700,1.0754345703125,2.4822885990142822,-1.1930967569351196,-2.2584385871887207
1772785792930449700,1.08544970703125,2.5031700134277344,-0.9278464913368225,-2.2745437622070312
1772785792940465700,1.095465576171875,2.207277297973633,0.6266483068466187,-2.1995582580566406
1772785792950481700,1.105481689453125,0.827084481716156,2.073329448699951,-1.9755014181137085
1772785792960496600,1.11549658203125,-0.38837093114852905,2.060731887817383,-1.317760705947876
1772785792970512600,1.1255126953125,-0.9289394021034241,1.7537410259246826,-0.5851210951805115
1772785792980528600,1.135528564453125,-1.3041549921035767,1.161710262298584,-0.32630935311317444
1772785792990543600,1.145543701171875,-1.441971778869629,-0.027297355234622955,-0.22622880339622498
1772785793000559900,1.155559814453125,-1.3914891481399536,-1.2267088890075684,-0.08657265454530716
1772785793010576000,1.165575927734375,-1.339856505393982,-1.836136817932129,0.03758550435304642
1772785793020590800,1.1755908203125,-1.3042079210281372,-1.6418002843856812,-0.09166725724935532
1772785793030606800,1.18560693359375,-1.3478089570999146,-0.7854298949241638,-0.4223940372467041
1772785793040622600,1.19562255859375,-1.2185909748077393,-0.000034559983760118484,-0.5699114203453064
1772785793050637800,1.205637939453125,-1.074182152748108,0.8845881819725037,-0.2928108274936676
1772785793060653600,1.215653564453125,-1.256678819656372,1.6162309646606445,0.3133174180984497
1772785793070669600,1.225669677734375,-1.8090282678604126,1.9254744052886963,1.2884347438812256
1772785793080684500,1.2356845703125,-2.0864663124084473,2.044961929321289,2.5069186687469482
1772785793090700500,1.245700439453125,-2.0279581546783447,1.754443883895874,3.3237414360046387
1772785793100716500,1.255716552734375,-1.7017866373062134,1.3321973085403442,3.489558696746826
1772785793110731500,1.2657314453125,-1.1648659706115723,1.1609126329421997,3.006502389907837
1772785793120747800,1.275747802734375,-0.48230162262916565,1.420568585395813,2.254862070083618
1772785793130763800,1.285763671875,0.15345695614814758,2.008287191390991,1.600306510925293
1772785793140778800,1.29577880859375,0.4587309956550598,2.5038561820983887,1.2058024406433105
1772785793150794800,1.305794677734375,0.5893579721450806,2.4161689281463623,0.9996393918991089
1772785793160810500,1.315810546875,0.6584206819534302,1.669197916984558,0.8810034394264221
1772785793170825500,1.325825439453125,0.7498654127120972,0.6413597464561462,0.7551507353782654
1772785793180841500,1.335841552734375,0.7861568331718445,-0.22068814933300018,0.6034216284751892
1772785793190857700,1.345857666015625,0.723580539226532,-0.9518910050392151,0.4187186360359192
1772785793200872700,1.355872802734375,0.6065216660499573,-1.525133728981018,0.16915783286094666
1772785793210888700,1.365888671875,0.4822314381599426,-1.7950493097305298,-0.18127234280109406
1772785793220904700,1.37590478515625,0.39586007595062256,-1.7552359104156494,-0.5005571842193604
1772785793230919700,1.385919677734375,0.35903334617614746,-1.6354392766952515,-0.6313498616218567
1772785793240935700,1.395935791015625,0.28528156876564026,-1.6044189929962158,-0.5507518649101257
1772785793250951400,1.405951416015625,0.19273672997951508,-1.7021172046661377,-0.33422860503196716
1772785793260966700,1.415966552734375,0.13796649873256683,-1.7283439636230469,-0.1018361821770668
1772785793270982400,1.425982421875,0.11327765882015228,-1.5884171724319458,0.0581100769340992
1772785793280998400,1.435998291015625,0.11695156246423721,-1.2506531476974487,0.10336307436227798
1772785793291013400,1.446013427734375,0.1372869312763214,-0.7279899716377258,0.006066612899303436
1772785793301029400,1.456029296875,0.19564729928970337,-0.2233467996120453,-0.15370844304561615
1772785793311045600,1.466045654296875,0.34724268317222595,0.09547193348407745,-0.18369537591934204
1772785793321060600,1.476060546875,0.529199481010437,0.10211458057165146,-0.03375300019979477
1772785793331076600,1.48607666015625,0.6531994938850403,-0.10549214482307434,0.2676188349723816
1772785793341091600,1.496091552734375,0.7623251676559448,-0.3866358995437622,0.5718897581100464
1772785793351107600,1.506107666015625,0.8600589036941528,-0.5829406976699829,0.7957971692085266
1772785793361123600,1.51612353515625,0.976102888584137,-0.6565572023391724,0.8392361998558044
1772785793371138600,1.526138671875,1.1261546611785889,-0.6350396871566772,0.6498479247093201
1772785793381154600,1.536154541015625,1.27690589427948,-0.40209338068962097,0.34765133261680603
1772785793391170600,1.546170654296875,1.4135940074920654,-0.1266794055700302,0.0077203973196446896
1772785793401185500,1.556185546875,1.579613208770752,-0.011780612170696259,-0.32763585448265076
1772785793411201500,1.566201416015625,1.7709977626800537,-0.08381938189268112,-0.7503519654273987
1772785793421217800,1.5762177734375,1.9363760948181152,-0.08181710541248322,-1.308179497718811
1772785793431232500,1.586232421875,1.9398638010025024,0.4217783808708191,-2.021483898162842
1772785793441248800,1.596248779296875,1.6573845148086548,1.3627843856811523,-2.719548225402832
1772785793451264500,1.606264404296875,1.187616229057312,2.2820498943328857,-3.196546792984009
1772785793461279700,1.61627978515625,0.7100211381912231,1.8427155017852783,-3.290087938308716
1772785793471295500,1.62629541015625,0.6059908866882324,-0.06681784242391586,-3.1744425296783447
1772785793481311500,1.6363115234375,0.46398258209228516,-1.2200461626052856,-3.130560874938965
1772785793491326500,1.646326416015625,-0.8634567856788635,0.12222065776586533,-4.891549587249756
1772785793501342500,1.656342529296875,-1.4463227987289429,3.0165514945983887,-5.90812873840332
1772785793511358500,1.6663583984375,-1.8559337854385376,3.3988473415374756,-4.787205696105957
1772785793521373400,1.67637353515625,-2.2360641956329346,1.3519295454025269,-2.114459991455078
1772785793531389400,1.686389404296875,-2.014700174331665,-0.010387289337813854,0.40842288732528687
1772785793541405700,1.69640576171875,-1.1511235237121582,-0.3701189458370209,1.3749828338623047
1772785793551420400,1.70642041015625,-0.36373230814933777,0.5618404150009155,0.7838870286941528
1772785793561436700,1.716436767578125,0.015028395690023899,2.008955240249634,-0.024018052965402603
1772785793571452700,1.72645263671875,-0.1001937985420227,3.1237680912017822,-0.17543925344944
1772785793581467600,1.736467529296875,-0.8425445556640625,4.038229465484619,0.07901044934988022
1772785793591483600,1.746483642578125,-1.6381670236587524,4.0705037117004395,0.863799512386322
1772785793601499600,1.756499755859375,-1.9715473651885986,3.5660600662231445,1.9401774406433105
1772785793611514600,1.7665146484375,-2.190000057220459,2.914529800415039,2.7549691200256348
1772785793621530600,1.776530517578125,-2.358856201171875,1.545728087425232,3.3480329513549805
1772785793631546600,1.786546630859375,-2.214600086212158,-0.06500603258609772,3.6532633304595947
1772785793641561600,1.7965615234375,-1.7403080463409424,-0.8688956499099731,3.5241241455078125
1772785793651577600,1.80657763671875,-0.9097192883491516,-0.4181705713272095,3.0141348838806152
1772785793661593600,1.816593505859375,0.021534930914640427,0.6413357853889465,2.368338108062744
1772785793671608600,1.826608642578125,0.6827812790870667,1.1201280355453491,2.160961627960205
1772785793681624600,1.83662451171875,1.1311012506484985,0.9099356532096863,2.473111152648926
1772785793691640600,1.846640625,1.4322229623794556,0.40444129705429077,2.9273555278778076
1772785793701655600,1.856655517578125,1.6516979932785034,-0.05694364011287689,3.1416220664978027
1772785793711671600,1.866671630859375,1.7921006679534912,-0.05446423590183258,3.0724680423736572
1772785793721686500,1.8766865234375,2.0075206756591797,0.433058500289917,2.7543680667877197
1772785793731702500,1.88670263671875,1.9535046815872192,0.7676580548286438,2.1776435375213623
1772785793741718500,1.896718505859375,1.7773654460906982,0.8239595293998718,1.482801914215088
1772785793751733500,1.9067333984375,1.5817184448242188,0.6150659918785095,0.6734775900840759
1772785793761749500,1.91674951171875,1.3461990356445312,0.19352412223815918,-0.1670500785112381
1772785793771765500,1.926765625,1.0669190883636475,-0.43518534302711487,-0.8746916651725769
1772785793781780500,1.936780517578125,0.7896192073822021,-0.9203248620033264,-1.2587867975234985
1772785793791796500,1.94679638671875,0.6750361919403076,-0.9501256346702576,-1.1243816614151
1772785793801812700,1.956812744140625,0.4956705570220947,-1.2314854860305786,-0.9134407639503479
1772785793811827700,1.96682763671875,0.32346096634864807,-1.5184078216552734,-0.6957350969314575
1772785793821843700,1.97684375,0.23818723857402802,-1.8177632093429565,-0.5997333526611328
1772785793831859700,1.986859619140625,0.15801596641540527,-1.947269082069397,-0.5651111602783203
1772785793841874700,1.996874755859375,0.0295877642929554,-1.8523712158203125,-0.6120896935462952
1772785793851890700,2.006890625,-0.13862255215644836,-1.4935837984085083,-0.6615832448005676
1772785793861906400,2.016906494140625,-0.30561363697052,-1.0471391677856445,-0.6940967440605164
1772785793871921700,2.026921630859375,-0.4218779504299164,-0.5426257252693176,-0.7262312173843384
1772785793881937400,2.0369375,-0.46826252341270447,-0.07448263466358185,-0.7373067736625671
1772785793891953400,2.046953369140625,-0.4664720892906189,0.16300129890441895,-0.6906420588493347
1772785793901968400,2.056968505859375,-0.4536552131175995,0.12170697003602982,-0.5638682842254639
1772785793911984400,2.066984375,-0.42409276962280273,-0.11523926258087158,-0.41652119159698486
1772785793922000600,2.077000732421875,-0.3500732481479645,-0.42664289474487305,-0.2708320617675781
1772785793932015600,2.087015625,-0.20059004426002502,-0.6552377343177795,-0.18224386870861053
1772785793942031600,2.097031494140625,0.008913393132388592,-0.7136754989624023,-0.18693430721759796
1772785793952047600,2.107047607421875,0.2169709950685501,-0.6376164555549622,-0.24444739520549774
1772785793962062600,2.1170625,0.3772870600223541,-0.5654916763305664,-0.3449361324310303
1772785793972078600,2.12707861328125,0.5537092089653015,-0.491229385137558,-0.47025811672210693
1772785793982094600,2.137094482421875,0.7916433215141296,-0.4057929515838623,-0.6452307105064392
1772785793992109600,2.147109619140625,1.0452934503555298,-0.4092542827129364,-0.8506709933280945
1772785794002125600,2.15712548828125,1.1836097240447998,-0.660261869430542,-1.0228068828582764
1772785794012141600,2.1671416015625,1.075045108795166,-1.1872947216033936,-1.2020505666732788
1772785794022156500,2.177156494140625,0.8351057171821594,-1.7808971405029297,-1.4255223274230957
1772785794032172800,2.1871728515625,0.7023479342460632,-2.6984634399414062,-1.6521426439285278
1772785794042188500,2.1971884765625,0.7457971572875977,-3.002075433731079,-1.587791919708252
1772785794052203800,2.207203857421875,0.5315061211585999,-2.097083568572998,-1.3742908239364624
1772785794062219500,2.217219482421875,-0.330088347196579,-0.9615023136138916,-1.566084623336792
1772785794072235500,2.227235595703125,-1.075089931488037,1.7047497034072876,-1.7658758163452148
1772785794082250500,2.23725048828125,-1.3272970914840698,2.845154047012329,-1.2975225448608398
1772785794092266500,2.2472666015625,-1.1530520915985107,1.903719186782837,-0.38077226281166077
1772785794102282500,2.257282470703125,-0.5128801465034485,0.5359592437744141,0.21436087787151337
1772785794112297500,2.26729736328125,0.3769005835056305,-0.4557923376560211,0.09177611023187637
1772785794122313500,2.2773134765625,0.8519613742828369,-0.5075923800468445,-0.5905160903930664
1772785794132329500,2.28732958984375,0.6318974494934082,1.1424531936645508,-1.1754118204116821
1772785794142344400,2.297344482421875,-0.16023224592208862,2.3570501804351807,-1.061514973640442
1772785794152360700,2.307360595703125,-0.7508430480957031,1.9583536386489868,-0.615486741065979
1772785794162376200,2.317376220703125,-0.8465516567230225,1.5114604234695435,0.09362424165010452
1772785794172391200,2.32739111328125,-0.9756249189376831,1.4462305307388306,0.6979324817657471
1772785794182407200,2.3374072265625,-1.0884798765182495,1.4811973571777344,1.1155380010604858
1772785794192423200,2.347423095703125,-1.0216693878173828,1.3210591077804565,1.416177749633789
1772785794202438100,2.357438232421875,-0.8095527291297913,0.8677843809127808,1.767526626586914
1772785794212454100,2.3674541015625,-0.5328079462051392,0.20076052844524384,2.3215630054473877
1772785794222469000,2.37746923828125,-0.09693702310323715,-0.41108444333076477,3.022104024887085
1772785794232485400,2.3874853515625,0.2851884961128235,-0.6088060736656189,3.572948694229126
1772785794242501400,2.39750146484375,0.48399391770362854,-0.30745941400527954,3.7489616870880127
1772785794252516400,2.407516357421875,0.5217248201370239,0.4569226801395416,3.551788568496704
1772785794262532400,2.417532470703125,0.4473283886909485,1.1980754137039185,3.089498519897461
1772785794272548000,2.427548095703125,0.30022817850112915,1.5729765892028809,2.6037139892578125
1772785794282563300,2.437563232421875,0.07553336024284363,1.6125082969665527,2.256844997406006
1772785794292579000,2.4475791015625,-0.2734017074108124,1.541751503944397,2.1392905712127686
1772785794302595000,2.457594970703125,-0.6537867188453674,1.4450560808181763,2.1513736248016357
1772785794312610000,2.467610107421875,-0.8976513147354126,1.3831024169921875,1.9574649333953857
1772785794322626000,2.4776259765625,-0.9712598323822021,1.4123269319534302,1.5033491849899292
1772785794332642000,2.48764208984375,-0.817288339138031,1.2361663579940796,0.8691405653953552
1772785794342657000,2.497656982421875,-0.5091865062713623,0.7826626300811768,0.23667269945144653
1772785794352673300,2.50767333984375,-0.23438504338264465,0.22033216059207916,-0.22143734991550446
1772785794362689300,2.517689208984375,-0.14120550453662872,-0.31519660353660583,-0.40718623995780945
1772785794372704300,2.527704345703125,-0.12732776999473572,-0.8116843700408936,-0.420406699180603
1772785794382720300,2.53772021484375,-0.07892332226037979,-1.1924842596054077,-0.3689318299293518
1772785794392736300,2.547736328125,0.06393902748823166,-1.4907127618789673,-0.33997902274131775
1772785794402751200,2.557751220703125,0.3170495331287384,-1.687029480934143,-0.36667296290397644
1772785794412767200,2.567767333984375,0.5887423157691956,-1.8300098180770874,-0.39904847741127014
1772785794422783200,2.577783203125,0.8216397762298584,-1.857712984085083,-0.41829538345336914
1772785794432798200,2.587798095703125,0.969669759273529,-1.7352869510650635,-0.4437309503555298
1772785794442814200,2.597814208984375,1.0147264003753662,-1.5802875757217407,-0.5026562809944153
1772785794452830000,2.607829833984375,0.9895893335342407,-1.3472812175750732,-0.6157599687576294
1772785794462845200,2.61784521484375,0.9514474868774414,-1.028380036354065,-0.7661769986152649
1772785794472861200,2.627861083984375,0.8867976665496826,-0.6522535085678101,-0.857473611831665
1772785794482877200,2.637877197265625,0.675782322883606,-0.2344776690006256,-0.7935277223587036
1772785794492892200,2.64789208984375,0.303095281124115,0.18416060507297516,-0.5949839949607849
1772785794502908200,2.657908203125,-0.1471651792526245,0.4999173581600189,-0.3720589578151703
1772785794512924200,2.667924072265625,-0.500100314617157,0.6461105346679688,-0.2547163665294647
1772785794522939100,2.677939208984375,-0.6701058745384216,0.738685131072998,-0.2819398045539856
1772785794532955100,2.687955078125,-0.6393705606460571,0.7635145783424377,-0.46434131264686584
1772785794542971100,2.69797119140625,-0.5202321410179138,0.8174160122871399,-0.7253060936927795
1772785794552986000,2.707986083984375,-0.3765668272972107,1.0178077220916748,-1.0176719427108765
1772785794563002000,2.718002197265625,-0.28804242610931396,1.6252095699310303,-1.392683506011963
1772785794573018000,2.72801806640625,-0.4709869623184204,2.2067501544952393,-1.758885383605957
1772785794583033000,2.738033203125,-0.8053611516952515,2.1539297103881836,-2.0775835514068604
1772785794593049300,2.74804931640625,-1.0597057342529297,1.538818597793579,-2.4345614910125732
1772785794603065300,2.7580654296875,-1.2402111291885376,0.5890633463859558,-2.623084306716919
1772785794613080300,2.768080322265625,-1.5750964879989624,0.12551751732826233,-2.652679443359375
1772785794623096300,2.778096435546875,-1.7909305095672607,0.5137096047401428,-2.512230396270752
1772785794633112300,2.7881123046875,-1.643958568572998,1.167338490486145,-2.2071588039398193
1772785794643127300,2.798127197265625,-1.3664101362228394,0.785154402256012,-1.7087595462799072
1772785794653143000,2.80814306640625,-1.6710145473480225,0.45699653029441833,-1.70747971534729
1772785794663159000,2.818158935546875,-1.5551763772964478,0.8087459802627563,-1.8172250986099243
1772785794673174000,2.828174072265625,-0.9759020805358887,0.39513155817985535,-0.984453558921814
1772785794683190000,2.83818994140625,-0.7805384397506714,-0.18640774488449097,-0.23730510473251343
1772785794693206000,2.8482060546875,-0.5212070345878601,-0.4176452159881592,-0.1935027688741684
1772785794703221000,2.858220947265625,-0.03340411186218262,-0.44694188237190247,-0.687118649482727
1772785794713237200,2.8682373046875,0.48118969798088074,-0.30123206973075867,-1.4149281978607178
1772785794723253200,2.878253173828125,1.0077935457229614,0.2451115995645523,-1.857923150062561
1772785794733268200,2.888268310546875,1.0447529554367065,1.301226019859314,-1.7068084478378296
1772785794743284200,2.8982841796875,0.2969162166118622,2.3040192127227783,-0.7465841174125671
1772785794753300200,2.90830029296875,-0.49674704670906067,2.490980386734009,0.5794786214828491
1772785794763315200,2.918315185546875,-0.9300355315208435,2.0595028400421143,1.7021896839141846
1772785794773331200,2.928331298828125,-0.9995951652526855,1.6472735404968262,2.261559247970581
1772785794783346200,2.93834619140625,-0.8724849820137024,1.0279605388641357,2.502607583999634
1772785794793362200,2.948362060546875,-0.4682382047176361,0.2745589315891266,2.823141098022461
1772785794803378200,2.958378173828125,0.06938354671001434,-0.23282885551452637,3.2799291610717773
1772785794813393200,2.96839306640625,0.5852943062782288,-0.44220417737960815,3.7647275924682617
1772785794823409200,2.9784091796875,1.0093392133712769,-0.39132028818130493,4.024234771728516
1772785794833425400,2.98842529296875,1.2519670724868774,-0.0046263569965958595,3.9539337158203125
1772785794843440400,2.9984404296875,1.426061749458313,0.3462758958339691,3.6776034832000732
1772785794853456400,3.008456298828125,1.7812498807907104,0.5972588658332825,3.339740037918091
1772785794863472000,3.01847216796875,2.149994373321533,0.6281841397285461,3.140571117401123
1772785794873487400,3.0284873046875,2.379925012588501,0.547059953212738,3.0435893535614014
1772785794883503000,3.038503173828125,2.486924171447754,0.4207615852355957,2.787304162979126
1772785794893519000,3.04851904296875,2.481842041015625,0.5094714760780334,2.2002594470977783
1772785794903534000,3.0585341796875,2.357912302017212,0.6840612292289734,1.4482786655426025
1772785794913550000,3.068550048828125,2.229243278503418,1.0947754383087158,0.7098732590675354
1772785794923566000,3.078566162109375,2.0400383472442627,1.0525295734405518,-0.016160624101758003
1772785794933581000,3.0885810546875,1.8577512502670288,0.6830615401268005,-0.46782365441322327
1772785794943597000,3.09859716796875,1.6004904508590698,0.1855970025062561,-0.8056222796440125
1772785794953613300,3.10861328125,1.285109519958496,-0.31654760241508484,-1.0814461708068848
1772785794963628300,3.118628173828125,1.0131126642227173,-0.680218517780304,-1.3300113677978516
1772785794973644300,3.128644287109375,0.8372436165809631,-0.9328196048736572,-1.6058759689331055
1772785794983660300,3.138660400390625,0.711229145526886,-1.0260865688323975,-1.8402736186981201
1772785794993675300,3.14867529296875,0.6353370547294617,-0.9554883241653442,-2.102811574935913
1772785795003691300,3.158691162109375,0.6251057982444763,-0.9205859303474426,-2.2326486110687256
1772785795013707300,3.168707275390625,0.7396504878997803,-0.9082980751991272,-2.228015422821045
1772785795023722200,3.17872216796875,0.776883065700531,-0.8279632329940796,-2.1067163944244385
1772785795033738200,3.18873828125,0.7112723588943481,-0.6798757910728455,-1.8447922468185425
1772785795043754000,3.19875390625,0.5746925473213196,-0.4120890498161316,-1.4410892724990845
1772785795053769200,3.208769287109375,0.3441333472728729,-0.1850455403327942,-1.0272324085235596
1772785795063785000,3.218784912109375,0.1036316528916359,-0.0836518183350563,-0.6226967573165894
1772785795073801200,3.22880126953125,-0.05430365353822708,-0.2581269443035126,-0.24199151992797852
1772785795083816200,3.238816162109375,-0.08574485778808594,-0.6049715280532837,0.09125836193561554
1772785795093832200,3.248832275390625,-0.03652751073241234,-0.973090410232544,0.29083219170570374
1772785795103848200,3.25884814453125,0.06114937737584114,-1.1979888677597046,0.32601189613342285
1772785795113863200,3.26886328125,0.14879295229911804,-1.2110296487808228,0.23694753646850586
1772785795123879200,3.278879150390625,0.2134208083152771,-1.114726185798645,0.01334937009960413
1772785795133895200,3.288895263671875,0.1938367336988449,-0.8366606831550598,-0.10588301718235016
1772785795143910100,3.29891015625,0.2284877747297287,-0.764299213886261,-0.17293141782283783
1772785795153926100,3.308926025390625,0.2326369732618332,-0.8591597080230713,-0.1938830465078354
1772785795163942700,3.318942626953125,0.3176533579826355,-0.941926121711731,-0.4331881105899811
1772785795173957600,3.32895751953125,0.3012509346008301,-0.7925243973731995,-0.8595445156097412
1772785795183973600,3.3389736328125,0.0801079049706459,-0.39892733097076416,-1.5062204599380493
1772785795193989600,3.34898974609375,-0.24480760097503662,0.07502640783786774,-2.294382095336914
1772785795204004600,3.359004638671875,-0.4889685809612274,0.5695124268531799,-3.037353515625
1772785795214020600,3.3690205078125,-0.4114990830421448,0.9211700558662415,-3.516885757446289
1772785795224036400,3.379036376953125,-0.09860702604055405,1.048844814300537,-3.5871939659118652
1772785795234051600,3.389051513671875,-0.5486606955528259,1.4110842943191528,-4.134668350219727
1772785795244067300,3.3990673828125,-0.4431557059288025,3.0836172103881836,-4.3912553787231445
1772785795254083300,3.409083251953125,-0.008175484836101532,2.3931150436401367,-3.282259464263916
1772785795264098300,3.419098388671875,0.333717942237854,1.0742599964141846,-1.4187791347503662
1772785795274114300,3.4291142578125,0.37225043773651123,-0.44453269243240356,0.16931572556495667
1772785795284130600,3.439130615234375,0.5684683918952942,-1.3737622499465942,1.2281635999679565
1772785795294145500,3.4491455078125,0.5617494583129883,-1.2244473695755005,1.42635178565979
1772785795304161500,3.45916162109375,0.20581620931625366,-0.7373478412628174,0.8991166949272156
1772785795314177500,3.469177490234375,-0.33420252799987793,-0.28638675808906555,0.3185398280620575
1772785795324192500,3.479192626953125,-1.0311503410339355,0.3120913505554199,0.032762449234724045
1772785795334208500,3.48920849609375,-1.7344107627868652,1.0488783121109009,0.02750004269182682
1772785795344224500,3.499224609375,-2.291696548461914,1.5414211750030518,0.23154371976852417
1772785795354239500,3.509239501953125,-2.6654815673828125,1.4575742483139038,0.5771056413650513
1772785795364255500,3.51925537109375,-2.7796196937561035,1.212580680847168,0.9298431873321533
1772785795374271500,3.529271484375,-2.677269697189331,0.8866708278656006,1.193105936050415
1772785795384286500,3.539286376953125,-2.393026351928711,0.34343305230140686,1.464239239692688
1772785795394302500,3.549302490234375,-1.8844131231307983,-0.13339954614639282,1.808367371559143
1772785795404318500,3.559318359375,-1.1866191625595093,-0.45991888642311096,2.193509340286255
1772785795414333700,3.569333740234375,-0.4732629954814911,-0.8353857398033142,2.540264368057251
1772785795424349400,3.579349365234375,0.010046691633760929,-1.0179749727249146,2.7832915782928467
1772785795434365400,3.589365478515625,0.052291352301836014,-0.6712120175361633,2.8071959018707275
1772785795444380400,3.59938037109375,0.004934452474117279,0.08029492944478989,2.641901731491089
1772785795454396400,3.609396484375,0.0501709058880806,0.8324635028839111,2.4446139335632324
1772785795464412400,3.619412353515625,0.19354701042175293,1.2201716899871826,2.2927441596984863
1772785795474427400,3.629427490234375,0.28628093004226685,1.3303333520889282,2.0747742652893066
1772785795484443400,3.639443359375,0.31892096996307373,1.2263094186782837,1.6951992511749268
1772785795494459400,3.64945947265625,0.3090169429779053,1.0474491119384766,1.1777187585830688
1772785795504474400,3.659474365234375,0.30806681513786316,0.9760961532592773,0.5649899840354919
1772785795514490400,3.669490478515625,0.305687814950943,0.9924527406692505,0.001799840829335153
1772785795524506600,3.679506591796875,0.30002129077911377,0.8596535921096802,-0.40307149291038513
1772785795534521600,3.689521484375,0.34157034754753113,0.4927067756652832,-0.5690231919288635
1772785795544537600,3.69953759765625,0.43060800433158875,-0.005115915089845657,-0.574245810508728
1772785795554553600,3.7095537109375,0.48820018768310547,-0.5716829299926758,-0.5388057827949524
1772785795564568600,3.719568603515625,0.4904463291168213,-0.992455780506134,-0.5581385493278503
1772785795574584600,3.72958447265625,0.4980557858943939,-1.2940291166305542,-0.612119734287262
1772785795584599600,3.739599609375,0.605139970779419,-1.554117202758789,-0.6066455245018005
1772785795594615600,3.749615478515625,0.6890402436256409,-1.9331231117248535,-0.6012076139450073
1772785795604631300,3.75963134765625,0.6873986124992371,-2.192514419555664,-0.5092588663101196
1772785795614647300,3.769647216796875,0.6745970249176025,-2.106160879135132,-0.3725891709327698
1772785795624662300,3.779662353515625,0.6231296062469482,-1.7129473686218262,-0.24267883598804474
1772785795634678300,3.78967822265625,0.5255878567695618,-1.2359765768051147,-0.18870028853416443
1772785795644693200,3.799693359375,0.4417850375175476,-0.8528411388397217,-0.22707422077655792
1772785795654709500,3.80970947265625,0.4377266466617584,-0.6211743354797363,-0.34232625365257263
1772785795664725500,3.8197255859375,0.5036855340003967,-0.4613334834575653,-0.4876256287097931
1772785795674741500,3.829741455078125,0.6456948518753052,-0.3466992974281311,-0.6329031586647034
1772785795684756500,3.839756591796875,0.8203220367431641,-0.2950158715248108,-0.6977834701538086
1772785795694772500,3.8497724609375,0.9253094792366028,-0.34704872965812683,-0.6110700964927673
1772785795704787500,3.859787353515625,0.9012237191200256,-0.41260793805122375,-0.44109395146369934
1772785795714803500,3.869803466796875,0.8159130811691284,-0.41442129015922546,-0.2913438677787781
1772785795724819500,3.8798193359375,0.7561365962028503,-0.35980215668678284,-0.26421263813972473
1772785795734834400,3.88983447265625,0.7552465796470642,-0.2101426124572754,-0.3366178572177887
1772785795744850400,3.899850341796875,0.8463893532752991,-0.10686696320772171,-0.4698649048805237
1772785795754866400,3.909866455078125,1.0105870962142944,-0.057675186544656754,-0.628980278968811
1772785795764881400,3.91988134765625,1.153114914894104,-0.03766960650682449,-0.8017026782035828
1772785795774897700,3.929897705078125,1.2095608711242676,-0.11830746382474899,-0.9178969264030457
1772785795784913700,3.93991357421875,0.9618097543716431,-0.1770414561033249,-0.9295454621315002
1772785795794928600,3.9499287109375,0.3758903443813324,-0.26295557618141174,-1.0066038370132446
1772785795804944600,3.959944580078125,-0.2645856738090515,-0.7920459508895874,-1.4906214475631714
1772785795814960400,3.96996044921875,-0.7659710049629211,-0.86723393201828,-2.170314311981201
1772785795824975600,3.9799755859375,-0.8672096133232117,-0.66023188829422,-3.1447198390960693
1772785795834991400,3.989991455078125,-0.8521052598953247,0.2607584297657013,-3.6539790630340576
1772785795845007400,4.00000732421875,-0.7767564058303833,0.8788983225822449,-3.489525318145752
1772785795855022300,4.010022216796875,-0.9726638793945312,1.261436104774475,-3.0033087730407715
1772785795865038300,4.020038330078125,-0.6132685542106628,0.9999620914459229,-2.1874680519104004
1772785795875054600,4.0300546875,-0.17714369297027588,-0.14885741472244263,-0.564380407333374
1772785795885069300,4.0400693359375,-0.3226231336593628,-1.0690025091171265,0.7010252475738525
1772785795895085600,4.05008544921875,-0.5348936319351196,-1.1460014581680298,1.0250605344772339
1772785795905101600,4.0601015625,-0.6995102763175964,-0.7818111181259155,0.6275826096534729
1772785795915116500,4.070116455078125,-0.7952828407287598,0.24977660179138184,-0.24044491350650787
1772785795925132500,4.080132568359375,-1.0366252660751343,1.6621941328048706,-0.8210664391517639
1772785795935148500,4.0901484375,-1.4331449270248413,2.5186421871185303,-0.7454281449317932
1772785795945163500,4.10016357421875,-1.9151469469070435,2.5282888412475586,-0.235925555229187
1772785795955179500,4.110179443359375,-2.2678534984588623,2.2775650024414062,0.28205713629722595
1772785795965195500,4.120195556640625,-2.493147850036621,2.288092613220215,0.6170955896377563
1772785795975210500,4.13021044921875,-2.5339949131011963,2.388566732406616,0.7445600628852844
1772785795985226500,4.1402265625,-2.4097697734832764,2.035460948944092,0.9627411961555481
1772785795995242500,4.150242431640625,-2.080423355102539,1.077056646347046,1.6242144107818604
1772785796005257500,4.160257568359375,-1.527336597442627,0.09806322306394577,2.5435712337493896
1772785796015273500,4.1702734375,-0.7786370515823364,-0.36835747957229614,3.1874947547912598
1772785796025289500,4.18028955078125,-0.04938893765211105,0.04272662475705147,3.2619943618774414
1772785796035304400,4.190304443359375,0.6105988025665283,0.8526221513748169,2.8171565532684326
1772785796045320400,4.200320556640625,1.153741717338562,1.371742844581604,2.2694003582000732
1772785796055336400,4.21033642578125,1.5119434595108032,1.2126280069351196,1.9082858562469482
1772785796065351400,4.220351318359375,1.7044709920883179,0.8004539012908936,1.7925595045089722
1772785796075367400,4.230367431640625,1.7637088298797607,0.7151501774787903,1.908674716949463
1772785796085383400,4.240383544921875,1.7507990598678589,0.7999735474586487,2.008876323699951
1772785796095398400,4.2503984375,1.745858073234558,1.0197504758834839,1.8819445371627808
1772785796105414400,4.260414306640625,1.719071865081787,1.198501467704773,1.4642634391784668
1772785796115430700,4.2704306640625,1.5831172466278076,1.2648946046829224,0.8778265118598938
1772785796125445400,4.2804453125,1.5103086233139038,1.031524658203125,0.2632800340652466
1772785796135461600,4.290461669921875,1.4430009126663208,0.7519321441650391,-0.21719364821910858
1772785796145477600,4.3004775390625,1.305571436882019,0.4783642292022705,-0.4975845515727997
1772785796155492600,4.31049267578125,1.1045643091201782,0.15807703137397766,-0.6079893708229065
1772785796165508900,4.3205087890625,0.944379448890686,-0.1834675818681717,-0.7686725854873657
1772785796175524900,4.33052490234375,0.858004629611969,-0.4784228205680847,-1.0229229927062988
1772785796185539800,4.340539794921875,0.8759734034538269,-0.8262633085250854,-1.2071318626403809
1772785796195555800,4.350555908203125,0.8581064939498901,-1.2578157186508179,-1.2382538318634033
1772785796205571800,4.36057177734375,0.7855061292648315,-1.595645546913147,-1.1463643312454224
1772785796215586800,4.3705869140625,0.6931477189064026,-1.6353583335876465,-1.0529707670211792
1772785796225602800,4.380602783203125,0.5956289172172546,-1.4027113914489746,-0.9740060567855835
1772785796235618800,4.390618896484375,0.4957995116710663,-1.1664272546768188,-0.8748437762260437
1772785796245633800,4.4006337890625,0.44210386276245117,-1.0025907754898071,-0.7280808091163635
1772785796255649800,4.41064990234375,0.42482393980026245,-0.9326497316360474,-0.5384682416915894
1772785796265665800,4.420665771484375,0.4239737093448639,-0.9497911334037781,-0.3223268389701843
1772785796275680800,4.4306806640625,0.4043307900428772,-0.9686356782913208,-0.08567088097333908
1772785796285696800,4.44069677734375,0.2589699625968933,-0.900040864944458,0.2036682814359665
1772785796295713000,4.450713134765625,0.04154043272137642,-0.7227585315704346,0.4704491198062897
1772785796305728000,4.46072802734375,-0.11148826032876968,-0.3950576186180115,0.5771899819374084
1772785796315744000,4.470743896484375,-0.17077422142028809,-0.09445808827877045,0.4818522334098816
1772785796325760000,4.480760009765625,-0.14069366455078125,0.13465043902397156,0.255810022354126
1772785796335775000,4.49077490234375,-0.08945471793413162,0.2678771913051605,-0.04049408435821533
1772785796345791000,4.500791015625,-0.06953530758619308,0.31516313552856445,-0.34612253308296204
1772785796355806700,4.510806640625,-0.10828004032373428,0.35558754205703735,-0.6292641758918762
1772785796365822000,4.520822021484375,-0.15796013176441193,0.49786508083343506,-0.9055293202400208
1772785796375837700,4.530837646484375,-0.17602860927581787,0.5641977787017822,-1.269762396812439
1772785796385853700,4.540853759765625,-0.12329068034887314,0.41418373584747314,-1.8038445711135864
1772785796395868700,4.55086865234375,-0.14579546451568604,0.30520692467689514,-2.471311569213867
1772785796405884700,4.560884765625,-0.3646221160888672,0.04437193274497986,-2.9340195655822754
1772785796415901000,4.57090087890625,-0.49684086441993713,-0.11002004146575928,-3.0322353839874268
1772785796425916000,4.580916015625,-0.6003137230873108,-0.04688718169927597,-2.7406704425811768
1772785796435932000,4.590931884765625,-0.7284983396530151,0.3681584894657135,-2.2639856338500977
1772785796445948000,4.600947998046875,-0.8931142687797546,0.6626340746879578,-1.9378902912139893
1772785796455963000,4.610962890625,-0.8025819659233093,0.817350447177887,-1.7113077640533447
1772785796465979000,4.620978759765625,-0.9165514707565308,1.24854576587677,-1.6450552940368652
1772785796475995000,4.630994873046875,-0.49002382159233093,1.308173418045044,-1.4164437055587769
1772785796486009900,4.641009765625,0.03526108339428902,0.20012538135051727,-0.7736998200416565
1772785796496025900,4.65102587890625,0.4814060628414154,-0.8891261219978333,-0.1506950706243515
1772785796506041900,4.661041748046875,0.5546383261680603,-1.3073618412017822,0.11966381222009659
1772785796516056800,4.671056884765625,0.1877843737602234,-0.9068415760993958,-0.008286426775157452
1772785796526072800,4.68107275390625,-0.5050348043441772,-0.39979246258735657,-0.3927517831325531
1772785796536088800,4.6910888671875,-1.0104620456695557,0.027533581480383873,-0.6513282060623169
1772785796546104000,4.70110400390625,-1.2811144590377808,0.30658233165740967,-0.6221626400947571
1772785796556119800,4.711119873046875,-1.3557114601135254,0.43598878383636475,-0.32547318935394287
1772785796566135800,4.7211357421875,-1.2749269008636475,0.5952374339103699,0.17052704095840454
1772785796576150800,4.73115087890625,-1.3020893335342407,0.780393123626709,0.7218527793884277
1772785796586166800,4.741166748046875,-1.3271479606628418,1.0727691650390625,1.1147819757461548
1772785796596182800,4.751182861328125,-1.285528302192688,1.1695683002471924,1.3756146430969238
1772785796606197800,4.76119775390625,-1.1649746894836426,0.920233428478241,1.6722235679626465
1772785796616213800,4.7712138671875,-0.9354772567749023,0.5018524527549744,2.06874942779541
1772785796626229800,4.781229736328125,-0.6625739336013794,0.19861464202404022,2.406566858291626
1772785796636244700,4.79124462890625,-0.3618263900279999,0.18829116225242615,2.5569818019866943
1772785796646260700,4.8012607421875,-0.024045735597610474,0.4929155707359314,2.606110095977783
1772785796656277000,4.811277099609375,0.3012503385543823,0.882149875164032,2.606539011001587
1772785796666292000,4.8212919921875,0.568177342414856,1.128883957862854,2.583728790283203
1772785796676308000,4.831307861328125,0.7704036831855774,1.1106191873550415,2.56640625
1772785796686324000,4.841323974609375,0.8561785221099854,0.9368685483932495,2.5239505767822266
1772785796696339000,4.8513388671875,1.0469119548797607,0.9986863732337952,2.4279720783233643
1772785796706355000,4.86135498046875,1.2528278827667236,1.2317575216293335,2.2765908241271973
1772785796716371000,4.871370849609375,1.2487199306488037,1.3769255876541138,2.2551629543304443
1772785796726386000,4.881385986328125,1.021079659461975,1.0301148891448975,2.373807191848755
1772785796736402000,4.89140185546875,0.6988757252693176,0.3764883577823639,2.434199333190918
1772785796746417700,4.901417724609375,0.39245814085006714,-0.24821341037750244,2.2795708179473877
1772785796756433000,4.911432861328125,0.17686673998832703,-0.6962193846702576,1.8365504741668701
1772785796766448600,4.92144873046875,0.11913816630840302,-0.9342435598373413,1.0996806621551514
1772785796776465000,4.93146484375,0.14946651458740234,-1.0315642356872559,0.17348167300224304
1772785796786479900,4.94147998046875,0.15794721245765686,-1.1889562606811523,-0.7512134313583374
1772785796796496000,4.951495849609375,0.08587540686130524,-1.4769196510314941,-1.4718406200408936
1772785796806511900,4.961511962890625,-0.02816014364361763,-1.8559110164642334,-1.9938639402389526
1772785796816526800,4.97152685546875,-0.00024062837474048138,-2.102186679840088,-1.9217110872268677
1772785796826542800,4.98154296875,0.19824959337711334,-2.15429949760437,-1.4033818244934082
1772785796836558800,4.991558837890625,0.1958029419183731,-2.4336676597595215,-0.9797937870025635
1772785796846573800,5.00157373046875,0.11064964532852173,-2.4441239833831787,-0.579441249370575
1772785796856589800,5.01158984375,0.05338422209024429,-2.202627420425415,-0.18232640624046326
1772785796866605800,5.021605712890625,0.062288798391819,-2.045677900314331,0.15978336334228516
1772785796876620800,5.031620849609375,0.12318011373281479,-2.0880420207977295,0.3850809633731842
1772785796886637000,5.041636962890625,0.1946251541376114,-2.152994155883789,0.45563700795173645
1772785796896653000,5.051653076171875,0.28482213616371155,-2.0307886600494385,0.37557253241539
1772785796906668000,5.06166796875,0.3361969292163849,-1.6140795946121216,0.19259010255336761
1772785796916684000,5.07168408203125,0.2911492884159088,-0.8280896544456482,-0.04703260585665703
1772785796926699800,5.08169970703125,0.1615051031112671,0.00017506559379398823,-0.2319592833518982
1772785796936715000,5.091715087890625,0.054107535630464554,0.5902140736579895,-0.2944604754447937
1772785796946730800,5.101730712890625,0.020016439259052277,0.7737544178962708,-0.27178436517715454
1772785796956746800,5.111746826171875,0.03964686766266823,0.6434416770935059,-0.2209656685590744
1772785796966761700,5.12176171875,0.08791003376245499,0.3290988504886627,-0.21197810769081116
1772785796976777700,5.13177783203125,0.21002209186553955,-0.004068733658641577,-0.2727285325527191
1772785796986793700,5.141793701171875,0.35296133160591125,-0.3371885120868683,-0.40986865758895874
1772785796996808700,5.15180859375,0.4209422469139099,-0.6097829937934875,-0.5966276526451111
1772785797006825000,5.161824951171875,0.37514427304267883,-0.7784431576728821,-0.84117591381073
1772785797016841000,5.171841064453125,0.3109807074069977,-0.8744090795516968,-1.2027132511138916
1772785797026856000,5.18185595703125,0.21718904376029968,-0.9261549115180969,-1.740818738937378
1772785797036872000,5.191871826171875,0.010967697948217392,-0.9254478812217712,-2.3224966526031494
1772785797046888000,5.201887939453125,-0.6746078133583069,-0.4511752128601074,-2.8032045364379883
1772785797056903000,5.21190283203125,-1.3691296577453613,0.7663674354553223,-3.342104434967041
1772785797066919000,5.2219189453125,-1.5880141258239746,2.148486852645874,-4.174276351928711
1772785797076935000,5.231934814453125,-1.633480429649353,3.7079761028289795,-4.616620063781738
1772785797086950000,5.241949951171875,-1.561795711517334,3.8107242584228516,-4.0182600021362305
1772785797096966000,5.2519658203125,-1.8454681634902954,3.0077595710754395,-2.67134165763855
1772785797106981600,5.261981689453125,-2.152421474456787,2.0417017936706543,-1.0151524543762207
1772785797116996900,5.271996826171875,-1.7906538248062134,1.2093654870986938,0.5536689162254333
1772785797127012900,5.282012939453125,-1.1385070085525513,1.3022277355194092,1.573551893234253
1772785797137028900,5.29202880859375,-0.4542788565158844,1.6673284769058228,1.934568166732788
1772785797147043800,5.3020439453125,0.2680076062679291,2.0231237411499023,1.8866890668869019
1772785797157059800,5.312059814453125,0.730033278465271,2.4236574172973633,1.5856634378433228
1772785797167075000,5.322074951171875,0.7189612984657288,2.1669769287109375,1.2088345289230347
1772785797177090000,5.332090087890625,0.4411730468273163,1.0621850490570068,0.977486789226532
1772785797187106000,5.34210595703125,0.04994498938322067,0.04344378039240837,0.9655426144599915
1772785797197122000,5.3521220703125,-0.3759152293205261,-0.580825686454773,1.0134142637252808
1772785797207137000,5.362136962890625,-0.7222444415092468,-1.053004264831543,0.9909130930900574
1772785797217153000,5.372153076171875,-0.8055307865142822,-1.2668111324310303,0.852034330368042
1772785797227169000,5.3821689453125,-0.6154174208641052,-1.1689794063568115,0.6800079345703125
1772785797237184000,5.39218408203125,-0.22281555831432343,-0.8213143944740295,0.547423243522644
1772785797247200000,5.402199951171875,0.21604007482528687,-0.47379210591316223,0.5913936495780945
1772785797257216000,5.412216064453125,0.5364502668380737,-0.23792310059070587,0.886105477809906
1772785797267231000,5.42223095703125,0.722855269908905,-0.10232280194759369,1.285122036933899
1772785797277247000,5.4322470703125,0.8572327494621277,-0.08048701286315918,1.6189225912094116
1772785797287263200,5.44226318359375,0.9728781580924988,-0.1490282565355301,1.806144118309021
1772785797297278200,5.4522783203125,1.061989188194275,-0.2651412785053253,1.8406316041946411
1772785797307294200,5.462294189453125,1.139640212059021,-0.4271237850189209,1.7652363777160645
1772785797317310200,5.472310302734375,1.2002891302108765,-0.6094256639480591,1.6438311338424683
1772785797327325200,5.4823251953125,1.1992149353027344,-0.7855396866798401,1.5254526138305664
1772785797337341200,5.492341064453125,1.1498889923095703,-0.886496365070343,1.434716820716858
1772785797347357000,5.50235693359375,1.0890965461730957,-0.9082905650138855,1.3502134084701538
1772785797357372200,5.5123720703125,1.0365257263183594,-0.9181708693504333,1.246930480003357
1772785797367388000,5.522387939453125,0.9995384216308594,-0.9354645609855652,1.1166462898254395
1772785797377404000,5.53240380859375,0.9662310481071472,-0.9550462365150452,0.9614620804786682
1772785797387419000,5.5424189453125,0.9088038206100464,-1.0349241495132446,0.7816554307937622
1772785797397435000,5.552434814453125,0.7890803217887878,-1.20017409324646,0.6144896149635315
1772785797407451100,5.562451171875,0.5738505721092224,-1.4029533863067627,0.5210842490196228
1772785797417466000,5.572466064453125,0.24872787296772003,-1.6358859539031982,0.48907071352005005
1772785797427482000,5.582482177734375,-0.14566972851753235,-1.8586500883102417,0.48321378231048584
1772785797437498000,5.592498046875,-0.5129262804985046,-2.051351308822632,0.4533006250858307
1772785797447513000,5.60251318359375,-0.7620519399642944,-2.108283042907715,0.3045864701271057
1772785797457529000,5.612529052734375,-0.8581238985061646,-1.913932204246521,-0.0030323374085128307
1772785797467545000,5.622545166015625,-0.8013632893562317,-1.515867829322815,-0.4489249587059021
1772785797477560000,5.63256005859375,-0.6395131349563599,-1.0595670938491821,-1.0027151107788086
1772785797487576000,5.642576171875,-0.45100346207618713,-0.5775611400604248,-1.4924190044403076
1772785797497592000,5.652592041015625,-0.2823048532009125,-0.1544858068227768,-1.8357478380203247
1772785797507607000,5.66260693359375,-0.1832805722951889,0.11155582964420319,-1.9795663356781006
1772785797517623000,5.672623046875,-0.23214185237884521,0.36460354924201965,-1.947400689125061
1772785797527639000,5.68263916015625,-0.41688865423202515,0.6676017045974731,-1.8224369287490845
1772785797537654300,5.692654296875,-0.6630249619483948,0.7450094223022461,-1.6212133169174194
1772785797547670000,5.702669921875,-0.8938553333282471,0.2461729198694229,-1.230280876159668
1772785797557686000,5.71268603515625,-1.1016145944595337,-0.4494412839412689,-0.6248939633369446
1772785797567701000,5.722700927734375,-1.3310832977294922,-0.9271491169929504,0.09069223701953888
1772785797577717000,5.732717041015625,-1.4864270687103271,-0.9193628430366516,0.6546171307563782
1772785797587733000,5.74273291015625,-1.4735350608825684,-0.37803059816360474,0.8385792374610901
1772785797597748000,5.752748046875,-1.3110393285751343,0.4642103314399719,0.6904308199882507
1772785797607764000,5.762763916015625,-1.1685847043991089,1.1521028280258179,0.4157583713531494
1772785797617780000,5.772780029296875,-1.0543937683105469,1.5299190282821655,0.15429213643074036
1772785797627795000,5.782794921875,-0.9957171678543091,1.5936837196350098,0.04493527486920357
1772785797637811000,5.79281103515625,-0.970098614692688,1.4495207071304321,0.05024854838848114
1772785797647827200,5.8028271484375,-0.9536746144294739,1.175041675567627,0.11140669137239456
1772785797657842200,5.81284228515625,-0.9011262059211731,0.6899319291114807,0.20236216485500336
1772785797667858200,5.822858154296875,-0.7990803122520447,0.05577247962355614,0.3067145049571991
1772785797677874200,5.832874267578125,-0.6894153356552124,-0.6511915922164917,0.515740692615509
1772785797687889200,5.84288916015625,-0.6461887359619141,-1.245712399482727,0.9345546960830688
1772785797697905200,5.8529052734375,-0.6452811360359192,-1.7630332708358765,1.4614932537078857
1772785797707921200,5.862921142578125,-0.6003588438034058,-2.0297727584838867,1.9078609943389893
1772785797717936000,5.87293603515625,-0.49530646204948425,-2.0259904861450195,2.080812692642212
1772785797727952100,5.8829521484375,-0.3621711730957031,-1.956520438194275,1.99691641330719
1772785797737967900,5.8929677734375,-0.22914893925189972,-2.0402610301971436,1.7182283401489258
1772785797747983000,5.902983154296875,-0.1530752331018448,-2.117739677429199,1.3881149291992188
1772785797757999000,5.9129990234375,-0.1626463681459427,-1.990693211555481,1.1266452074050903
1772785797768015000,5.92301513671875,-0.2183871567249298,-1.6731040477752686,0.9369931817054749
1772785797778030000,5.933030029296875,-0.2407238930463791,-1.2844966650009155,0.7650498747825623
1772785797788046000,5.943046142578125,-0.22170811891555786,-0.9528020620346069,0.5702329874038696
1772785797798062000,5.95306201171875,-0.15216685831546783,-0.791938841342926,0.31742656230926514
1772785797808077000,5.9630771484375,-0.08885293453931808,-0.8771791458129883,-0.049506694078445435
1772785797818093000,5.973093017578125,-0.05199504643678665,-0.8869867324829102,-0.4566097557544708
1772785797828109000,5.983109130859375,-0.08175401389598846,-0.5295127630233765,-0.8940227627754211
1772785797838124000,5.9931240234375,-0.2803853452205658,0.22581827640533447,-1.4384183883666992
1772785797848140000,6.00314013671875,-0.5303254723548889,1.1183711290359497,-2.0248708724975586
1772785797858156000,6.013156005859375,-0.768066942691803,1.9151049852371216,-2.4872078895568848
1772785797868171000,6.0231708984375,-0.8605190515518188,2.3626949787139893,-2.8675241470336914
1772785797878187300,6.033187255859375,-0.9339919686317444,2.2655868530273438,-3.1983838081359863
1772785797888203300,6.043203369140625,-1.1290544271469116,1.8260746002197266,-3.2673213481903076
1772785797898218200,6.05321826171875,-1.374825358390808,1.3431545495986938,-2.954517126083374
1772785797908234200,6.063234130859375,-1.5905665159225464,0.9131020307540894,-2.2780110836029053
1772785797918250000,6.07325,-1.7631720304489136,0.29314178228378296,-1.5615042448043823
1772785797928265200,6.08326513671875,-1.846663236618042,-0.439611554145813,-0.9314408302307129
1772785797938281000,6.093281005859375,-1.8338364362716675,-0.981156587600708,-0.43429845571517944
1772785797948297000,6.103296875,-1.7651450634002686,-1.2025882005691528,-0.11343776434659958
1772785797958312000,6.11331201171875,-1.6035101413726807,-1.0567537546157837,0.10414888709783554
1772785797968328000,6.123327880859375,-1.4201126098632812,-0.7145726084709167,0.298272043466568
1772785797978344000,6.133343994140625,-1.3087831735610962,-0.42520102858543396,0.4528578817844391
1772785797988359000,6.14335888671875,-1.235561490058899,-0.3123299479484558,0.5326910018920898
1772785797998375200,6.153375244140625,-1.18789803981781,-0.2901833653450012,0.5409308075904846
1772785798008391200,6.16339111328125,-1.1200525760650635,-0.3944466710090637,0.42834800481796265
1772785798018406100,6.17340625,-1.0296391248703003,-0.43666017055511475,0.2104409784078598
1772785798028422100,6.183422119140625,-0.8958727717399597,-0.23088982701301575,0.02457587607204914
1772785798038438100,6.193438232421875,-0.7240293622016907,0.04423414543271065,-0.0962328314781189
1772785798048453000,6.203453125,-0.5298624038696289,0.2487468421459198,-0.16895200312137604
1772785798058469000,6.21346923828125,-0.3558994233608246,0.33794888854026794,-0.19835889339447021
1772785798068485000,6.223485107421875,-0.2267148345708847,0.3732008934020996,-0.1553867608308792
1772785798078500000,6.2335,-0.12361295521259308,0.4138268828392029,-0.05337809771299362
1772785798088516000,6.24351611328125,-0.011896338313817978,0.4035387635231018,0.0030777808278799057
1772785798098531800,6.25353173828125,0.08523686975240707,0.4414113163948059,-0.08867503702640533
1772785798108547000,6.263547119140625,0.15041033923625946,0.6378072500228882,-0.30439212918281555
1772785798118563000,6.27356298828125,0.15909996628761292,0.8853568434715271,-0.5504370331764221
1772785798128579000,6.2835791015625,0.11410107463598251,0.9350839257240295,-0.8041854500770569
1772785798138594000,6.293593994140625,0.0514691136777401,0.8262024521827698,-1.0044645071029663
1772785798148610000,6.303610107421875,0.042111773043870926,0.608421802520752,-1.1373428106307983
1772785798158626000,6.3136259765625,0.13863351941108704,0.38622552156448364,-1.196342945098877
1772785798168641000,6.32364111328125,0.31408172845840454,0.21279697120189667,-1.1762409210205078
1772785798178657300,6.3336572265625,0.5354120135307312,0.24632669985294342,-1.0258983373641968
1772785798188673300,6.34367333984375,0.7486717104911804,0.27627667784690857,-0.7774630784988403
1772785798198688300,6.353688232421875,0.9217026233673096,0.2091069370508194,-0.543842077255249
1772785798208704300,6.363704345703125,1.0094021558761597,0.20564459264278412,-0.3565704822540283
1772785798218720300,6.37372021484375,1.0234394073486328,0.28344056010246277,-0.24774813652038574
1772785798228735200,6.3837353515625,0.9707159996032715,0.38498008251190186,-0.22865231335163116
1772785798238751200,6.393751220703125,0.8611413240432739,0.5070367455482483,-0.2750621736049652
1772785798248767200,6.403767333984375,0.6842246055603027,0.5750997066497803,-0.3383825421333313
1772785798258782200,6.4137822265625,0.44729751348495483,0.5697073340415955,-0.4010496735572815
1772785798268798200,6.423798095703125,0.21580956876277924,0.5882424712181091,-0.36498260498046875
1772785798278814000,6.43381396484375,0.026591964066028595,0.5039539933204651,-0.23155130445957184
1772785798288829200,6.4438291015625,-0.08203461766242981,0.3334500789642334,-0.01839464344084263
1772785798298845200,6.45384521484375,-0.10352153331041336,0.18561774492263794,0.23544587194919586
1772785798308861200,6.463861083984375,-0.07919340580701828,0.07317185401916504,0.4266144633293152
1772785798318876200,6.473876220703125,-0.06816525757312775,0.02564401738345623,0.49505582451820374
1772785798328892200,6.48389208984375,-0.08093100786209106,0.07675188779830933,0.4507492482662201
1772785798338908200,6.493908203125,-0.12475918233394623,0.11955181509256363,0.37346962094306946
1772785798348923100,6.503923095703125,-0.17075152695178986,0.07037835568189621,0.30425482988357544
1772785798358939100,6.513939208984375,-0.19347147643566132,-0.09882345795631409,0.2552769184112549
1772785798368955100,6.523955078125,-0.22781528532505035,-0.30078697204589844,0.1848032921552658
1772785798378970000,6.53397021484375,-0.16621263325214386,-0.4375948905944824,0.06794298440217972
