time,seconds_elapsed,z,y,x
1772733819683352300,0.069352294921875,-0.153238258600235,0.04918226545327343,0.021224725033459253
1772733819693367300,0.0793671875,-0.16536416520178318,0.05681870601531118,0.03451614545015618
1772733819703382300,0.08938232421875,-0.18264906200170516,0.0546651903763879,0.02850433781472966
1772733819713397200,0.099397216796875,-0.1528887145102024,0.06438951572892256,-0.00712543143313378
1772733819723412200,0.109412109375,-0.0985603274732828,0.05647521720672957,-0.013034299283893777
1772733819733427200,0.11942724609375,-0.033310733449459076,0.05193966526947915,-0.019073287187190726
1772733819743442200,0.129442138671875,0.03610767069160938,0.04715206566676497,-0.011084873116016388
1772733819753456000,0.1394560546875,0.10145429534912109,0.026308622435317373,0.006168167240917682
1772733819763471000,0.14947119140625,0.16108137331604958,0.01354319865410216,0.026120178057975132
1772733819773486000,0.159486083984375,0.2057142957687378,-0.0038996560533531006,0.021313344031828454
1772733819783501000,0.1695009765625,0.21306290496587751,-0.010504351548012346,0.009569495550426655
1772733819793516000,0.17951611328125,0.22397943577766416,-0.025164535000687462,-0.00925198599989526
1772733819803531300,0.18953125,0.22933891698420047,-0.024693118096655232,-0.016820854918169786
1772733819813546200,0.199546142578125,0.1990636057078838,-0.03330342235926073,-0.013308951506810262
1772733819823561200,0.209561279296875,0.15230711522996424,-0.03131319382353685,-0.0010844251026865094
1772733819833575200,0.2195751953125,0.10359130737781524,-0.0029770887151826173,0.018018028813484122
1772733819843590100,0.229590087890625,0.05008066646456718,-0.010696184325683861,0.030376022571278735
1772733819853605400,0.23960546875,0.012439210334420204,0.012802618553023785,0.013187530783959664
1772733819863620400,0.249620361328125,-0.03805120597481727,0.015187102536763995,0.007221904944395646
1772733819873635300,0.25963525390625,-0.058284431186318396,0.028360234902612864,-0.00686494473288767
1772733819883650000,0.269650146484375,-0.06980360406637191,0.0429712454513181,-0.0011346894186222926
1772733819893665000,0.2796650390625,-0.06153788002431392,0.030703564892057326,0.006092960279970429
1772733819903680000,0.289679931640625,-0.04292436496913433,0.032825817743036896,0.006568605834548361
1772733819913695000,0.299695068359375,-0.0032020109117031096,0.023355996874533592,0.007431930965883657
1772733819923709200,0.309709228515625,0.026942951983213424,0.013568524891603737,0.02739512989723589
1772733819933724200,0.31972412109375,0.05618190594911575,0.019122304827533663,0.0027207667334005234
1772733819943739100,0.3297392578125,0.10007014751434326,0.011866447381186298,-0.015303609622479416
1772733819953754000,0.339754150390625,0.12583704145550728,-0.0009319653541781008,-0.014460162801970726
1772733819963769000,0.34976904296875,0.13871756581664085,0.007853873571846633,-0.006560833520046435
1772733819973784300,0.359784423828125,0.1481400586783886,-0.009526126766158268,0.002210547622363083
1772733819983799300,0.36979931640625,0.15246025996506213,-0.013762243665684945,0.015038921671151183
1772733819993814300,0.379814208984375,0.11397124709486961,-0.0002809677992714569,0.019847413364844396
1772733820003829200,0.389829345703125,0.09956570512354374,-0.007033049575099721,0.011216043481323868
1772733820013843200,0.39984326171875,0.08246201010942458,-0.00531679284228012,-0.006652484725718386
1772733820023858200,0.409858154296875,0.05189443788826465,0.012085044868197291,-0.005894355268217623
1772733820033873200,0.419873046875,0.012206570622324943,0.011227724785963072,0.0008409763022093102
1772733820043888000,0.42988818359375,0.002759527841210365,0.0028091300034429876,0.0030127810830716042
1772733820053903000,0.439903076171875,-0.0137029466599226,0.01842097902460955,0.004383631044859066
1772733820063918000,0.44991796875,-0.011894435933232307,0.024616025139298288,0.01897643921659328
1772733820073933000,0.45993310546875,-0.01052139401435852,0.02670783718624152,0.017020957767264918
1772733820083948000,0.469947998046875,0.030661680245399472,0.02603152709356509,0.007708240856346674
1772733820093962200,0.479962158203125,0.05912848079502582,0.01976303215017542,-0.004546100730728358
1772733820103977200,0.489977294921875,0.06454699871242046,0.01980277963867411,-0.003771189101785421
1772733820113992200,0.4999921875,0.07519406493306159,0.001605873427214101,-0.018595184814045203
1772733820124007200,0.510007080078125,0.09959902287125587,0.0038920481356326487,-0.010640307686291635
1772733820134022100,0.520022216796875,0.11501578771173954,-0.00453739226788748,0.006490047005889937
1772733820144037000,0.530037109375,0.11007073252499103,0.0010643367293057962,0.012280946466210297
1772733820154052400,0.54005224609375,0.10122574729025363,-0.0044713915267027915,0.026337190942675805
1772733820164067300,0.5500673828125,0.09267477656602859,-0.020096903747040776,0.02443903830430936
1772733820174082300,0.560082275390625,0.06676233667433261,0.011857181795919313,0.0004122020966606214
1772733820184096000,0.570095947265625,0.049828737530112265,0.005257582601485774,-0.005120160591905005
1772733820194111200,0.580111328125,0.023323592442274093,0.01931848498675972,-0.007162918465887196
1772733820204126200,0.590126220703125,0.0179249482691288,0.016008931180508806,0.004660986681515351
1772733820214141200,0.60014111328125,0.033035423639416694,0.021313010671688244,0.011616550573613493
1772733820224156200,0.61015625,0.01613280415534973,0.018447081580245866,0.025824199919239618
1772733820234171100,0.620171142578125,0.020934651479125023,0.014479182596271857,0.008054702506726607
1772733820244186000,0.63018603515625,0.036814357656240464,0.0241531477347482,0.014533844526112078
1772733820254201000,0.640201171875,0.05090016615390777,0.01300234237620607,-0.006392870241729542
1772733820264216000,0.650216064453125,0.06752689130604267,0.006279938786011189,-0.015254144457564688
1772733820274230300,0.660230224609375,0.07951075908839703,-0.0030267091437242923,-0.0021528991509927437
1772733820284245200,0.670245361328125,0.08879413574039935,-0.009581437149969861,0.0007829899041214958
1772733820294260200,0.68026025390625,0.09073942458927631,-0.002990331789245829,0.018998696714174
1772733820304275200,0.690275146484375,0.10195523060858248,0.016227606299333272,0.01972717538550496
1772733820314290200,0.700290283203125,0.08099427564442158,0.001410962776467204,-0.008905985573818907
1772733820324305400,0.710305419921875,0.0748451053649187,0.0034927831523586064,0.008708663770277052
1772733820334320000,0.720320068359375,0.0562754294514656,0.010172425313061102,-0.005236475881375372
1772733820344335000,0.730335205078125,0.05237316131591797,0.00927825295231305,-0.016122383226035163
1772733820354349000,0.74034912109375,0.049970776349306106,-0.006841308128973469,0.015339598817890508
1772733820364364000,0.750364013671875,0.03156184395551681,0.013589823407959192,0.01396300410190597
1772733820374379300,0.760379150390625,0.043535774865746495,0.010803425826132296,0.0008574479463975876
1772733820384394200,0.770394287109375,0.05057575650513172,0.014492325205635278,0.021516944879107176
1772733820394409200,0.7804091796875,0.055524903345108026,0.016618678842997177,-0.0006055327116744593
1772733820404424200,0.790424072265625,0.04296703506708145,0.0004283723467495292,0.0045219709364697335
1772733820414439200,0.800439208984375,0.05375087940990925,0.009197862926172092,0.004548320087278262
1772733820424454100,0.8104541015625,0.0711158557087183,0.007963188298372552,0.004732261819439009
1772733820434468400,0.82046826171875,0.08773030590116977,0.01590144308488816,-0.000830852200416848
1772733820444483300,0.8304833984375,0.07530921574532985,0.005596322169713675,0.011248612310364841
1772733820454498300,0.840498291015625,0.07485504223704338,0.008481339554116129,0.006367046247306279
1772733820464513000,0.850512939453125,0.08023381266593933,0.01010604554596357,0.016047368061332962
1772733820474528000,0.860528076171875,0.06675766049921512,0.00962636313708499,0.0054304686500923705
1772733820484543000,0.87054296875,0.063007368054986,0.003946646133391186,0.0019284838445484636
1772733820494558200,0.88055810546875,0.04848492170572281,0.012388000736990944,-0.006949915036023594
1772733820504573200,0.8905732421875,0.037706338059902186,0.02366264253775589,-0.001405167789920233
1772733820514588200,0.900588134765625,0.037405309286713595,0.014854874907713382,0.000622246384457685
1772733820524602000,0.91060205078125,0.03127309014201164,-0.00008560505737550556,-0.005964844954852015
1772733820534617000,0.9206171875,0.06030979953408241,0.0009456833522766828,-0.0039233565893489865
1772733820544632300,0.93063232421875,0.039517771396040915,0.022615928230108693,-0.0048946401737630365
1772733820554647300,0.940647216796875,0.04925239894688129,0.015345946360286324,0.009593963271402753
1772733820564662300,0.950662353515625,0.07334989837110042,0.017682956206798554,0.0017891849717125295
1772733820574677200,0.96067724609375,0.07230594227612018,0.007208853666577488,0.0013015019194688648
1772733820584692200,0.970692138671875,0.07410217804312706,-0.006897677958710119,0.015336246950179338
1772733820594707200,0.980707275390625,0.07380114926993847,-0.013616684015421196,0.014091745048109441
1772733820604721200,0.99072119140625,0.05643851105868816,0.011324499691324309,-0.0008015073749236762
1772733820614736100,1.000736083984375,0.06526128446161747,0.00810585730522871,0.0038103840344352645
1772733820624751000,1.010751220703125,0.06031622927486896,0.006855583249498158,0.009321032648114487
1772733820634766000,1.02076611328125,0.05956161151528358,0.013472508038068189,0.0031496962025761603
1772733820644781000,1.030781005859375,0.05656359874308109,0.019153065291978418,0.010145286144386045
1772733820654796300,1.04079638671875,0.04219605069458485,0.009916450391151011,0.016129132627230137
1772733820664811300,1.050811279296875,0.041598669323325156,0.013860201314557343,0.003969145659566856
1772733820674826500,1.060826416015625,0.05297404981851577,0.02148979201070033,-0.006494567917380481
1772733820684841500,1.070841552734375,0.05716916342079639,0.006375279786111787,-0.005127544747339561
1772733820694855400,1.08085546875,0.047747839602828024,0.006591525485832243,0.0050256735417526215
1772733820704870400,1.090870361328125,0.05792728831171989,0.0026226949200965463,0.022325640046643093
1772733820714885400,1.100885498046875,0.05882862106561661,0.004778977904841304,-0.004393152358452789
1772733820724900600,1.110900634765625,0.08112579306960105,0.009566330912383273,0.0003572022401029244
1772733820734915600,1.12091552734375,0.07484042918980122,-0.004244925827067345,0.013204002428147942
1772733820744930600,1.1309306640625,0.06840367414057254,-0.004310428811330348,0.001326408031862229
1772733820754945300,1.1409453125,0.077377254191041,0.0071349116475321345,-0.005838921586819924
1772733820764960300,1.150960205078125,0.061361354413628576,0.014251584385475143,-0.0079713670382509
1772733820774974500,1.160974365234375,0.053874213528633114,0.011043518192321062,-0.0037235916669713333
1772733820784989400,1.170989501953125,0.046239188605546946,0.0005151829805225133,0.01634986270582303
1772733820795004400,1.18100439453125,0.04339432056844234,0.01306577213439159,-0.004324512135609984
1772733820805019400,1.191019287109375,0.05461772537231445,0.005589664100063964,0.015368021194776519
1772733820815034400,1.201034423828125,0.05566811120808124,0.011701114451372995,0.012995277881179936
1772733820825049300,1.21104931640625,0.05238076010048389,0.00377519855662249,0.009187469396321103
1772733820835064300,1.221064208984375,0.054928691017627713,0.009259155526198446,0.006178437473182566
1772733820845079300,1.231079345703125,0.05403378800451755,0.005100474077323451,0.01640569367944263
1772733820855093500,1.241093505859375,0.06047054305374622,0.009699346174905076,0.008203015803080051
1772733820865108500,1.2511083984375,0.0517921465575695,0.010372176535706967,-0.005726620318763889
1772733820875123500,1.26112353515625,0.0649590866446495,0.005164607088407502,-0.017434296941664068
1772733820885138200,1.27113818359375,0.06795008515417575,0.008993079335382207,-0.008595942377112805
1772733820895153400,1.2811533203125,0.06809680014848708,0.011030795708065852,-0.0049738383232383054
1772733820905168400,1.29116845703125,0.0674953271239996,0.007371743477554991,0.007323917713877744
1772733820915183400,1.301183349609375,0.05103168357908725,0.010286461880477145,0.018511890444764867
1772733820925198300,1.3111982421875,0.06150456227660179,0.008422083647549152,0.00640149193960242
1772733820935213300,1.32121337890625,0.05746376245319843,-0.004718744750740006,0.00031706202595960345
1772733820945227300,1.331227294921875,0.05417290421426296,0.007524066228745505,-0.0008360626650741323
1772733820955242500,1.341242431640625,0.05432546442747116,-0.006139553067786619,0.000608656250522472
1772733820965257500,1.351257568359375,0.053580199018120764,-0.0009322028161957859,-0.00037141799512319264
1772733820975272400,1.3612724609375,0.05523030431270599,0.006312361484579742,-0.003541124939266592
1772733820985287400,1.371287353515625,0.0588245294123888,0.010689681519661098,0.009959051990439184
1772733820995302400,1.381302490234375,0.06944821475744246,0.013674405552027747,0.008550472967303357
1772733821005317400,1.3913173828125,0.06795066967606544,-0.004058965667756274,0.011766037480323574
1772733821015332400,1.401332275390625,0.05537994191646576,0.007933624277170747,-0.003372138747642748
1772733821025346300,1.41134619140625,0.05986731646358966,0.019965112327225504,0.000229000150016509
1772733821035361300,1.421361328125,0.045349546289443966,-0.0015413111578673124,-0.00041491464355494827
1772733821045376300,1.431376220703125,0.06390110202431679,-0.007865180417150258,0.01597825748103205
1772733821055391200,1.44139111328125,0.05521978291869163,0.00546170860514976,0.011753246497409418
1772733821065406200,1.45140625,0.04773614916503429,0.005130248161079362,0.016548088691662997
1772733821075421400,1.46142138671875,0.05880933184325695,0.011677276918059214,0.012223261462221852
1772733821085436400,1.4714365234375,0.05237549940347671,0.011605855649663134,0.006082256222865544
1772733821095451400,1.481451416015625,0.05656769039630889,0.012448179092165081,0.014356898790318519
1772733821105465300,1.49146533203125,0.03861410055458545,0.0003774732765741646,-0.008685616254829802
1772733821115480300,1.501480224609375,0.05313128620684147,0.008745351652009412,-0.006170660592103376
1772733821125495600,1.51149560546875,0.06659867054522037,0.004954142675502225,-0.005098665712727234
1772733821135510500,1.521510498046875,0.06659925506711006,0.009096530576702207,-0.010260784016526303
1772733821145525500,1.531525390625,0.05821954925656318,0.005060306463716552,0.0072627621111692854
1772733821155540500,1.54154052734375,0.06240764859616756,0.003717760147806257,0.007474308802885935
1772733821165555500,1.551555419921875,0.064200961753726,0.01246949587482959,0.004765798762859776
1772733821175570400,1.5615703125,0.0471387677937746,0.0028404201908502724,0.003745721300388686
1772733821185585400,1.57158544921875,0.06225041220784187,0.00626398316505365,0.007446041689626872
1772733821195599400,1.581599365234375,0.05446691872477531,0.0049973698958754535,0.012090999684948473
1772733821205614300,1.5916142578125,0.05222177014648914,0.0037308388250879942,0.0035518244297942144
1772733821215629300,1.60162939453125,0.05461714085042476,-0.002802252738084644,0.01381802897353191
1772733821225644300,1.611644287109375,0.053720484271645545,0.0001529164062347263,-0.009956060882331802
1772733821235659300,1.6216591796875,0.052525137007236475,0.008569173101196065,0.0006413346774177625
1772733821245674500,1.631674560546875,0.056117608541250225,0.019692843857640398,-0.0016028823191067203
1772733821255689500,1.641689453125,0.0713818131685257,0.0055893079070374364,-0.0007526358650531619
1772733821265704400,1.651704345703125,0.07093290035724639,-0.004507239158218726,0.00665287745136302
1772733821275718400,1.661718505859375,0.06853869869709014,0.013297151471162214,0.020104347267979755
1772733821285733400,1.6717333984375,0.07916179952025414,0.0038879564824048428,0.016281373180029913
1772733821295748400,1.681748291015625,0.06015665479898452,0.008084567922027781,0.01044347450651694
1772733821305763600,1.691763671875,0.06120294898152351,0.006572345861326902,0.007928404679358937
1772733821315778600,1.701778564453125,0.05716156463623046,0.004748728897050023,-0.00716280886803288
1772733821325793500,1.71179345703125,0.050426118901371955,0.007134053131006657,-0.008508245827350765
1772733821335808300,1.721808349609375,0.04907996498942375,0.008530850384803489,0.0016383920239051804
1772733821345823200,1.7318232421875,0.05461655632853508,0.005186627123970538,-0.005661400462291203
1772733821355837400,1.74183740234375,0.05312018029093742,0.007931450586393475,0.009397582182777114
1772733821365852400,1.751852294921875,0.07003039855957031,0.016580100398277862,0.022389024139055982
1772733821375867400,1.761867431640625,0.0770633659362793,0.02160437656738795,0.013466667385748587
1772733821385882400,1.77188232421875,0.07077858657836913,0.002046456801565364,-0.008408260618173517
1772733821395897300,1.7818974609375,0.07227437809407711,0.0006512030508834868,-0.01156425869737286
1772733821405912300,1.791912353515625,0.06209902103841304,0.005898008530028164,-0.003049939322262071
1772733821415927300,1.80192724609375,0.06479249790608882,-0.00417144046574831,-0.010680379401776007
1772733821425942500,1.811942626953125,0.06748597477376461,-0.007508128874097019,0.009623856086167505
1772733821435956500,1.82195654296875,0.0776601627856493,0.0066885104537475855,0.008908204930368811
1772733821445971500,1.831971435546875,0.060899582120776174,0.017037370045948772,0.014293852624623104
1772733821455986400,1.841986328125,0.06538812571167946,0.014587099950155242,0.013088614153861998
1772733821466001200,1.852001220703125,0.04698270044922828,0.00029048911286517977,-0.014503047529049217
1772733821476016400,1.862016357421875,0.0623971272021532,0.003087472020788118,0.005372199124214239
1772733821486031400,1.87203125,0.05386895283162593,0.012024336790060625,0.0011931370410136878
1772733821496046300,1.88204638671875,0.049829906573891636,0.016191101080691443,0.007928313347813673
1772733821506061300,1.892061279296875,0.05222527727782726,0.013460963730746879,0.010021760229417122
1772733821516075300,1.9020751953125,0.06180266844034195,0.007721442831214517,-0.00027945626219734546
1772733821526090500,1.912090576171875,0.060008186239004134,-0.005218565765349194,0.00823842047660146
1772733821536105500,1.92210546875,0.06030804596841335,0.005482039007125422,-0.0011947307764785364
1772733821546120400,1.932120361328125,0.04863631287515163,0.00995301040872,0.008889737691916524
1772733821556135400,1.942135498046875,0.053422378107905386,0.008847515118541196,0.015127202742802909
1772733821566150400,1.952150390625,0.07062894897460938,0.008038235429115593,0.0014766073246253654
1772733821576165400,1.962165283203125,0.06464110673666,0.0035975495679304,-0.0018065607981989158
1772733821586180400,1.972180419921875,0.05132219095826149,-0.0029861853370908645,0.002124339776788838
1772733821596195600,1.982195556640625,0.047880526071786875,0.0042889841645024716,0.014164965547947212
1772733821606209300,1.992209228515625,0.042943069669604296,0.01775160099621862,0.005439770767977461
1772733821616224300,2.002224365234375,0.05805646764934062,0.004181560000963509,0.0077445177461253475
1772733821626239200,2.0122392578125,0.05820727429687977,0.0020195231288671492,0.001025794817204587
1772733821636254200,2.022254150390625,0.052371407750248906,0.020224594380473717,-0.0020660839506424964
1772733821646269400,2.03226953125,0.053419455498456954,0.0029302812982350585,-0.0041908895183121785
1772733821656284400,2.042284423828125,0.052821489605307574,-0.004696039728587493,-0.004987615686841309
1772733821666299400,2.05229931640625,0.053719899749755856,0.0048165517025627195,0.0004659096118528396
1772733821676314400,2.062314453125,0.05267068295776844,0.009231326804356649,-0.0110297727947589
1772733821686328300,2.072328369140625,0.0620966829508543,0.009572440992761402,0.002257578801596537
1772733821696343300,2.08234326171875,0.0561100097566843,0.017391106253908946,0.0066033940201392395
1772733821706358500,2.092358642578125,0.06284253288209438,0.015892784854397178,-0.004500740918773226
1772733821716373500,2.10237353515625,0.07526128495037555,0.015723529234714807,-0.01522479049891699
1772733821726388500,2.112388427734375,0.06388824254274368,0.00017798691540956495,0.0007010015759384259
1772733821736403500,2.122403564453125,0.06104454354941845,0.018853735285531727,0.01119732964769937
1772733821746418400,2.13241845703125,0.062242228901386254,0.008722052974812686,-0.002858622567821294
1772733821756433400,2.142433349609375,0.050122752040624614,0.002517097387462854,-0.0027965993154328316
1772733821766447600,2.152447509765625,0.0613473258882761,0.006315384558727964,-0.0038459531047381457
1772733821776462300,2.16246240234375,0.05326806432902813,0.010021636931831017,0.001824397848988883
1772733821786477300,2.172477294921875,0.0658387920886278,0.00539099058965221,-0.002186221465282142
1772733821796492300,2.1824921875,0.062248658642172806,0.0009407788482960313,0.006438170688180252
1772733821806507300,2.19250732421875,0.07496902400553226,0.004755323034618049,0.011861296282033435
1772733821816522200,2.202522216796875,0.06628828942179679,0.0029979579732753335,-0.0009077168289106339
1772733821826537500,2.212537353515625,0.05491466249227524,0.01181391804292798,0.0014494042238686233
1772733821836552400,2.222552490234375,0.05521276865601539,-0.010291494248621165,-0.010030062266881577
1772733821846566400,2.23256640625,0.057606385794281956,0.00501979179023765,-0.002682211121567525
1772733821856581400,2.242581298828125,0.04593348365724086,0.004557316244486719,0.00661754127650056
1772733821866596400,2.252596435546875,0.057903322914242744,0.011308489271439612,-0.00040767205201555043
1772733821876611600,2.262611572265625,0.061495209926366805,0.0017325868131127208,0.0026331021496793254
1772733821886626600,2.27262646484375,0.05536006817221641,-0.0038188276357948776,0.012983806639094837
1772733821896641500,2.2826416015625,0.057306526064872736,0.008522091689612717,0.004696003195969387
1772733821906656500,2.292656494140625,0.050424365335702895,0.011975958470534533,0.009485411163279786
1772733821916671500,2.30267138671875,0.03456511742472648,0.015022851885762065,-0.0035922295054187994
1772733821926685400,2.312685546875,0.05237316131591797,0.01286979290456511,0.012024683849932626
1772733821936700400,2.322700439453125,0.06509294215738773,0.017693541532894597,0.010279675946664065
1772733821946715400,2.33271533203125,0.06419511653482914,0.000014539982005953788,-0.014706068421015515
1772733821956730400,2.34273046875,0.0691331574589014,-0.014653762845043092,-0.012036735047330148
1772733821966745300,2.352745361328125,0.055066638183593745,0.00351052887160331,0.01152498156633228
1772733821976760300,2.36276025390625,0.058358080944418904,0.006866122909821569,0.0016673806563718243
1772733821986775300,2.372775390625,0.0653904637992382,0.018439464529370887,0.01516531539664138
1772733821996790500,2.38279052734375,0.06269581788778304,0.02606135597624816,0.01680075741163455
1772733822006804500,2.392804443359375,0.058953708750009534,0.010393840378243476,0.010046638942346907
1772733822016819500,2.4028193359375,0.05072305602133274,-0.005676219005510211,0.001217938122129999
1772733822026834400,2.41283447265625,0.043241175833344456,0.0067422316686715925,-0.004580984814441763
1772733822036849400,2.422849365234375,0.05491524701416492,0.025619923218525943,0.0067442363960901275
1772733822046864400,2.432864501953125,0.06389525680541992,0.007498840455943718,0.005150797758763656
1772733822056879600,2.442879638671875,0.053719899749755856,0.002122481179842725,-0.006811785206967033
1772733822066894600,2.45289453125,0.06494213550984859,0.008991736761666834,-0.007899507378437556
1772733822076909600,2.46290966796875,0.059853872460126877,0.009489731145370751,0.0005033281459473073
1772733822086923300,2.47292333984375,0.046835400933027266,0.00384554211278446,0.01334001793193165
1772733822096938500,2.4829384765625,0.054018005913496016,0.013983873359998688,-0.007722557076066732
1772733822106953500,2.492953369140625,0.06284545549154281,0.01790921184387989,0.008270464149257167
1772733822116968400,2.502968505859375,0.061496378970146176,0.007431839634338393,0.009946087477589025
1772733822126983400,2.5129833984375,0.05161971260011196,0.01514221308226697,0.004051006123586558
1772733822136998400,2.522998291015625,0.05580898098349571,-0.0019390874369535594,0.00014379695144016295
1772733822147013400,2.533013427734375,0.06179565417766571,0.0044639206063002345,0.011671874657156876
1772733822157028400,2.5430283203125,0.06763152072429657,0.010281520843878388,0.006223308661370538
1772733822167042600,2.55304248046875,0.06344166781902313,0.01895820944015868,-0.003961556008155458
1772733822177057500,2.5630576171875,0.05192015685141086,0.015222018586518242,0.0034831796403741464
1772733822187072500,2.573072509765625,0.05895429327189922,0.012712337320530787,-0.001531470183865167
1772733822197087500,2.58308740234375,0.045187049204111096,-0.0007871226565446704,-0.007733694958011619
1772733822207102500,2.5931025390625,0.04713233805298805,-0.0003121712217107415,0.006499527220288291
1772733822217117400,2.603117431640625,0.06853051539063454,-0.008076896072225644,0.011287199888238683
1772733822227132400,2.61313232421875,0.05970189676880836,-0.004943922675587236,0.0016739793605171143
1772733822237147400,2.6231474609375,0.054313773989677426,0.012795923950755968,-0.003900126410811208
1772733822247162400,2.633162353515625,0.05356441692709923,0.009487301726266741,-0.00015259217924904077
1772733822257176300,2.64317626953125,0.07301613637208938,0.013067470901133492,0.003174383119260892
1772733822267191300,2.65319140625,0.055956865021586415,0.0018493176611140368,0.00025451361718587575
1772733822277206500,2.66320654296875,0.05685469064414501,0.0004934643390588462,0.008829029613779857
1772733822287221500,2.673221435546875,0.06523439645469188,0.006473022805852815,0.015574996742652728
1772733822297236500,2.683236572265625,0.0650853433728218,0.020858042578957972,0.013426741800736636
1772733822307251500,2.69325146484375,0.053713470008969304,0.007933770407643169,0.007253012468712404
1772733822317266400,2.703266357421875,0.05685644420981407,0.00828455660669133,0.008732683966681361
1772733822327281400,2.713281494140625,0.05790566100180149,-0.00007142126839607954,-0.006232569680060259
1772733822337295600,2.723295654296875,0.06104921972453594,-0.00667332201777026,-0.005901707457611337
1772733822347310600,2.733310546875,0.05162205068767071,0.007444370322348549,-0.001151393958250992
1772733822357325300,2.7433251953125,0.05192132589519024,0.008379075622884556,0.00718171449790243
1772733822367340300,2.75334033203125,0.07990297327637672,0.005285584853263571,0.004354478015610948
1772733822377355300,2.763355224609375,0.07167115150392055,0.0068779960107058285,0.007773090820061042
1772733822387370200,2.773370361328125,0.03889876271486282,-0.007534076166106387,-0.004508330570184626
1772733822397385500,2.783385498046875,0.06732815386354923,0.00949907436245121,-0.009582231734413653
1772733822407400400,2.793400390625,0.05939736086428165,0.011937279561115429,0.0005507657505571842
1772733822417414400,2.803414306640625,0.05580605837404728,-0.0028032299856189636,0.005736333428602665
1772733822427429400,2.813429443359375,0.05221358684003353,0.012211027601733803,0.0037569185478379947
1772733822437444400,2.8234443359375,0.0448819287776947,0.008224697911925613,0.008294256016798318
1772733822447459600,2.83345947265625,0.04757657468914985,0.012044721990963443,0.0029390719594666733
1772733822457474600,2.843474609375,0.05296469746828079,0.015165621357318013,0.005945811460819095
1772733822467489500,2.853489501953125,0.05386486117839813,0.009905116146383806,0.003746182524692267
1772733822477504500,2.86350439453125,0.06000117197632789,-0.002831579297268763,0.002524965600087307
1772733822487519500,2.87351953125,0.06493921290040015,0.010195760522875933,-0.006032786491373554
1772733822497533400,2.883533447265625,0.06972644717693328,0.00934714433690533,0.0015299129810184239
1772733822507548400,2.89354833984375,0.05775368531048298,0.007817203956423328,0.0046753394338535145
1772733822517563400,2.9035634765625,0.06553367166221141,0.0033290074253920464,0.00787292989876587
1772733822527578400,2.913578369140625,0.07256488547325134,-0.00006584091098047792,0.0072941755961626765
1772733822537593300,2.92359326171875,0.05924480065107345,-0.006132904131291434,0.0004080784773919731
1772733822547608300,2.9336083984375,0.06283551861941813,-0.0008686999927740544,0.0034804716600570825
1772733822557623300,2.943623291015625,0.05370879383385181,0.0064064238430466495,0.008784149292437359
1772733822567638300,2.95363818359375,0.05775017817914486,0.01257477374705486,0.007956292766705154
1772733822577652500,2.963652587890625,0.055655251726508134,-0.004232038946030661,0.01013108865567483
1772733822587667500,2.97366748046875,0.051317514783143996,0.013718701351480558,0.0020435250589624044
1772733822597682400,2.983682373046875,0.05176759663820266,0.012964083591895176,0.020027500905795022
1772733822607697400,2.993697509765625,0.048776013606786725,0.0026815581010188904,0.0009711694199824705
1772733822617712400,3.00371240234375,0.048777182650566096,-0.0006818173848558217,0.006285414112149737
1772733822627727600,3.0137275390625,0.060897244033217425,0.000016467077611014248,0.00018320194664411246
1772733822637742600,3.02374267578125,0.061794485133886336,0.012306067207735031,-0.0014486142060020938
1772733822647757600,3.033757568359375,0.06224281342327594,0.006189173496328294,0.003883202675473876
1772733822657772000,3.04377197265625,0.060895490467548365,0.0017335549274925142,0.003045651306211948
1772733822667787000,3.053787109375,0.06313830095827579,0.003961752370977774,0.006444367533526383
1772733822677802000,3.063802001953125,0.07106850943565368,-0.002684005786431953,0.0056846580402925605
1772733822687817200,3.073817138671875,0.05610474905967712,-0.009245355329709127,-0.0006298954013735055
1772733822697832200,3.083832275390625,0.0583493131160736,-0.004234641895070672,-0.002005339339887723
1772733822707847200,3.09384716796875,0.0570031592041254,0.00634772505890578,0.008722683162475004
1772733822717862100,3.103862060546875,0.05131693026125431,0.006496166219422593,0.02241048705219291
1772733822727876900,3.113876953125,0.08393792788088321,0.00011321458350867033,0.0029147275360766798
1772733822737891000,3.12389111328125,0.061492871838808055,0.01210721103423275,-0.006604613296268508
1772733822747906000,3.133906005859375,0.055956865021586415,0.009191478851158171,-0.004196488142036833
1772733822757921000,3.143921142578125,0.05775310078859329,-0.0005950615500099957,-0.002855649726022966
1772733822767936000,3.15393603515625,0.058202598121762275,0.010773185951495543,-0.010603336676768958
1772733822777951000,3.163950927734375,0.055357730084657664,0.0204691985249985,-0.002035204755188897
1772733822787966000,3.173966064453125,0.06598083090782166,0.003665253642434254,0.004013350127474405
1772733822797981000,3.18398095703125,0.06538052692711353,-0.0013735442423727362,0.00838419932257384
1772733822807996200,3.19399609375,0.05221183327436447,-0.002169736121362075,0.02196065179230645
1772733822818010000,3.204010009765625,0.053259296500682826,0.01146746095912531,0.0024947622580686582
1772733822828025000,3.214025146484375,0.06253741245567798,0.012562663184152915,-0.016201142984093166
1772733822838040000,3.2240400390625,0.06134031162559986,0.016577031658357007,-0.0007430323530687019
1772733822848055000,3.234054931640625,0.06448153226077556,0.009019766412908211,-0.004386663252161816
1772733822858070000,3.244070068359375,0.06672609631717205,0.003438084689900279,-0.006340085175144485
1772733822868085000,3.2540849609375,0.05236147087812423,-0.016552043347572907,0.005634617486642673
1772733822878100000,3.264099853515625,0.062087915122508996,0.005205596685921773,0.003524173804465681
1772733822888115000,3.274114990234375,0.055953357890248294,-0.0004466295226477086,0.007229097303585149
1772733822898129000,3.28412890625,0.058796472361683845,0.014948023950727656,0.00024278664677403867
1772733822908143900,3.294143798828125,0.06358429116010665,0.008753133099665866,0.011913693189551123
1772733822918159000,3.3041591796875,0.056850014469027516,0.005108629984315484,0.013080038121761754
1772733822928174000,3.314174072265625,0.047721536117792125,-0.001487343347771093,0.016454272928368298
1772733822938189000,3.32418896484375,0.04532733445763588,-0.004347975209588185,0.001394422633619979
1772733822948204000,3.3342041015625,0.0608896452486515,0.00852833876730874,0.01129549279254861
1772733822958219000,3.344218994140625,0.059093409481644626,0.011577351074386387,0.014586912720487451
1772733822968234000,3.35423388671875,0.043082770401239395,0.008291698733530938,0.0023833971383515743
1772733822978248200,3.364248291015625,0.06852116304039954,0.0023920188362244513,-0.005198061833437532
1772733822988263200,3.37426318359375,0.06582827069461346,-0.011598768321750686,-0.00578014517086558
1772733822998278000,3.38427783203125,0.051014732444286344,-0.00029136589569970963,0.006314649339788593
1772733823008292900,3.39429296875,0.053857262393832206,-0.0011773458168376236,0.012529094274691305
1772733823018307800,3.404307861328125,0.06328443143069744,0.006191694246977567,0.016204184324550442
1772733823028322800,3.41432275390625,0.07001753907799721,0.011057318388810381,0.015880441396054813
1772733823038338000,3.424338134765625,0.05400514643192291,0.005570612339721993,0.0042112747192149975
1772733823048353000,3.43435302734375,0.06088730716109275,0.009175011773547157,-0.004303528713085689
1772733823058367000,3.444366943359375,0.051909050935506816,0.012108635806338862,-0.013386428056657313
1772733823068382000,3.4543818359375,0.04786825111210346,-0.001185200329730287,0.006152051789755933
1772733823078397000,3.46439697265625,0.062384852242469785,0.008524329312471672,-0.00012962229561526328
1772733823088412200,3.474412109375,0.04487783712446689,0.008929339049942791,0.0069293654383393005
1772733823098427100,3.48442724609375,0.057897477695345874,0.004827685017930344,0.005304421984474174
1772733823108442000,3.494442138671875,0.06882102276980877,0.007866687387647106,0.0030045384111115707
1772733823118457000,3.50445703125,0.04787117372155189,-0.00009535926640965044,0.008073334141960367
1772733823128470800,3.514470703125,0.04892039051353931,-0.0047985593881458045,0.006358351484197192
1772733823138486000,3.524486083984375,0.051913142588734626,0.010667323557380586,0.003000405658688396
1772733823148501000,3.5345009765625,0.058495443588495254,0.010288672103872522,-0.0017539172955090179
1772733823158516000,3.544515869140625,0.06283259600996971,0.022954439469473436,0.003716239477577619
1772733823168531000,3.554531005859375,0.06058744743168354,-0.00005608670194633305,0.022018017135886473
1772733823178546000,3.5645458984375,0.06327975525557994,-0.013620309877768157,0.007904188120132312
1772733823188561000,3.574560791015625,0.05265431634485721,-0.017134756872663272,0.018450725708901883
1772733823198575900,3.584575927734375,0.05534720869064331,-0.01595528303082101,0.0014594232943840324
1772733823208590000,3.594590087890625,0.06447510251998902,0.011587854202091694,0.008604390545049682
1772733823218605000,3.60460498046875,0.05863806692957878,0.01780246353377588,0.009747135405964218
1772733823228620000,3.6146201171875,0.04606792369186878,0.0014589118377305566,0.006597060177475213
1772733823238635000,3.624635009765625,0.05669160903692245,-0.001207192965829745,0.015314290846697986
1772733823248650000,3.63464990234375,0.06462298655807971,-0.0020390406800899655,0.0005823984312592074
1772733823258665000,3.6446650390625,0.06477437772750855,-0.004590095136081799,0.007871094134706071
1772733823268680200,3.65468017578125,0.05325345128178596,-0.002645253811776638,-0.00842688312025275
1772733823278695200,3.664695068359375,0.06507540650069714,0.017769821639498695,-0.010541509787202813
1772733823288708900,3.674708984375,0.07330547470748425,0.0059137997542042285,0.005935682792449369
1772733823298723800,3.684723876953125,0.05669511616826057,-0.0017948018617462366,0.015074093449232167
1772733823308739000,3.694739013671875,0.04756546877324581,-0.016701215160451827,0.002965622039674781
1772733823318754000,3.704754150390625,0.06791501384079456,0.007420770251052453,-0.0021465881412150336
1772733823328769000,3.71476904296875,0.05729015945196152,0.02454510619440116,0.0013428614097414538
1772733823338784000,3.724783935546875,0.04771335281133651,0.01482470809831284,-0.011530475158779882
1772733823348799000,3.734799072265625,0.05429682285487652,0.009987734662229195,-0.002859298421256244
1772733823358814000,3.74481396484375,0.07075695926845073,0.011373736527375876,0.009681504557537846
1772733823368828200,3.754828125,0.06387362949550152,0.0077762600246816865,0.008128324865363537
1772733823378843100,3.764843017578125,0.05923486377894878,0.00030378698585554955,0.0069791776631260285
1772733823388858000,3.774858154296875,0.07734276739954948,0.012305784079944714,0.01982763551871758
1772733823398873000,3.784873046875,0.05923720186650753,0.0024502335631754247,0.0008625214137369766
1772733823408888000,3.79488818359375,0.06552022765874863,0.0014382983079645783,0.00860155470056925
1772733823418903000,3.804903076171875,0.0638742140173912,-0.0008582425308413803,0.0009965595895657315
1772733823428918000,3.81491796875,0.06177811852097511,-0.0015895433469209819,-0.019624505028896965
1772733823438933000,3.82493310546875,0.05713876828253269,0.0006923022462520748,-0.010437044765730388
1772733823448947000,3.834947021484375,0.05848492219448089,0.0007525445335078984,-0.003557792946277186
1772733823458962000,3.8449619140625,0.06776186910569668,0.011500924837309866,0.023797283501783385
1772733823468977000,3.854976806640625,0.06551730504930019,0.0066889123125467445,0.009128633614862337
1772733823478992000,3.864991943359375,0.07823650136888027,0.0019350597158074379,-0.0005832067154347896
1772733823489007000,3.875007080078125,0.06222469324469566,0.00968628576393239,0.003113250349438749
1772733823499022000,3.88502197265625,0.051151510566473005,0.011168642409332095,0.0010037884813733399
1772733823509037000,3.895037109375,0.03918225583136081,-0.005604021418979391,0.002444141749106347
1772733823519052000,3.905052001953125,0.06327449455857277,0.00034083106061443685,0.0034618856905959546
1772733823529066000,3.91506591796875,0.0490600912451744,0.013134133796021342,0.004275083503313362
1772733823539081200,3.925081298828125,0.05025719207525253,0.010842223466560243,0.010400407116347923
1772733823549096200,3.93509619140625,0.06896189254522324,0.005745649246219545,0.005479331026808358
1772733823559111200,3.945111083984375,0.05519347943365573,-0.009647826050221919,0.009637793279974721
1772733823569126100,3.955126220703125,0.06207564016282558,-0.004385585539927706,0.006955120934103615
1772733823579140900,3.965140869140625,0.049506665968894956,0.00478577297180891,-0.006507194503513164
1772733823589155800,3.97515576171875,0.04800970540940761,0.0032321868542581796,-0.007543615746009163
1772733823599170000,3.985170166015625,0.061028761458396905,0.0020764226815663278,0.00265654239077121
1772733823609185000,3.99518505859375,0.05160159242153167,-0.006289738660817966,0.008502971430611796
1772733823619200000,4.005199951171875,0.056989130678772926,-0.000006858999049291014,0.00781947811190039
1772733823629215000,4.015215087890625,0.06536825196743011,0.008640658301673829,-0.00028926983673591166
1772733823639230000,4.02522998046875,0.06387187592983246,0.0019128204845357685,0.008711668578116222
1772733823649245000,4.035244873046875,0.05429565381109714,0.0033453375056851655,-0.0025301121326629073
1772733823659259400,4.04525927734375,0.0679132602751255,0.00982116418997757,0.006003802425484173
1772733823669274400,4.0552744140625,0.0608808774203062,0.012389425509097053,0.003206052332581021
1772733823679288300,4.065288330078125,0.06761456958949566,-0.007609050231613218,-0.002363011937448755
1772733823689303300,4.07530322265625,0.059534723508358,0.0015669661889318376,0.005568717210157774
1772733823699318500,4.085318603515625,0.06327624812424182,0.0012224270675797015,0.0077738991042366245
1772733823709333500,4.09533349609375,0.07150573180913924,0.0021689415369182826,0.01162163317410741
1772733823719348500,4.105348388671875,0.06028291152715683,0.007496465835766866,0.005413846308854408
1772733823729363500,4.115363525390625,0.06327624812424182,0.018580626565730198,0.0034727084787096827
1772733823739378400,4.12537841796875,0.05713993732631206,0.019177158553618935,-0.012220937074394896
1772733823749393400,4.135393310546875,0.066118193551898,0.006280267579574138,0.00019787892596796153
1772733823759407400,4.145407470703125,0.05639233382940292,-0.009377329412614927,0.00562240645904094
1772733823769422300,4.15542236328125,0.05714169089198112,-0.00436509074117057,0.007468153056735172
1772733823779437300,4.165437255859375,0.0511561867415905,-0.001756433479581028,0.0020006174989975986
1772733823789452300,4.175452392578125,0.06432371135056018,0.01006760409856215,0.006998896143748425
1772733823799467300,4.18546728515625,0.05953413898646831,0.009672147640725597,0.007554913458158261
1772733823809482200,4.195482177734375,0.07120411851406097,0.023763646093662827,0.008533590331161394
1772733823819497500,4.20549755859375,0.04666355149745941,0.010989459050679579,-0.005902355911582708
1772733823829511400,4.215511474609375,0.06447042634487152,-0.008931275278702378,0.002019025371945463
1772733823839526400,4.2255263671875,0.06087853933274746,-0.0011406762014143168,0.0010472851298050955
1772733823849541400,4.235541259765625,0.0575870965719223,-0.0032687468718271702,0.010738831590744666
1772733823859556400,4.245556396484375,0.05728782136440277,0.0046624205867759885,0.008288798956968822
1772733823869571300,4.2555712890625,0.05369593435227871,0.00878246879200451,0.02146158426294569
1772733823879586600,4.265586669921875,0.06312193434536456,0.0047185072887223215,0.0025220338574843478
1772733823889601500,4.2756015625,0.06955518226325512,0.007310085551347583,0.007226887080189772
1772733823899616500,4.285616455078125,0.045163668328523636,-0.012594446561904624,-0.0010855439141159876
1772733823909630200,4.295630126953125,0.05099895035326481,0.0017800974829588084,0.007066399288852699
1772733823919645200,4.305645263671875,0.06656009210050105,0.0014513587189372628,-0.008300594426039606
1772733823929660400,4.315660400390625,0.06147182905077934,0.011451459672395138,0.009731595343537628
1772733823939675400,4.32567529296875,0.06177110425829887,0.01801283661513589,-0.0040418136035557835
1772733823949690400,4.3356904296875,0.06476210276782512,0.012381899789767338,-0.0004467984860064462
1772733823959705300,4.345705322265625,0.048001522102952,0.004060965828597545,0.017795298574049954
1772733823969720300,4.35572021484375,0.05847556984424591,0.003081151877855882,-0.0036109205061569806
1772733823979735300,4.3657353515625,0.06356383289396762,0.012889602716732769,0.01017948067493271
1772733823989749500,4.37574951171875,0.06416238330900668,0.01408566236719489,0.014648036357155069
1772733823999764500,4.385764404296875,0.053987026253342625,0.009154023784445598,0.01393420726568438
1772733824009779500,4.395779541015625,0.07044833171069621,0.0005688493965193629,0.004195931019610725
1772733824019794400,4.40579443359375,0.06192015734016895,0.008293698894372209,0.008778445637435652
1772733824029809400,4.415809326171875,0.05713116949796676,0.009288427286455406,0.007088560888310894
1772733824039824400,4.425824462890625,0.060272974655032154,0.001653237966587767,0.010603478240664117
1772733824049839600,4.435839599609375,0.04919920745491981,0.018070147159788757,0.005792684992030263
1772733824059854600,4.4458544921875,0.059523617592453955,0.016543814375344662,0.0015611894686939193
1772733824069868300,4.455868408203125,0.06012216800749302,0.01803723127087578,0.0030222338980063794
1772733824079883300,4.46588330078125,0.0505459458887577,0.0005990618716925383,0.009754026371054351
1772733824089898200,4.475898193359375,0.057579497787356375,0.004215672333119437,0.021457309946627354
1772733824099913500,4.48591357421875,0.04216624007821083,0.0003629150282591581,0.0016344008353771642
1772733824109928400,4.495928466796875,0.06102116267383098,0.0057768572352360935,-0.0030181102787377313
1772733824119943400,4.505943359375,0.05907528930306434,-0.0007544168301858008,-0.0017547118799528106
1772733824129958400,4.51595849609375,0.05249065021574497,-0.0015116740714292973,-0.001524373722798191
1772733824139972400,4.525972412109375,0.06595861907601357,0.007593916594563052,0.011409113801433704
1772733824149987600,4.535987548828125,0.06490998680591582,0.007962567243864759,0.004210941359074786
1772733824160002600,4.54600244140625,0.06131809979379177,0.0008464516283478588,-0.0007437630054308101
1772733824170017500,4.556017578125,0.06939619230926036,0.010371363684954121,-0.003233602493209764
1772733824180032500,4.566032470703125,0.053234162059426306,-0.00292306610615924,0.010400429949234239
1772733824190047500,4.576047607421875,0.05487959117889404,0.010316564757796003,0.005941696974704973
1772733824200062200,4.586062255859375,0.050838206833601,0.011351652559731156,-0.008359777267370373
1772733824210077200,4.5960771484375,0.05502805973887443,0.016878772817598656,-0.008670989507855846
1772733824220091400,4.60609130859375,0.05443009384572506,0.005704760113405064,0.010789388167625293
1772733824230106400,4.6161064453125,0.062360886844992636,0.006872369987517595,0.007575983645650558
1772733824240121300,4.626121337890625,0.05203706122934818,0.0025559315605089067,0.00304171491661109
1772733824250136300,4.63613623046875,0.05113923560678959,-0.006437184307491407,0.018013663165620527
1772733824260151300,4.6461513671875,0.047698155242204665,0.002300486361561343,0.01263151803612709
1772733824270166300,4.656166259765625,0.05772387469410896,0.01570563738499768,0.001213586173998192
1772733824280181500,4.666181396484375,0.0619137275993824,0.004590953652607276,0.0034793848146684467
1772733824290195500,4.676195556640625,0.05054068519175052,0.0037666681902948766,0.007131605445593595
1772733824300210400,4.68621044921875,0.050990182524919506,-0.0021555340660735964,0.0005491857148241251
1772733824310225400,4.696225341796875,0.05413257220387459,-0.007381607284443452,-0.0006429192797280848
1772733824320240400,4.706240478515625,0.05248714308440685,0.009281769216805695,0.00521597194946371
1772733824330255600,4.716255615234375,0.04829729017913341,0.008737908131070435,0.007034734642109833
1772733824340270300,4.726270263671875,0.05383271247446537,0.013045039873616769,0.0075083526363829145
1772733824350285300,4.736285400390625,0.05891980648040771,-0.004824470147537068,0.0037653941152384503
1772733824360300300,4.74630029296875,0.05517886638641357,-0.008255330512207,0.0030420574099058284
1772733824370314200,4.756314208984375,0.06744914989471436,0.0024274189431685955,-0.009468017070484346
1772733824380329500,4.76632958984375,0.06101531745493412,0.005041939689964056,-0.006524794092285446
1772733824390344400,4.776344482421875,0.0628109687000513,-0.009670321009820326,0.0047533822392811995
1772733824400359400,4.786359375,0.0619137275993824,0.005941254016710445,0.0032566728415433315
1772733824410374400,4.79637451171875,0.0548813447445631,0.004810907413065433,0.00890715461759828
1772733824420389400,4.806389404296875,0.05398235007822513,0.002780177903594449,0.006954372015432454
1772733824430404400,4.816404296875,0.05802139633595943,-0.004378507345169783,0.00024274554757867006
1772733824440418600,4.82641845703125,0.05398118103444576,-0.008628429007763042,0.005495021786284633
1772733824450433500,4.83643359375,0.05143617272675037,0.00157029065717943,0.009982158871390857
1772733824460448500,4.846448486328125,0.06714753659963607,-0.0025532098804600537,0.006734984510554932
1772733824470463200,4.856463134765625,0.05472761548757553,0.021878188540088012,0.00269262748430483
1772733824480478200,4.866478271484375,0.05457797788381576,0.016043719366099683,0.0019033996356418355
1772733824490493200,4.8764931640625,0.049340661752223965,-0.009971258451463655,0.01834732926650904
1772733824500508400,4.88650830078125,0.05637362912893295,0.003683985742367804,0.004853892604843713
1772733824510523400,4.8965234375,0.056225160568952555,0.006901723946165293,-0.002169946183916181
1772733824520537300,4.906537353515625,0.05637479817271232,-0.00013685118742287158,-0.0016663805759511887
1772733824530552300,4.91655224609375,0.05697334858775138,0.003597522168466821,-0.0005251974844606593
1772733824540567300,4.9265673828125,0.052634442600607866,0.010377692961040883,0.0019018835319904608
1772733824550582500,4.93658251953125,0.054579731449484824,-0.002631672810995951,-0.0012050238416297361
1772733824560597500,4.946597412109375,0.05143734177052974,0.007225302477879449,0.005348297658818774
1772733824570612500,4.956612548828125,0.06924421661794185,-0.00007710209051147103,0.008595581617509014
1772733824580627500,4.96662744140625,0.050838206833601,0.011090435207122936,0.0008298795194597914
1772733824590641400,4.976641357421875,0.07283493458628654,0.010287914052046834,0.014954960581590421
1772733824600656400,4.986656494140625,0.0595171878516674,-0.0029196411732118573,0.006491846237331628
1772733824610671400,4.99667138671875,0.0559270544052124,0.004076884916936979,-0.002771282211085781
1772733824620686300,5.006686279296875,0.06310965938568115,-0.01402145629087463,-0.0003809438752941787
1772733824630701300,5.016701416015625,0.05607669200897217,-0.013728272897424176,-0.006027754123229533
1772733824640716300,5.02671630859375,0.045751697349548336,-0.00415426100208424,-0.0049905063302489
1772733824650731300,5.036731201171875,0.06475567302703857,0.0188675537483301,0.0031005324317608025
1772733824660746800,5.046746826171875,0.07103986786305903,0.005655322347953916,0.006848792749107815
1772733824670761000,5.056760986328125,0.05487783761322498,-0.00622594357645139,0.0019098202432738616
1772733824680776000,5.06677587890625,0.06714695207774639,0.0006608659283723682,0.006005647322698496
1772733824690791000,5.076791015625,0.06969137586355209,0.001910427598049864,0.005863348208600655
1772733824700806000,5.086805908203125,0.051585810330510136,0.015816367750475183,0.009809893877292052
1772733824710820900,5.09682080078125,0.05442950932383537,0.00822615921664983,-0.002874596455087885
1772733824720835800,5.1068359375,0.053831543430685996,0.00046319706495851273,-0.0029647452568402513
1772733824730850800,5.116850830078125,0.06774842510223389,-0.005013773041404783,0.005425856407056563
1772733824740865000,5.126864990234375,0.040515550261735915,0.000463334062276408,-0.001282774386112578
1772733824750880000,5.1368798828125,0.0571253242790699,0.00007231631753966212,-0.002237357997475192
1772733824760895000,5.14689501953125,0.050990182524919506,-0.006270750832557678,-0.0054602792664663865
1772733824770910000,5.156909912109375,0.05024257902801037,0.008394200126780197,0.008473179080546834
1772733824780925000,5.166925048828125,0.0614648147881031,-0.0068870287005323915,0.01008928164083045
1772733824790940200,5.176940185546875,0.07567980262339115,-0.007767309533245861,0.025752043431904164
1772733824800955000,5.186954833984375,0.06744798085093498,-0.0038722383234649892,0.006814114161371253
1772733824810969900,5.196969970703125,0.054279287198185915,0.003407114162901416,0.004380274610570631
1772733824820983800,5.20698388671875,0.05607435392141342,-0.0021277144773863255,-0.006307881672284565
1772733824830998800,5.216998779296875,0.055475803506374356,0.008161578680993988,-0.0040104229514487085
1772733824841014000,5.227013916015625,0.0631073212981224,0.007545903601218014,0.0010753376139327883
1772733824851029000,5.237029052734375,0.06864449715912342,0.004280901322746649,-0.0011272184982197358
1772733824861044000,5.2470439453125,0.06430500665009022,0.004496251973323524,0.003319417613139376
1772733824871059000,5.257058837890625,0.05787058968842029,0.013679812379507347,0.01401262909702491
1772733824881074000,5.267073974609375,0.05233399834930896,0.01443104173876345,0.0034949842425994575
1772733824891088100,5.277088134765625,0.04949088387787342,0.016292305565997957,-0.009554987534461542
1772733824901103000,5.28710302734375,0.05682371098399162,0.007548716612812131,-0.007632088613905944
1772733824911118000,5.2971181640625,0.056524435776472086,-0.011568464515032247,-0.003627899040421471
1772733824921133000,5.307133056640625,0.053232993015646934,0.0068481671280227596,-0.007495616452395916
1772733824931147800,5.317147705078125,0.05861936222910881,0.005746096770791336,0.0055167769603664055
1772733824941162800,5.327162841796875,0.06924246305227279,-0.0008201207438483834,0.010612899089558049
1772733824951177700,5.337177734375,0.05622223795950412,-0.0014311196485068648,0.0074769574176985765
1772733824961193000,5.34719287109375,0.08300678451061248,-0.013331300335936248,0.01073709629138466
1772733824971207000,5.35720703125,0.0660959817200899,-0.00042943179267458616,0.0024195781300077215
1772733824981222000,5.367221923828125,0.04619418042004108,0.0008578589383512735,-0.002290709319640882
1772733824991236900,5.37723681640625,0.05038344880342483,-0.010927271401509642,0.0016368941865628583
1772733825001251800,5.387251953125,0.05592179370820522,-0.005858708566101267,-0.00551849399341736
1772733825011267000,5.39726708984375,0.059065352430939674,-0.011739765961328521,0.011761763164005241
1772733825021282000,5.407281982421875,0.05891746839284896,0.014016953645693138,0.014924213816877453
1772733825031297000,5.417297119140625,0.05802081181406975,0.008926681301975622,0.010130435635126195
1772733825041311000,5.42731103515625,0.06819733791351318,-0.003648978361068293,0.010429281584382988
1772733825051326000,5.437325927734375,0.06311141295135021,-0.004753523803176358,0.004349820106802508
1772733825061341000,5.4473408203125,0.04844634326100349,0.0008726546486839651,0.0028890999044757335
1772733825071356000,5.45735595703125,0.06670096187591552,-0.002484665555739775,0.0035797490497585386
1772733825081371000,5.467370849609375,0.07074176169931888,0.007837379094772041,0.007233554282994009
1772733825091385900,5.4773857421875,0.050989013481140134,-0.0013391305161174385,0.020236421815585343
1772733825101400800,5.48740087890625,0.05891863743662834,-0.010709007274638862,0.018853214695723725
1772733825111414800,5.497414794921875,0.052183776223659516,0.007478354790341109,0.0109648771652719
1772733825121430000,5.507429931640625,0.053530514657497405,0.0056878272449132055,0.021263458741805515
1772733825131445000,5.517445068359375,0.05592530083954334,0.0031491025475319473,0.011307991514517925
1772733825141460000,5.5274599609375,0.04649871632456779,0.0004668685930781066,-0.0029606307707261293
1772733825151475000,5.537474853515625,0.052932548764348025,0.012097274162108079,0.006020986455725506
1772733825161490000,5.547489990234375,0.043804654935002324,-0.008994440175406635,-0.0004494151347782463
1772733825171505000,5.5575048828125,0.04560147522389889,-0.001329979095282033,0.005050634453073143
1772733825181520000,5.567519775390625,0.04979249717295169,0.003082741046743467,0.008227981280977837
1772733825191534000,5.5775341796875,0.048147652575373644,-0.010400507581047713,0.00047106984416022893
1772733825201548800,5.587548828125,0.06535597700774669,0.007689549855608492,0.006427936988533474
1772733825211563800,5.597563720703125,0.07119067451059818,0.018065379653126,0.005400977694126777
1772733825221578800,5.607578857421875,0.060714288681745526,0.0075546348969452075,0.014493055857997386
1772733825231593700,5.61759375,0.06220949567556381,0.006813013616250828,0.009241747733671217
1772733825241609000,5.62760888671875,0.07118658285737037,-0.00047605654653161763,0.012531701790308578
1772733825251624000,5.6376240234375,0.057118894538283345,0.0000056351563427597285,0.00224623999025207
1772733825261638000,5.647637939453125,0.05786649803519248,0.0008601604932919144,0.0034399889526190233
1772733825271652900,5.65765283203125,0.05158171867728233,0.015146852724766359,0.005902164115337655
1772733825281667800,5.667667724609375,0.061308747443556785,0.00488909634896554,-0.002079381823632866
1772733825291683000,5.67768310546875,0.054425417670607566,-0.013354114955943077,0.0019929182497318834
1772733825301698000,5.687697998046875,0.05008592716157436,-0.006896855974802747,0.0013731971825007348
1772733825311713000,5.697713134765625,0.060710781550407406,0.00046120603727176784,0.011249393195076845
1772733825321728000,5.70772802734375,0.05966448736786842,-0.0016796053837053477,0.0046874956625280895
1772733825331742000,5.717741943359375,0.06415361548066138,0.0038118864383548494,0.004178194433520548
1772733825341757000,5.7277568359375,0.07118482929170131,0.0014225892821792512,0.0017408066521864384
1772733825351772000,5.73777197265625,0.0687894585877657,0.009643752663303166,-0.004524391222419217
1772733825361787000,5.747786865234375,0.062355041626095765,0.005822952266130596,-0.00878238202703651
1772733825371801900,5.7578017578125,0.04813888474702835,0.01085653511970304,0.012199830354284494
1772733825381816800,5.76781689453125,0.06818973912894725,0.006694538335734978,-0.009417611190653406
1772733825391831800,5.777831787109375,0.048586628514528274,0.013398346823314203,0.013101478202012367
1772733825401846000,5.787845947265625,0.05292670354545116,-0.010381866812659428,0.0019218897069804368
1772733825411861000,5.797861083984375,0.06429916143119335,0.006240739286784082,0.014951736578042617
1772733825421876000,5.8078759765625,0.04933773914277553,0.00465352489426732,-0.006659398523694835
1772733825431891000,5.817890869140625,0.05053659353852272,0.003699365974590182,-0.004610936994710937
1772733825441906000,5.827906005859375,0.056223407003283495,-0.001153672680305317,-0.0016286149819847195
1772733825451921000,5.8379208984375,0.05068798470795154,-0.0005616159381344914,0.0006047061611898243
1772733825461935900,5.847935791015625,0.0533826306194067,-0.008278263863222673,0.007550789838889614
1772733825471951000,5.857951171875,0.06265899300873279,0.012220352552505209,0.01757758700302802
1772733825481964800,5.86796484375,0.06639934858083725,0.004112120627099648,0.028472344374423846
1772733825491979800,5.877979736328125,0.05397767390310764,0.0018661135322879999,0.016428476333408614
1772733825501994800,5.887994873046875,0.058465632972121234,-0.0045113582109101115,-0.00005950250173918903
1772733825512010000,5.898010009765625,0.05292845711112022,0.0009690550947096198,-0.0024387851539766415
1772733825522025000,5.90802490234375,0.0533779544442892,0.0017687175724189728,-0.011261846251273527
1772733825532040000,5.9180400390625,0.057418754267692565,-0.0024449911324772983,0.0003646046618465334
1772733825542055000,5.928054931640625,0.06116027888357639,0.0037567313181702047,0.01481864368370734
1772733825552068900,5.93806884765625,0.06565057604014873,-0.01024322552694939,0.013836455112788826
1772733825562083800,5.948083740234375,0.052631519991159434,0.0016018731055315583,0.010774053601175546
1772733825572099000,5.95809912109375,0.06071370415985584,0.002977636704454198,0.0013662970842560752
1772733825582114000,5.968114013671875,0.06116378601491451,0.010384935552580282,-0.0008156500647077336
1772733825592129000,5.97812890625,0.07912146750986576,0.017019998786039648,-0.005091477920114993
1772733825602144000,5.98814404296875,0.05832125606536865,0.011687414719583466,-0.007546931081102229
1772733825612159000,5.998158935546875,0.0707411771774292,0.005676474733836949,0.017744805929251015
1772733825622173000,6.0081728515625,0.06550269200205802,-0.00261948004970327,0.006772393911494873
1772733825632188000,6.01818798828125,0.06325754342377185,-0.0008752210651058703,0.014991278570564462
1772733825642203000,6.028202880859375,0.06714812112152577,-0.0018686068834736942,0.006584100231202319
1772733825652217900,6.0382177734375,0.05966682545542717,-0.0035055239029228684,0.008132284087850711
1772733825662232000,6.048232177734375,0.04620061016082763,0.019190118499891832,0.00633908509472385
1772733825672247300,6.058247314453125,0.04620061016082763,0.005205742816394195,0.0027080031499499453
1772733825682262300,6.06826220703125,0.05143851081430912,0.014019848855677992,-0.001437750318692997
1772733825692276200,6.078276123046875,0.05473053809702396,-0.00013649499439634383,-0.010797407077299431
1772733825702291200,6.088291259765625,0.0783744485348463,0.0010188490531872958,0.0021716860498534516
1772733825712306200,6.09830615234375,0.05922141977548599,-0.005975695142429321,0.00650286082169041
1772733825722321200,6.108321044921875,0.057575990656018254,0.00199951238729991,0.0047420388613594695
1772733825732336400,6.11833642578125,0.062364393976330756,-0.0072820285006426275,-0.004384000937617384
1772733825742351400,6.128351318359375,0.04605272612273693,0.011605124997301026,0.006778709487849846
1772733825752366300,6.138366455078125,0.07059095505177974,0.0011627601690590381,-0.007990135670802555
1772733825762380300,6.14838037109375,0.0634077655494213,0.003929868528526276,0.009351016794424504
1772733825772395300,6.158395263671875,0.050986675393581385,-0.002031451028678566,-0.007839529952662997
1772733825782410500,6.168410400390625,0.0587678307890892,-0.008514438106119633,0.002535258665238507
1772733825792425200,6.17842529296875,0.06236030232310295,0.004248990080831573,0.00667887040914502
1772733825802440200,6.188440185546875,0.05861994675099849,0.0090779172077775,-0.012863536693714558
1772733825812455200,6.198455078125,0.0524848049968481,0.004941959047364071,-0.0016064807819901033
1772733825822470100,6.20847021484375,0.05727262379527091,-0.007920527333579957,0.0016394240703666582
1772733825832485000,6.218485107421875,0.05697393310964107,0.00038930984484031794,0.004290829061716794
1772733825842499300,6.228499267578125,0.06475567302703857,0.0006968048914335668,0.005868060916336253
1772733825852514300,6.238514404296875,0.06161503691375255,0.0024474936168175187,0.006559595977608114
1772733825862529300,6.248529296875,0.051589901983737946,0.0006584091098047793,0.010820125799183733
1772733825872544300,6.258544189453125,0.0662532181084156,-0.0009575016542337834,0.02085291887926869
1772733825882559200,6.268559326171875,0.05532791946828365,0.0008244772585574537,-0.00237305384085048
1772733825892574200,6.27857421875,0.056821957418322556,0.010061667548120021,0.009036923043685965
1772733825902589400,6.28858935546875,0.06624795741140842,0.0044132955307606605,0.0006558107273420318
1772733825912603400,6.298603271484375,0.06130933196544647,0.0013398246358614415,0.007675306701124645
1772733825922618000,6.3086181640625,0.05951426524221897,-0.0034142106239683926,0.008447030859137885
1772733825932633000,6.318633056640625,0.05532441233694553,-0.0017341851151548326,0.008760115396301262
1772733825942648000,6.32864794921875,0.06026303778290748,-0.0009822707693092525,0.003912899127416313
1772733825952663300,6.338663330078125,0.06131108553111553,0.009239701907057314,0.017193012698809615
1772733825962678300,6.34867822265625,0.051883916494250296,0.01239739875299856,0.0014960792100755496
1772733825972693200,6.358693359375,0.04889174894094467,0.009292381942365318,-0.000759056472685188
1772733825982707200,6.368707275390625,0.04993921216726303,0.008422248044330626,0.0012095584528520702
1772733825992722200,6.37872216796875,0.04559972165822983,0.004399486201116815,-0.0040586916731204835
1772733826002737400,6.3887373046875,0.05233399834930896,-0.0036501200053840875,0.012096260381955652
1772733826012752400,6.39875244140625,0.05367956773936748,0.014287569014308974,0.011702425059047526
1772733826022767400,6.408767333984375,0.04290566026866436,-0.004579491543676704,-0.0005757540613412857
1772733826032782300,6.4187822265625,0.05562368754446506,-0.005199861064879224,0.007837086833827197
1772733826042797300,6.42879736328125,0.06624854193329811,0.018306796326721084,0.00725382531946525
1772733826052811300,6.438811279296875,0.055174774733185765,-0.010315560110798105,-0.00024002843410708008
1772733826062826200,6.448826171875,0.06310673677623271,-0.004131437248922884,0.004644615502026863
1772733826072841200,6.45884130859375,0.05248363595306873,0.0031298498577903952,0.006812584357988089
1772733826082856200,6.468856201171875,0.04829436756968498,0.0009648355773184448,-0.012044521061563864
1772733826092871200,6.47887109375,0.05966682545542717,0.01457618583049625,0.011905902608740143
1772733826102886100,6.48888623046875,0.06685059947967528,-0.001408405493199825,0.019495275458926334
1772733826112901000,6.498901123046875,0.058171033939719195,0.016050231305276975,0.0008293360967654734
1772733826122915300,6.508915283203125,0.06714870564341545,0.007139660887885839,0.007388977740146219
1772733826132930300,6.518930419921875,0.049641690525412556,-0.006634697907278314,-0.0022303346016444266
1772733826142945300,6.5289453125,0.05832125606536865,0.007156456759059801,-0.027096471177646887
1772733826152960300,6.538960205078125,0.058171618461608884,-0.008411598786152899,-0.00983430223276373
1772733826162975200,6.548975341796875,0.04814648353159427,-0.007512476255651563,-0.007229216034593992
1772733826172990200,6.558990234375,0.0655038610458374,0.009768201026879251,-0.005732776064914651
1772733826183005400,6.56900537109375,0.06804770030975342,0.004546018532337621,0.01810008564032614
1772733826193019100,6.57901904296875,0.06086509532928466,0.004372808256745338,0.012758341019880026
1772733826203034000,6.5890341796875,0.05188683910369873,0.006047801397414877,0.013589695543795823
1772733826213049000,6.599049072265625,0.07119125903248787,0.008409671690547838,-0.0001948467186652124
1772733826223064000,6.60906396484375,0.06460720446705817,0.004632856565574184,-0.017912148153060116
1772733826233079300,6.619079345703125,0.052936640417575835,0.007376812378317117,-0.006015657260059378
1772733826243094300,6.62909423828125,0.048448681348562235,-0.0025372359931934625,0.013317851765896192
1772733826253109200,6.639109130859375,0.06026946752369403,0.017249350562505424,0.007090698046470061
1772733826263123200,6.649123291015625,0.047400633600354194,0.017407856459310277,0.004966942791570909
1772733826273138200,6.65913818359375,0.06715221277475357,-0.010314975588908419,0.00044701311513781547
1772733826283153400,6.6691533203125,0.04650222345590591,0.0129374056475237,-0.015377085850643924
1772733826293168400,6.67916845703125,0.06191431212127208,0.009179231290938332,0.003290639043226838
1772733826303183400,6.689183349609375,0.03961772463917732,0.00015688019529916345,0.014024378900323063
1772733826313198300,6.6991982421875,0.05907119764983654,0.005993258198583498,-0.004940397277940064
1772733826323213300,6.70921337890625,0.064758595636487,0.0004201525076758116,0.016198544601630418
1772733826333227300,6.719227294921875,0.0652075084477663,-0.0013978749660309403,0.009789641107129864
1772733826343242200,6.7292421875,0.05039397019743919,0.0004255045362282544,-0.011686862163734622
1772733826353257200,6.73925732421875,0.06371113241016864,0.006353223217930645,0.007633627550443634
1772733826363272200,6.749272216796875,0.08286299212574959,0.008271477929409592,0.010900675655528902
1772733826373287200,6.759287109375,0.05383212795257568,0.0006478237837087363,0.0002815614543156698
1772733826383302100,6.76930224609375,0.06221183376312255,-0.007427775380574166,-0.00014332659398205578
1772733826393317000,6.779317138671875,0.047097266739606854,0.008200321522494778,0.0035467007301049304
1772733826403331300,6.789331298828125,0.03976385511159897,0.007676580776181071,0.011249420594540423
1772733826413346300,6.79934619140625,0.05831833345592022,0.0032095092315692453,0.008119319575000554
1772733826423361300,6.809361328125,0.06071195059418678,0.013475184052344411,-0.0017184258570196106
1772733826433376300,6.819376220703125,0.05756897639334201,-0.0016628095125313846,0.009896987638855352
1772733826443391200,6.82939111328125,0.05367781417369842,0.0005635430337395519,0.01922713517518714
1772733826453406200,6.83940625,0.053228901362419125,0.0030144981161225586,0.00989484134754166
1772733826463421400,6.84942138671875,0.05472644644379616,0.003885636661155149,-0.008030992837576195
1772733826473435100,6.85943505859375,0.06220949567556381,-0.007525143940979614,0.0018435272411443293
1772733826483450000,6.8694501953125,0.06475275041759014,0.006401875532092526,0.006253744898829609
1772733826493465000,6.879465087890625,0.05757014543712139,0.004790293883299455,0.006532575539941899
1772733826503480300,6.889480224609375,0.0713379740267992,-0.01370862748203799,0.006721659238100983
1772733826513495300,6.899495361328125,0.054877253091335294,-0.004868875544844195,-0.006812680256110616
1772733826523510300,6.90951025390625,0.06385550931692123,-0.0027118710408918557,0.0031443989729508758
1772733826533525200,6.919525146484375,0.05757131448090076,0.00669954330441542,0.0021797780247638002
1772733826543539200,6.929539306640625,0.06280804609060286,0.0013818280135281383,-0.0030268461410421876
1772733826553554200,6.93955419921875,0.05547521898448467,-0.001246976986946538,0.008508168195537291
1772733826563569400,6.9495693359375,0.0523322447836399,0.0066390909546054895,0.02164458528019022
1772733826573584400,6.95958447265625,0.05472586192190647,0.0019746428075246513,0.013677835051552392
1772733826583599400,6.969599365234375,0.04918927058279514,0.00047623007646761833,-0.006248388303699903
1772733826593614300,6.9796142578125,0.050685646620392794,0.010657678946200757,0.008547422493691555
1772733826603629300,6.98962939453125,0.0653507163107395,0.004414729436021298,-0.015003553530247881
1772733826613643300,6.999643310546875,0.0635562341094017,0.01185203069676645,-0.013467151442938483
1772733826623658200,7.009658203125,0.05637421365082264,-0.00393897428358905,-0.002409088702034205
1772733826633673200,7.019673095703125,0.06684943043589592,-0.003594234232837334,0.014477305733016692
1772733826643688200,7.029688232421875,0.05861994675099849,0.005698065511137247,0.016626483123539947
1772733826653703200,7.039703125,0.048593058255314826,0.0038358244363684204,0.0014503312390530482
1772733826663718700,7.04971875,0.0509860908716917,0.02165376866706647,0.0025464878787286576
1772733826673733600,7.059733642578125,0.05308043280243873,-0.0028096688595600425,0.0034560176388127727
1772733826683747600,7.06974755859375,0.05831774893403053,-0.018396776165114714,-0.0025117681917967275
1772733826693762600,7.079762451171875,0.041859950608015055,-0.008883554546302184,-0.0052386358724208545
1772733826703777500,7.089777587890625,0.023023148190975187,0.006172459823545068,0.006380499383923597
1772733826713792500,7.09979248046875,-0.028268647629022595,0.020758025403739885,0.013786533290147781
1772733826723807500,7.109807373046875,0.0008072247296571731,0.022245149555802344,0.018222634307760745
1772733826733822500,7.119822509765625,0.03481938444674015,0.022613736273022367,0.01914080859860405
1772733826743837700,7.129837646484375,0.0926134017676115,0.0006727892616065218,-0.013983284271531737
1772733826753851600,7.1398515625,0.1369254217028618,-0.008816731821210124,-0.0081037749459967
1772733826763866600,7.14986669921875,0.12809914116859436,-0.018288219490414485,-0.034588594198436476
1772733826773881600,7.159881591796875,0.17895839079022408,-0.02647866350628901,-0.008813416486117057
1772733826783896600,7.169896484375,0.15916823317110537,-0.021449565031589006,0.017438904618122614
1772733826793911800,7.179911865234375,0.14639467631578446,-0.011563815739378333,0.025668525300337933
1772733826803926800,7.1899267578125,0.08677402808964252,-0.013549354400252922,0.024652461859281175
1772733826813941800,7.199941650390625,0.05737666869163513,-0.013970822082180529,0.007467121010273694
1772733826823955500,7.20995556640625,0.004643441891670227,-0.0019475264717359094,-0.020001946339430286
1772733826833970400,7.219970458984375,-0.013057634493708609,0.016791724721807986,-0.037815611687232735
1772733826843985700,7.229985595703125,-0.03971533979475498,0.025279758878191932,-0.011116181569732726
1772733826854000600,7.240000732421875,-0.043749709877371784,0.02085357646639459,0.008238858868018723
1772733826864015600,7.250015625,-0.0283078105956316,0.04729081655032932,0.017022880296292713
1772733826874030600,7.260030517578125,-0.012100772160291672,0.028940409410744904,0.03272002841415815
1772733826884045600,7.270045654296875,0.013539865052700042,0.02135969935762696,0.03149587974695023
1772733826894059800,7.280059814453125,0.04830839609503746,0.0041241763910744335,0.009432187705277465
1772733826904074800,7.29007470703125,0.0911491744339466,-0.0033315373091958463,-0.007912718486459925
1772733826914089700,7.30008984375,0.0910316855341196,0.0010196162381675095,-0.01989048988816794
1772733826924104700,7.310104736328125,0.1263636956781149,-0.003671564652211964,-0.005271095103607512
1772733826934119700,7.32011962890625,0.1447714590281248,-0.019060537303471937,0.0066900950560579075
1772733826944134700,7.330134765625,0.12830021669864652,-0.021049208636349067,0.015580928726517595
1772733826954148600,7.340148681640625,0.12543313682973384,-0.027686947884084656,0.023870659265248104
1772733826964163600,7.35016357421875,0.1071440314233303,-0.007759966477006673,0.006779997262638062
1772733826974178600,7.360178466796875,0.083912208917737,-0.004767223534965888,-0.005829231309867464
1772733826984193500,7.370193603515625,0.05589432117938995,0.006338445773907005,-0.0034491723394952712
1772733826994208500,7.38020849609375,0.025638299125432966,0.01435151022914797,-0.010177991970744914
1772733827004223500,7.390223388671875,-0.004457563930749893,0.011524826302705331,-0.0005672282615909352
1772733827014238700,7.40023876953125,0.010503858357667923,0.0106488563189283,0.009168860593973658
1772733827024252700,7.410252685546875,0.01350771634876728,0.019211143021611497,0.024064035546034573
1772733827034267600,7.420267578125,0.014874913048744201,0.01051919292411767,0.013139161597588099
1772733827044282600,7.43028271484375,0.023730419677495954,0.008046089942008257,0.004822488253004849
1772733827054297600,7.440297607421875,0.05159107102751732,0.018870805151341482,0.005849187252507545
1772733827064312600,7.4503125,0.05625555570721626,0.0029248927370645102,-0.006283564648358151
1772733827074327800,7.460327880859375,0.07318447867631912,0.0019565134957898406,-0.006465926344785839
1772733827084342800,7.4703427734375,0.0878594852387905,-0.008993837387207895,0.011052578281611204
1772733827094356500,7.4803564453125,0.10746376489698886,-0.009058180460846051,0.0008488445148337632
1772733827104371500,7.490371337890625,0.11793138289749622,-0.021830522606614975,0.01502345010738354
1772733827114386400,7.500386474609375,0.10774141279458999,0.0011849446014035492,0.0205437296325108
1772733827124401700,7.510401611328125,0.07839256871342659,-0.006806373812910169,0.008048186000972055
1772733827134416600,7.520416748046875,0.05353109917938709,-0.007939295966131613,-0.0007082807000959292
1772733827144431600,7.530431640625,0.0428863710463047,0.007613059686450287,-0.006355419741594232
1772733827154446600,7.540446533203125,0.0404769718170166,0.006608074761833995,0.016715759709035046
1772733827164460500,7.55046044921875,0.023709376889467237,0.005510004726285114,0.0065237437795149155
1772733827174475800,7.560475830078125,0.017725041782855985,0.003203791876835748,0.013721167303202672
1772733827184490800,7.57049072265625,0.01938099229633808,0.0005845766886137426,0.007255661083525046
1772733827194505700,7.580505615234375,0.02732698286473751,0.01746687490385957,-0.010285429834015666
1772733827204520700,7.590520751953125,0.04889233346283436,0.0027102818720042706,-0.01683081918975804
1772733827214535700,7.60053564453125,0.045318566629290576,-0.0014209818469826131,0.011505916106258519
1772733827224550700,7.610550537109375,0.06568389378786087,-0.003236981760384515,0.015592313203634692
1772733827234564600,7.620564697265625,0.07856266458332538,-0.009559736774815246,0.010033363902242853
1772733827244579600,7.63057958984375,0.0838034878462553,0.004722324947314336,0.013976575969532131
1772733827254594600,7.640594482421875,0.08619418237507342,-0.001194306084793061,0.005413485549250617
1772733827264609500,7.650609619140625,0.08229425232708454,0.007214589287620038,0.0028044218622846526
1772733827274624500,7.66062451171875,0.06267945127487182,-0.010845045611308887,-0.011507464175950735
1772733827284639500,7.670639404296875,0.061169631233811375,-0.010638499321695416,0.005361321537173353
1772733827294654700,7.68065478515625,0.05517185212373733,-0.00903248889716342,0.001983278205129318
1772733827304668700,7.690668701171875,0.05067395618259907,0.002169242931017652,0.019580848550260998
1772733827314683600,7.70068359375,0.04932254157364368,0.015322437620535492,0.027060765110026114
1772733827324698600,7.71069873046875,0.04333762194514274,0.0203012854790315,0.009599356399150565
1772733827334713600,7.720713623046875,0.029277532410621643,0.0110166027859319,0.005741356663592159
1772733827344728800,7.730728759765625,0.022553192591667173,0.010465462576039135,-0.014882219572365282
1772733827354743800,7.740743896484375,0.028999299991130826,0.005541349712619558,-0.009878703063493593
1772733827364758800,7.7507587890625,0.05429857642054557,0.004650985877308994,-0.0007398631484480574
1772733827374772500,7.7607724609375,0.06612988398969173,0.0014971066899597645,0.01050392685632687
1772733827384787500,7.770787353515625,0.07900397861003876,0.0013654248679988085,0.009178984695766121
1772733827394802700,7.780802734375,0.09007949937582016,0.014650493175722657,0.007824720542598515
1772733827404817700,7.790817626953125,0.08169570191204548,0.006193210350628942,0.009879707710491493
1772733827414832600,7.80083251953125,0.07750000378787517,-0.01274483308433555,-0.0076448704636655745
1772733827424847600,7.81084765625,0.06312544147670268,-0.0012524294801987707,0.0031758124579442664
1772733827434861600,7.820861572265625,0.06850304286181927,0.006189191762637347,-0.013728131333529016
1772733827444876500,7.83087646484375,0.05502864426076412,-0.0052072223874274634,0.0004965604784432798
1772733827454891800,7.840891845703125,0.03437339424490928,0.0175823636428453,0.007379470126284286
1772733827464906800,7.85090673828125,0.04978431386649608,0.010958917781943455,0.007512731983978301
1772733827474921700,7.860921630859375,0.05307809471487999,0.019384718623384832,0.010805626916373148
1772733827484936700,7.870936767578125,0.04784662380218505,0.014846709867566824,-0.012915011152625083
1772733827494951700,7.88095166015625,0.04111994589567184,-0.009834873054921627,0.008657860598224215
1772733827504965600,7.890965576171875,0.06342354764044285,-0.005865211372124031,0.001303008889965713
1772733827514980600,7.900980712890625,0.06417758087813853,0.011980205387389286,-0.008367458250327035
1772733827524995600,7.91099560546875,0.07465688931643963,0.006177428259607404,0.008405516105238348
1772733827535010600,7.921010498046875,0.06807400379478931,0.004704031238798052,0.012830803467892109
1772733827545025500,7.931025634765625,0.055503860557079315,0.00722770449751988,0.020024208403588272
1772733827555040500,7.94104052734375,0.06717208651900292,-0.002602492382284254,0.02091242138100788
1772733827565055500,7.951055419921875,0.06866378638148307,0.007992560523329303,0.0035123098367359487
1772733827575069700,7.961069580078125,0.06820785930752754,0.002854978439165279,-0.01111485269574914
1772733827585084700,7.971084716796875,0.05249006569385528,0.005652363205887377,0.0014443170567974447
1772733827595099600,7.981099609375,0.053981765556335444,0.0038203254731372,0.0048699441239237785
1772733827605114600,7.991114501953125,0.041410453274846076,-0.007409965729247779,-0.0010259272479452193
1772733827615129600,8.001129638671875,0.054878422135114666,0.011078644304629414,0.006859300443390384
1772733827625144800,8.011144775390624,0.040216275054216384,0.01063919344143942,0.015881181181571447
1772733827635158500,8.021158447265625,0.0023877719193696975,0.026697224460681897,0.006245694023114629
1772733827645173500,8.031173583984375,-0.19175357495546339,0.08575632068077102,0.03185861211211886
1772733827655189000,8.04118896484375,-0.2951870614230633,0.10436624640622176,0.01568109659878537
1772733827665204000,8.051203857421875,-0.0888753842830658,0.07530517889102921,0.0008964510828023776
1772733827675219000,8.061218994140624,-0.07519055780172347,0.03639372109137475,0.006688062929175793
1772733827685234200,8.071234130859375,0.15363105731010437,0.013691162607294973,-0.01888838190722745
1772733827695249200,8.081249267578125,0.2692968333631754,-0.018899907948239706,-0.0038089272962883113
1772733827705263000,8.09126318359375,0.3670060969650745,-0.0402473506124923,0.015377190881920978
1772733827715278000,8.101278076171875,0.4853747022360563,-0.057452282077958806,0.01619659010656178
