time,seconds_elapsed,z,y,x
1772733819683352300,0.069352294921875,-0.0002915754448622465,0.0006766915321350098,-0.03273032605648041
1772733819693367300,0.0793671875,-0.002450600266456604,-0.0027236323803663254,0.0253931675106287
1772733819703382300,0.08938232421875,-0.00014976365491747856,-0.003778651123866439,0.07870666682720184
1772733819713397200,0.099397216796875,0.0013163061812520027,-0.0050170207396149635,0.12064878642559052
1772733819723412200,0.109412109375,0.0012308331206440926,-0.007453045807778835,0.1432870328426361
1772733819733427200,0.11942724609375,0.0020787836983799934,-0.006149427965283394,0.1519404500722885
1772733819743442200,0.129442138671875,0.0031668944284319878,-0.008543964475393295,0.14391541481018066
1772733819753456000,0.1394560546875,0.00146486796438694,-0.005764156114310026,0.1253470629453659
1772733819763471000,0.14947119140625,0.0007669646292924881,-0.00506460340693593,0.09365273267030716
1772733819773486000,0.159486083984375,0.0014615170657634735,-0.004047009628266096,0.052405957132577896
1772733819783501000,0.1695009765625,-0.0006480838637799025,0.0007113427855074406,0.008263204246759415
1772733819793516000,0.17951611328125,-0.0008885674178600311,0.0012373172212392092,-0.03181843459606171
1772733819803531300,0.18953125,0.0014587766490876675,0.003609282895922661,-0.06897188723087311
1772733819813546200,0.199546142578125,0.0003807288594543934,0.0039403135888278484,-0.09423357248306274
1772733819823561200,0.209561279296875,0.0017563425935804844,0.005254849325865507,-0.10471777617931366
1772733819833575200,0.2195751953125,-0.0017449152655899525,0.00665407394990325,-0.10422216355800629
1772733819843590100,0.229590087890625,-0.0012068597134202719,0.005144831258803606,-0.09374143928289413
1772733819853605400,0.23960546875,-0.0011264323256909847,0.0034744965378195047,-0.0726097896695137
1772733819863620400,0.249620361328125,-0.001844140700995922,0.001363641582429409,-0.04423322528600693
1772733819873635300,0.25963525390625,-0.0001548975706100464,0.0010728244669735432,-0.012683557346463203
1772733819883650000,0.269650146484375,0.0006274119950830936,-0.0012631772551685572,0.01867351308465004
1772733819893665000,0.2796650390625,0.0008876030333340168,-0.002601948333904147,0.04439592361450195
1772733819903680000,0.289679931640625,0.000887132715433836,-0.002642605686560273,0.06503129750490189
1772733819913695000,0.299695068359375,0.0004871259443461895,-0.004430119879543781,0.07318376749753952
1772733819923709200,0.309709228515625,-0.0003067001234740019,-0.003643579548224807,0.07473455369472504
1772733819933724200,0.31972412109375,0.0002280627377331257,-0.0026134687941521406,0.06546196341514587
1772733819943739100,0.3297392578125,-0.001576865091919899,-0.0026432573795318604,0.04853558540344238
1772733819953754000,0.339754150390625,0.0012090676464140415,-0.001629924401640892,0.029416752979159355
1772733819963769000,0.34976904296875,0.0009534480050206184,-0.0005320215132087469,0.003914628643542528
1772733819973784300,0.359784423828125,-0.00043725455179810524,0.0008602791931480169,-0.01792249269783497
1772733819983799300,0.36979931640625,-0.0005536512471735477,0.0010390372481197119,-0.0360150970518589
1772733819993814300,0.379814208984375,-0.00007082009688019753,0.0010201288387179375,-0.0487455390393734
1772733820003829200,0.389829345703125,-0.0006774323992431164,0.001127838622778654,-0.05391731113195419
1772733820013843200,0.39984326171875,0.0006669312715530396,0.0024852517526596785,-0.051766011863946915
1772733820023858200,0.409858154296875,-0.00028549833223223686,0.002063670428469777,-0.04259341210126877
1772733820033873200,0.419873046875,-0.0005113345105201006,0.0010641859844326973,-0.028914349153637886
1772733820043888000,0.42988818359375,-0.000008704140782356262,0.00009106984362006187,-0.012799168936908245
1772733820053903000,0.439903076171875,0.0011103558354079723,-0.000979254487901926,0.006875998340547085
1772733820063918000,0.44991796875,-0.00010226480662822723,-0.000955821480602026,0.020309122279286385
1772733820073933000,0.45993310546875,0.0000945432111620903,-0.0007752594538033009,0.03298337385058403
1772733820083948000,0.469947998046875,0.0008029565215110779,-0.0019228418823331594,0.038326844573020935
1772733820093962200,0.479962158203125,0.0014551645144820213,-0.0019476094748824835,0.03990583121776581
1772733820103977200,0.489977294921875,-0.000986316241323948,-0.0016102204099297523,0.03261687606573105
1772733820113992200,0.4999921875,0.00037162983790040016,-0.0020991768687963486,0.02311019040644169
1772733820124007200,0.510007080078125,-0.00047088204883039,-0.000047800131142139435,0.01076512224972248
1772733820134022100,0.520022216796875,0.00019863666966557503,-0.0008057358209043741,-0.002569591859355569
1772733820144037000,0.530037109375,-0.003019011113792658,0.0011869017034769058,-0.01396194938570261
1772733820154052400,0.54005224609375,-0.0014275060966610909,0.0014612074010074139,-0.024088352918624878
1772733820164067300,0.5500673828125,-0.0008727048989385366,0.0013057671021670103,-0.029018262401223183
1772733820174082300,0.560082275390625,0.00031905993819236755,0.0007054908201098442,-0.030092580243945122
1772733820184096000,0.570095947265625,0.0021239975467324257,0.00016374420374631882,-0.024105573073029518
1772733820194111200,0.580111328125,0.0003892146050930023,0.0011128948535770178,-0.01683567650616169
1772733820204126200,0.590126220703125,-0.0009731035679578781,0.001498343190178275,-0.007462683599442244
1772733820214141200,0.60014111328125,-0.0003720279783010483,0.00019286153838038445,0.0032578716054558754
1772733820224156200,0.61015625,-0.00007658964022994041,-0.000025517307221889496,0.010738493874669075
1772733820234171100,0.620171142578125,0.0007404680363833904,0.00038780528120696545,0.018184959888458252
1772733820244186000,0.63018603515625,0.0011881273239850998,-0.0010494445450603962,0.022342264652252197
1772733820254201000,0.640201171875,-0.0006987224332988262,-0.001430543139576912,0.021674077957868576
1772733820264216000,0.650216064453125,0.0000675511546432972,-0.0014922989066690207,0.01737016625702381
1772733820274230300,0.660230224609375,-0.0007718768902122974,-0.00013382034376263618,0.011620135977864265
1772733820284245200,0.670245361328125,0.0011048167943954468,-0.0011552893556654453,0.0047545237466692924
1772733820294260200,0.68026025390625,0.0007711229845881462,0.0010535363107919693,-0.004683452658355236
1772733820304275200,0.690275146484375,0.000780817586928606,-0.0005188530776649714,-0.011440734378993511
1772733820314290200,0.700290283203125,-0.0009856570977717638,0.0009629300329834223,-0.016051199287176132
1772733820324305400,0.710305419921875,0.00040359795093536377,-0.0011307613458484411,-0.018509626388549805
1772733820334320000,0.720320068359375,0.0003551281988620758,0.0013345270417630672,-0.01565897837281227
1772733820344335000,0.730335205078125,0.00017689215019345284,0.00022046989761292934,-0.01131687592715025
1772733820354349000,0.74034912109375,0.0011295047588646412,0.0017837454797700047,-0.006134631112217903
1772733820364364000,0.750364013671875,0.0011145882308483124,0.0015805463772267103,-0.00030630285618826747
1772733820374379300,0.760379150390625,0.0032206159085035324,0.0011965185403823853,0.006652004085481167
1772733820384394200,0.770394287109375,0.00011509237810969353,0.00021330639719963074,0.010618203319609165
1772733820394409200,0.7804091796875,0.002095951698720455,-0.0008381095249205828,0.013672050088644028
1772733820404424200,0.790424072265625,-0.0008803491946309805,-0.0011733106803148985,0.013341952115297318
1772733820414439200,0.800439208984375,-0.00037381588481366634,0.0010134107433259487,0.010307280346751213
1772733820424454100,0.8104541015625,-0.0008291350677609444,-0.001336029265075922,0.007561363745480776
1772733820434468400,0.82046826171875,-0.0003710715100169182,-0.0014140596613287926,0.0008571224752813578
1772733820444483300,0.8304833984375,0.0013655363582074642,0.0017616390250623226,-0.0022746892645955086
1772733820454498300,0.840498291015625,0.0005607288330793381,0.0008034335914999247,-0.0059775481931865215
1772733820464513000,0.850512939453125,-0.0011067052837461233,-0.0014212823007255793,-0.010767444036900997
1772733820474528000,0.860528076171875,0.000555107370018959,0.00032814801670610905,-0.010773036628961563
1772733820484543000,0.87054296875,0.0002701100893318653,0.00045263487845659256,-0.009817267768085003
1772733820494558200,0.88055810546875,0.00034201517701148987,0.00017433473840355873,-0.007635073736310005
1772733820504573200,0.8905732421875,-0.0008264556527137756,0.00007839011959731579,-0.002472073305398226
1772733820514588200,0.900588134765625,-0.0013226026203483343,0.000287181930616498,0.00019215315114706755
1772733820524602000,0.91060205078125,0.0008845990523695946,0.00010739406570792198,0.004670725204050541
1772733820534617000,0.9206171875,0.00004996452480554581,-0.0012223224621266127,0.009221002459526062
1772733820544632300,0.93063232421875,0.0014579552225768566,-0.0008749535772949457,0.008007440716028214
1772733820554647300,0.940647216796875,0.0010278546251356602,-0.0010999904479831457,0.008116896264255047
1772733820564662300,0.950662353515625,-0.0009610806591808796,0.0034412036184221506,0.0063841380178928375
1772733820574677200,0.96067724609375,-0.0005504211876541376,-0.0012105400674045086,0.0026280153542757034
1772733820584692200,0.970692138671875,-0.0007622207049280405,0.001322559779509902,0.0022632027976214886
1772733820594707200,0.980707275390625,0.00033846357837319374,0.0005521073471754789,-0.004172592423856258
1772733820604721200,0.99072119140625,-0.0002536345273256302,0.0013435881119221449,-0.005786912515759468
1772733820614736100,1.000736083984375,0.0009573050774633884,-0.0014000004157423973,-0.007230079732835293
1772733820624751000,1.010751220703125,0.00016512256115674973,0.0009790402837097645,-0.006024773698300123
1772733820634766000,1.02076611328125,0.0013949703425168991,-0.0011775873135775328,-0.006333700381219387
1772733820644781000,1.030781005859375,-0.0005916140507906675,0.0008103093132376671,-0.0033694286830723286
1772733820654796300,1.04079638671875,0.00011518876999616623,0.0003594360314309597,-0.00039707485120743513
1772733820664811300,1.050811279296875,0.0018622670322656631,0.00026928260922431946,0.0029341266490519047
1772733820674826500,1.060826416015625,-0.0018818709068000317,-0.0005395193584263325,0.00493602454662323
1772733820684841500,1.070841552734375,0.0006808903999626637,0.0013201311230659485,0.007060559466481209
1772733820694855400,1.08085546875,0.0012007392942905426,-0.0004700457211583853,0.005664530210196972
1772733820704870400,1.090870361328125,0.0001733698882162571,-0.0005573004018515348,0.005336800590157509
1772733820714885400,1.100885498046875,0.0003280993551015854,0.0006168873514980078,0.0020512589253485203
1772733820724900600,1.110900634765625,0.00003306148573756218,-0.0008537760004401207,0.0013414205750450492
1772733820734915600,1.12091552734375,-0.0005096909590065479,-0.0007994477637112141,-0.0022077742032706738
1772733820744930600,1.1309306640625,-0.0010790438391268253,-0.0013462845236063004,-0.005183123517781496
1772733820754945300,1.1409453125,0.0009398986585438251,0.00012378045357763767,-0.004105607978999615
1772733820764960300,1.150960205078125,-0.00025267433375120163,0.0012433375231921673,-0.005724945571273565
1772733820774974500,1.160974365234375,-0.0012646752875298262,0.0012220321223139763,-0.00420561246573925
1772733820784989400,1.170989501953125,-0.00018016621470451355,0.00029371329583227634,-0.0025648637674748898
1772733820795004400,1.18100439453125,-0.000014251098036766052,-0.000039714621379971504,0.00005941500421613455
1772733820805019400,1.191019287109375,0.00014222366735339165,-0.0006566811352968216,0.0018617804162204266
1772733820815034400,1.201034423828125,0.00023170607164502144,-0.00034482497721910477,0.004202965181320906
1772733820825049300,1.21104931640625,-0.0007853945717215538,-0.0015721565578132868,0.00558223482221365
1772733820835064300,1.221064208984375,0.0002063666470348835,-0.00039610452950000763,0.0036455837544053793
1772733820845079300,1.231079345703125,0.0007085306569933891,-0.0023779701441526413,0.0029529393650591373
1772733820855093500,1.241093505859375,0.0017072162590920925,0.0006212820298969746,0.0012336026411503553
1772733820865108500,1.2511083984375,-0.0006506205536425114,0.0007697911933064461,0.0006405813619494438
1772733820875123500,1.26112353515625,-0.0007720605935901403,0.0017200071597471833,-0.002614866942167282
1772733820885138200,1.27113818359375,0.0004681050777435303,-0.0011376463808119297,-0.0032393080182373524
1772733820895153400,1.2811533203125,-0.00052658561617136,-0.0011869152076542377,-0.002767662052065134
1772733820905168400,1.29116845703125,0.00002876250073313713,0.0001489559654146433,-0.003979911096394062
1772733820915183400,1.301183349609375,0.000039948150515556335,-0.0006353450007736683,-0.003405200783163309
1772733820925198300,1.3111982421875,0.000037264078855514526,-0.0011507486924529076,-0.0016799613367766142
1772733820935213300,1.32121337890625,-0.001001102151349187,0.000012253643944859505,0.0008769396226853132
1772733820945227300,1.331227294921875,-0.0003444163594394922,0.00042921025305986404,0.0016548964194953442
1772733820955242500,1.341242431640625,-0.001339905895292759,-0.0007875880692154169,0.0017283996567130089
1772733820965257500,1.351257568359375,-0.0007022465579211712,0.00018283887766301632,0.003239918500185013
1772733820975272400,1.3612724609375,0.0020485324785113335,-0.0006624483503401279,0.004494799766689539
1772733820985287400,1.371287353515625,0.00012102117761969566,-0.0013077605981379747,0.0020135329104959965
1772733820995302400,1.381302490234375,0.0010845530778169632,0.0017828380223363638,-0.0001063434174284339
1772733821005317400,1.3913173828125,-0.000440697418525815,-0.0007560427766293287,-0.0013309994246810675
1772733821015332400,1.401332275390625,0.0016418946906924248,0.0005864566192030907,-0.0016255450900644064
1772733821025346300,1.41134619140625,-0.0008735496085137129,-0.00037583312951028347,-0.0024335666093975306
1772733821035361300,1.421361328125,0.0008971863426268101,-0.000642149243503809,-0.003642108989879489
1772733821045376300,1.431376220703125,-0.0005066040903329849,0.0010709143243730068,-0.0017395283794030547
1772733821055391200,1.44139111328125,0.0007661203853785992,-0.0003136631567031145,-0.003955811262130737
1772733821065406200,1.45140625,-0.000908905640244484,-0.0002465839497745037,-0.00024931353982537985
1772733821075421400,1.46142138671875,-0.001280416501685977,0.0013092346489429474,-0.0008330784039571881
1772733821085436400,1.4714365234375,4.116445779800415e-7,-0.0013066073879599571,0.0017800175119191408
1772733821095451400,1.481451416015625,-0.0014765774831175804,0.0012894421815872192,0.003020251402631402
1772733821105465300,1.49146533203125,0.0009290655143558979,-0.0002488300669938326,0.002501515205949545
1772733821115480300,1.501480224609375,-0.0012416772078722715,0.0011437367647886276,0.0009640723001211882
1772733821125495600,1.51149560546875,0.00032706838101148605,0.0011753130238503218,0.0009191711433231831
1772733821135510500,1.521510498046875,-0.0019515322055667639,0.00029034470207989216,0.0007367446087300777
1772733821145525500,1.531525390625,0.0012201443314552307,0.0003223076928406954,-0.0002658626763150096
1772733821155540500,1.54154052734375,-0.0006496608257293701,0.00003095786087214947,-0.002159103751182556
1772733821165555500,1.551555419921875,-0.0005353344604372978,0.000591010320931673,-0.0025251139886677265
1772733821175570400,1.5615703125,0.0007629566825926304,0.0011934172362089157,-0.00246439385227859
1772733821185585400,1.57158544921875,0.0009683715179562569,-0.00038845185190439224,-0.002244748640805483
1772733821195599400,1.581599365234375,-0.002252188976854086,-0.0006806007586419582,-0.0015912087401375175
1772733821205614300,1.5916142578125,-0.0006420416757464409,0.0012256898917257786,-0.000018878490664064884
1772733821215629300,1.60162939453125,0.000936092808842659,-0.0012812924105674028,0.0009447844931855798
1772733821225644300,1.611644287109375,-0.00020484533160924911,0.00017820554785430431,0.001603271346539259
1772733821235659300,1.6216591796875,0.0006731986068189144,-0.00008677900768816471,0.0022632027976214886
1772733821245674500,1.631674560546875,-0.0007087525445967913,0.00006970437243580818,0.0012738199438899755
1772733821255689500,1.641689453125,0.00023160967975854874,0.000920318067073822,0.0003931125393137336
1772733821265704400,1.651704345703125,0.00012201862409710884,-0.00041603855788707733,0.00003078486770391464
1772733821275718400,1.661718505859375,0.00016303127631545067,0.000048949383199214935,-0.0006762843695469201
1772733821285733400,1.6717333984375,-0.00046076555736362934,-0.001409175805747509,-0.001351192477159202
1772733821295748400,1.681748291015625,-0.00003439374268054962,-0.0006190156564116478,-0.002612199168652296
1772733821305763600,1.691763671875,0.00238114595413208,0.00016220961697399616,-0.00027525651967152953
1772733821315778600,1.701778564453125,0.00029429327696561813,0.0005033605266362429,-0.0022625073324888945
1772733821325793500,1.71179345703125,0.0001670457422733307,0.00034876842983067036,0.001496212324127555
1772733821335808300,1.721808349609375,-0.0009016809053719044,0.00013864482752978802,-0.0006351154879666865
1772733821345823200,1.7318232421875,-0.0006326234433799982,0.0017421413213014603,0.0018478842684999108
1772733821355837400,1.74183740234375,-0.00006616907194256783,0.0003905871417373419,0.001268114079721272
1772733821365852400,1.751852294921875,-0.001214725198224187,0.0006178445182740688,-0.00004180357791483402
1772733821375867400,1.761867431640625,-0.00004160264506936073,-0.0006199928466230631,0.00030813587363809347
1772733821385882400,1.77188232421875,0.0003183400258421898,-0.00005406932905316353,0.0010515990434214473
1772733821395897300,1.7818974609375,-0.00036582606844604015,0.0008916191291064024,0.00008620321750640869
1772733821405912300,1.791912353515625,-0.0023626466281712055,-0.00006618862971663475,0.0001896906178444624
1772733821415927300,1.80192724609375,-0.000060344114899635315,-0.0002254457212984562,-0.0008984770392999053
1772733821425942500,1.811942626953125,0.0005644345656037331,-0.001378634013235569,0.00045944692101329565
1772733821435956500,1.82195654296875,0.0009340811520814896,-0.0007799551822245121,-0.0029142454732209444
1772733821445971500,1.831971435546875,0.0012717475183308125,-0.0005868533626198769,-0.0004580169916152954
1772733821455986400,1.841986328125,-0.000006303656846284866,-0.00042972713708877563,-0.000028449110686779022
1772733821466001200,1.852001220703125,0.0011200057342648506,0.0004963339306414127,0.0009425183525308967
1772733821476016400,1.862016357421875,-0.00083901546895504,-0.00026985746808350086,0.00043625140096992254
1772733821486031400,1.87203125,-0.0016658660024404526,0.0006255337502807379,0.0014865800039842725
1772733821496046300,1.88204638671875,-0.0014861025847494602,-0.00007008388638496399,0.0012133397394791245
1772733821506061300,1.892061279296875,-0.00014902232214808464,-0.001201016828417778,0.0020980883855372667
1772733821516075300,1.9020751953125,0.0013548647984862328,0.0004663884174078703,0.0010051270946860313
1772733821526090500,1.912090576171875,-0.0006085596978664398,-0.0003364498261362314,0.002027764916419983
1772733821536105500,1.92210546875,-0.0006764703430235386,0.00038260361179709435,0.0007406593067571521
1772733821546120400,1.932120361328125,-0.0015745209529995918,0.0000944801140576601,-0.0009213803568854928
1772733821556135400,1.942135498046875,-0.0019082152284681797,0.0006135301664471626,-0.0021693375892937183
1772733821566150400,1.952150390625,0.0007585943676531315,-0.00015162327326834202,-0.002044361550360918
1772733821576165400,1.962165283203125,0.0004960065707564354,-0.0012299369554966688,-0.0011695129796862602
1772733821586180400,1.972180419921875,0.00030920933932065964,-0.000022403663024306297,0.000032724812626838684
1772733821596195600,1.982195556640625,-0.00043807365000247955,-0.0013081780634820461,-0.00003065844066441059
1772733821606209300,1.992209228515625,-0.0008368976414203644,-0.00037520984187722206,0.0014003533869981766
1772733821616224300,2.002224365234375,-0.0006017403211444616,0.000401367899030447,0.0002986035542562604
1772733821626239200,2.0122392578125,0.00031098583713173866,0.00042557669803500175,0.0018911012448370457
1772733821636254200,2.022254150390625,0.0006577293388545513,-0.00009640282951295376,0.00011876760981976986
1772733821646269400,2.03226953125,0.0014477940276265144,0.000302750151604414,0.0020857593044638634
1772733821656284400,2.042284423828125,-0.0010899321641772985,0.000540570355951786,0.0015427409671247005
1772733821666299400,2.05229931640625,-0.0007245009765028954,0.0009923814795911312,0.00017215288244187832
1772733821676314400,2.062314453125,-0.0007769651710987091,0.0016099686035886407,-0.0003048193175345659
1772733821686328300,2.072328369140625,0.000311240553855896,-0.0002871931064873934,-0.0006649188580922782
1772733821696343300,2.08234326171875,0.00019459379836916924,0.0004257350228726864,-0.002000227803364396
1772733821706358500,2.092358642578125,0.0005852673202753067,0.0005192917305976152,-0.000871964730322361
1772733821716373500,2.10237353515625,0.00008299527689814568,-0.000495905289426446,-0.002215529326349497
1772733821726388500,2.112388427734375,-0.0011431591119617224,-0.000024132663384079933,-0.0013035250594839454
1772733821736403500,2.122403564453125,-0.000729304039850831,0.0003199479542672634,0.00011487456504255533
1772733821746418400,2.13241845703125,0.0009863339364528656,-0.0021635466255247593,0.0001661783317103982
1772733821756433400,2.142433349609375,-0.00011728005483746529,0.0004514113534241915,0.0019667414017021656
1772733821766447600,2.152447509765625,0.00010696612298488617,-0.00035083782859146595,0.002761358395218849
1772733821776462300,2.16246240234375,0.0001154881902039051,0.000029727816581726074,0.0016867727972567081
1772733821786477300,2.172477294921875,-0.0014352493453770876,-0.0010429532267153263,0.0017134619411081076
1772733821796492300,2.1824921875,0.0018186005763709545,0.0005956897512078285,0.0014817670453339815
1772733821806507300,2.19250732421875,0.0002060355618596077,0.00012150616385042667,0.0006017135456204414
1772733821816522200,2.202522216796875,-0.00018837861716747284,0.000675709918141365,-0.0009887262713164091
1772733821826537500,2.212537353515625,0.00040011992678046227,-0.0007021799683570862,-0.0008791297441348433
1772733821836552400,2.222552490234375,0.00021955789998173714,-0.0005261448677629232,-0.0003646070254035294
1772733821846566400,2.23256640625,0.0002296213060617447,-0.0008129316847771406,-0.0012941332533955574
1772733821856581400,2.242581298828125,0.00045226141810417175,-0.0006954863201826811,-0.0021061310544610023
1772733821866596400,2.252596435546875,0.0017338390462100506,-0.0007712754886597395,-0.0008053987403400242
1772733821876611600,2.262611572265625,0.00019213510677218437,-0.0008170816581696272,0.0005690586986020207
1772733821886626600,2.27262646484375,0.00016855541616678238,-0.00038182432763278484,0.0004982749233022332
1772733821896641500,2.2826416015625,-0.0009552983101457357,-0.0010795725975185633,0.003092193976044655
1772733821906656500,2.292656494140625,0.00009974325075745583,0.00042104232124984264,0.0026158252730965614
1772733821916671500,2.30267138671875,-0.0005945430602878332,-0.001749167451635003,0.0016272598877549171
1772733821926685400,2.312685546875,-0.00027253199368715286,-0.001136070117354393,0.0012497523566707969
1772733821936700400,2.322700439453125,0.0009322823025286198,0.000020807143300771713,0.0005152525845915079
1772733821946715400,2.33271533203125,0.00014147860929369926,-0.0010196701623499393,0.001142699271440506
1772733821956730400,2.34273046875,0.0010501495562493801,-0.0004870377015322447,-0.0009883622406050563
1772733821966745300,2.352745361328125,-0.00043635605834424496,-0.0015267208218574524,-0.0008178162970580161
1772733821976760300,2.36276025390625,0.000012120231986045837,0.0004775740671902895,-0.0005685444339178503
1772733821986775300,2.372775390625,0.0016677379608154297,-0.00014056055806577206,-0.0016457150923088193
1772733821996790500,2.38279052734375,0.0012663998641073704,0.00010445038788020611,-0.0006547528319060802
1772733822006804500,2.392804443359375,-0.00028115534223616123,0.000027099158614873886,-0.0017682844772934914
1772733822016819500,2.4028193359375,0.00018037017434835434,-0.0010661287233233452,-0.0014705430949106812
1772733822026834400,2.41283447265625,0.001658400520682335,0.0003596781753003597,0.001466082758270204
1772733822036849400,2.422849365234375,-0.0001650662161409855,-0.003052363870665431,0.0006508891237899661
1772733822046864400,2.432864501953125,-0.0002698749303817749,0.00034996564500033855,0.00041796837467700243
1772733822056879600,2.442879638671875,0.0011365404352545738,-0.0001770739909261465,-0.00017538387328386307
1772733822066894600,2.45289453125,0.00111369788646698,-0.0010218862444162369,0.0011193425161764026
1772733822076909600,2.46290966796875,-0.001822969876229763,-0.00004956591874361038,0.000056741293519735336
1772733822086923300,2.47292333984375,0.0010955361649394035,-0.0000725872814655304,0.00042425806168466806
1772733822096938500,2.4829384765625,-0.00009729340672492981,-0.00032159266993403435,-0.0009083877084776759
1772733822106953500,2.492953369140625,0.00010570511221885681,0.0012957084691151977,-0.00039430754259228706
1772733822116968400,2.502968505859375,0.0016697798855602741,0.0006602781359106302,0.00023153529036790133
1772733822126983400,2.5129833984375,-0.0004631667397916317,0.0014304760843515396,-0.0005735769518651068
1772733822136998400,2.522998291015625,0.000684389378875494,-0.000973026966676116,-0.00018129334785044193
1772733822147013400,2.533013427734375,0.000906654167920351,-0.0016748611815273762,-0.0002463833661749959
1772733822157028400,2.5430283203125,0.00028800172731280327,-0.000942491926252842,0.00041461316868662834
1772733822167042600,2.55304248046875,0.00043679261580109596,-0.0007352607790380716,-0.00007665890734642744
1772733822177057500,2.5630576171875,0.00003305729478597641,-0.00047267298214137554,0.0011385416146367788
1772733822187072500,2.573072509765625,-0.0018382915295660496,-0.000988733023405075,0.00014681648463010788
1772733822197087500,2.58308740234375,-0.000792734557762742,0.00009623891673982143,-0.0002776914043352008
1772733822207102500,2.5931025390625,0.0016402574256062508,0.00042250053957104683,-0.0006016422412358224
1772733822217117400,2.603117431640625,-0.0002207597717642784,0.0004882807843387127,-0.0002319954801350832
1772733822227132400,2.61313232421875,-0.00016435235738754272,0.00048190774396061897,0.0007350554224103689
1772733822237147400,2.6231474609375,-0.00008499016985297203,0.001153823221102357,-0.001525968313217163
1772733822247162400,2.633162353515625,0.0003030034713447094,-0.0013764703180640936,-0.0020878503564745188
1772733822257176300,2.64317626953125,-0.0001366846263408661,-0.000017192913219332695,-0.0016343139577656984
1772733822267191300,2.65319140625,0.0009908126667141914,0.00035685207694768906,-0.0011345439124852419
1772733822277206500,2.66320654296875,0.002692839130759239,0.00040585407987236977,-0.0003065671189688146
1772733822287221500,2.673221435546875,0.000011345837265253067,-0.0018237943295389414,-0.0001395519357174635
1772733822297236500,2.683236572265625,-0.00042461371049284935,0.00005080457776784897,0.0008713840506970882
1772733822307251500,2.69325146484375,-0.000037736259400844574,0.00010578753426671028,0.0012037239503115416
1772733822317266400,2.703266357421875,0.0007668044418096542,0.00010365690104663372,0.0015312926843762398
1772733822327281400,2.713281494140625,0.000561214517802,-0.00044032977893948555,0.002086961641907692
1772733822337295600,2.723295654296875,-0.0005019195377826691,-0.00037827808409929276,0.0018067972268909216
1772733822347310600,2.733310546875,0.002408481203019619,0.000014766817912459373,0.00092494604177773
1772733822357325300,2.7433251953125,0.001624446827918291,0.00011809752322733402,-0.001056978479027748
1772733822367340300,2.75334033203125,-0.0007758147548884153,-0.0007381034083664417,-0.0008686066139489412
1772733822377355300,2.763355224609375,-0.0015966009814292192,0.0005974718369543552,-0.0011828596470877528
1772733822387370200,2.773370361328125,0.00032729702070355415,-0.0006535411812365055,-0.0026179440319538116
1772733822397385500,2.783385498046875,-0.002517225220799446,-0.0016751298680901527,-0.0013010107213631272
1772733822407400400,2.793400390625,0.0014464217238128185,-0.00044434424489736557,-0.002178819617256522
1772733822417414400,2.803414306640625,0.0013769129291176796,-0.0005388865247368813,-0.0011503067798912525
1772733822427429400,2.813429443359375,0.00044884905219078064,-0.0009579318575561047,-0.0010718319099396467
1772733822437444400,2.8234443359375,-0.0010672884527593851,-0.0011803056113421917,0.000997710507363081
1772733822447459600,2.83345947265625,0.001021679025143385,-0.0012281967792659998,0.0013829817762598395
1772733822457474600,2.843474609375,-0.00033387006260454655,-0.00048224558122456074,0.0019249351462349296
1772733822467489500,2.853489501953125,0.000489476602524519,-0.0011409430298954248,0.002720885444432497
1772733822477504500,2.86350439453125,-0.00020427722483873367,-0.0006935319397598505,0.0006486795609816909
1772733822487519500,2.87351953125,-0.000014687888324260712,0.001966341631487012,-0.0006115161813795567
1772733822497533400,2.883533447265625,0.000840719323605299,-0.00046086334623396397,-0.0011742421193048358
1772733822507548400,2.89354833984375,0.0010175388306379318,0.0008715786971151829,-0.0020396746695041656
1772733822517563400,2.9035634765625,0.00003137020394206047,-0.0019111584406346083,-0.0010010418482124805
1772733822527578400,2.913578369140625,-0.00004462525248527527,0.0011025669518858194,-0.001965917646884918
1772733822537593300,2.92359326171875,-0.0004206635057926178,-0.0005422013346105814,-0.0007413962157443166
1772733822547608300,2.9336083984375,-0.0004525633994489908,-0.001043927390128374,-0.000019288621842861176
1772733822557623300,2.943623291015625,-0.00022725993767380714,-0.001307047437876463,-0.0010438067838549614
1772733822567638300,2.95363818359375,-7.394701242446899e-7,-0.0002794060856103897,0.0012882935116067529
1772733822577652500,2.963652587890625,0.00015239231288433075,0.00016720592975616455,0.0023170728236436844
1772733822587667500,2.97366748046875,-0.0015536148566752672,0.00003088638186454773,0.002406851854175329
1772733822597682400,2.983682373046875,-0.0005021989345550537,-0.0010426337830722332,0.0006228003185242414
1772733822607697400,2.993697509765625,-0.0014196522533893585,-0.00003648875281214714,0.0008213130058720708
1772733822617712400,3.00371240234375,0.00045468052849173546,0.0001267632469534874,-0.0006402297294698656
1772733822627727600,3.0137275390625,-0.000004005618393421173,-0.0007429460529237986,-0.0008283467032015324
1772733822637742600,3.02374267578125,0.0005605844780802727,-0.0005730362609028816,-0.00022034707944840193
1772733822647757600,3.033757568359375,-0.0002403617836534977,-0.0014659629669040442,-0.0004595107166096568
1772733822657772000,3.04377197265625,0.001646753866225481,0.0001689514610916376,-0.001658998429775238
1772733822667787000,3.053787109375,-0.000060921069234609604,-0.0008406357374042273,-0.0007903505465947092
1772733822677802000,3.063802001953125,-0.000776246190071106,-0.0003447551280260086,0.0004815751453861594
1772733822687817200,3.073817138671875,0.0009399931877851486,0.0008413093164563179,-0.0005384385585784912
1772733822697832200,3.083832275390625,-0.0003290032036602497,-0.0005738942418247461,0.0008687756489962339
1772733822707847200,3.09384716796875,0.0012479135766625404,-0.00005427165888249874,0.0007283216109499335
1772733822717862100,3.103862060546875,-0.0011278924066573381,0.0014975523808971047,-0.00022429111413657665
1772733822727876900,3.113876953125,0.00018969643861055374,-0.00008148583583533764,0.0014105712762102485
1772733822737891000,3.12389111328125,0.0011851862072944641,-0.0004524642135947943,0.001135733094997704
1772733822747906000,3.133906005859375,0.001649174839258194,0.0007509368006139994,0.0019440515898168087
1772733822757921000,3.143921142578125,0.0006187977269291878,-0.0009217946790158749,0.00011339457705616951
1772733822767936000,3.15393603515625,0.0022832779213786125,-0.0004952396266162395,-0.0023223133757710457
1772733822777951000,3.163950927734375,0.00022651860490441322,-0.00041667651385068893,-0.002266120631247759
1772733822787966000,3.173966064453125,-0.0017033761832863092,0.000357569195330143,-0.0012395272497087717
1772733822797981000,3.18398095703125,0.0003635031171143055,0.0009669004939496517,-0.0006099559832364321
1772733822807996200,3.19399609375,-0.00043970486149191856,-0.001066849334165454,0.0010586755815893412
1772733822818010000,3.204010009765625,0.00016323477029800415,-0.0008735039737075567,0.0005209834780544043
1772733822828025000,3.214025146484375,-0.0006774105131626129,-0.0004170790780335665,0.00010689208284020424
1772733822838040000,3.2240400390625,0.00006641028448939323,0.0012516577262431383,-0.0007996478816494346
1772733822848055000,3.234054931640625,-0.00017121434211730957,0.00027950177900493145,-0.00012894824612885714
1772733822858070000,3.244070068359375,-0.0010433995630592108,-0.0013346404302865267,0.00008570251520723104
1772733822868085000,3.2540849609375,-0.0004647693131119013,-0.0003932151012122631,0.0019956976175308228
1772733822878100000,3.264099853515625,0.0005666729994118214,-0.00003528641536831856,-0.00018090370576828718
1772733822888115000,3.274114990234375,-0.0005285607185214758,0.0004754636902362108,-0.00025867053773254156
1772733822898129000,3.28412890625,-0.0011259077582508326,-0.0012739668600261211,-0.0000493460102006793
1772733822908143900,3.294143798828125,0.00022171065211296082,-0.0004979467485100031,-0.0009619940537959337
1772733822918159000,3.3041591796875,-0.0007173202466219664,0.0019228666787967086,-0.0009326993022114038
1772733822928174000,3.314174072265625,0.002447409089654684,0.0007457397878170013,0.00011574779637157917
1772733822938189000,3.32418896484375,-0.002307398710399866,-0.00024389103055000305,-0.00021288637071847916
1772733822948204000,3.3342041015625,-0.0020191059447824955,-0.0003174340818077326,-0.0005777913611382246
1772733822958219000,3.344218994140625,0.00003472389653325081,-0.000007974682375788689,0.00010397785808891058
1772733822968234000,3.35423388671875,-0.0011136510875076056,-0.0006952232215553522,-0.0012036788975819945
1772733822978248200,3.364248291015625,-0.0010816932190209627,-0.000024106819182634354,0.0007774465484544635
1772733822988263200,3.37426318359375,0.0012743482366204262,-0.00015861960127949715,0.0017445138655602932
1772733822998278000,3.38427783203125,-0.0008665667846798897,-0.0003322577103972435,-0.0008877546060830355
1772733823008292900,3.39429296875,-0.0008106196764856577,0.0005670816171914339,0.0001734433462843299
1772733823018307800,3.404307861328125,-0.0007773300167173147,0.00042939605191349983,-0.0008103283471427858
1772733823028322800,3.41432275390625,-0.0008799282368272543,-0.0010276599787175655,-0.0005736115272156894
1772733823038338000,3.424338134765625,-0.00068818056024611,-0.0009847828187048435,-0.0009224856039509177
1772733823048353000,3.43435302734375,0.0007652430795133114,0.0007953012827783823,-0.0011294912546873093
1772733823058367000,3.444366943359375,0.0010882844217121601,0.0018653594888746738,-0.00010577216744422913
1772733823068382000,3.4543818359375,-0.0023199107963591814,0.0009230270516127348,0.0015593564603477716
1772733823078397000,3.46439697265625,0.001956326887011528,0.000322217820212245,0.001730864169076085
1772733823088412200,3.474412109375,-0.0005121850408613682,-0.00004585529677569866,0.00020519562531262636
1772733823098427100,3.48442724609375,-0.00046797655522823334,-0.0013800989836454391,0.0009109333623200655
1772733823108442000,3.494442138671875,-0.0008176665287464857,-0.00023606512695550919,-0.0003554481081664562
1772733823118457000,3.50445703125,0.002016469370573759,-0.0008248898666352034,0.0004187327576801181
1772733823128470800,3.514470703125,0.00017118779942393303,-0.0010328867938369513,0.000497994595207274
1772733823138486000,3.524486083984375,0.0011477689258754253,0.0006478342693299055,0.0011419468792155385
1772733823148501000,3.5345009765625,0.0004093348979949951,0.0014599165879189968,-0.0019600740633904934
1772733823158516000,3.544515869140625,0.00012490944936871529,0.0013129101134836674,-0.0024138768203556538
1772733823168531000,3.554531005859375,0.0002757902257144451,-0.0007532851304858923,-0.0010684637818485498
1772733823178546000,3.5645458984375,-0.00008160620927810669,0.0012733805924654007,-0.001042364863678813
1772733823188561000,3.574560791015625,0.0009591472335159779,-0.0006981776095926762,-0.00009091815445572138
1772733823198575900,3.584575927734375,-0.002249695360660553,0.001102119218558073,0.00011308002285659313
1772733823208590000,3.594590087890625,0.0022288477048277855,0.0008740576449781656,-0.0004267823533155024
1772733823218605000,3.60460498046875,-0.00028757331892848015,-0.0002609817311167717,0.0012960166204720736
1772733823228620000,3.6146201171875,-0.00012455927208065987,-0.0000311373732984066,0.0007247178582474589
1772733823238635000,3.624635009765625,-0.0005975367967039347,0.0008610214572399855,0.001415808335877955
1772733823248650000,3.63464990234375,0.0007054414600133896,0.0007864634972065687,0.0005646315403282642
1772733823258665000,3.6446650390625,-0.0011784785892814398,-0.0020575260277837515,0.0025667960289865732
1772733823268680200,3.65468017578125,0.0002855369821190834,0.001109372591599822,0.001255590352229774
1772733823278695200,3.664695068359375,0.0015345592983067036,-0.0009085044730454683,-0.0001415038714185357
1772733823288708900,3.674708984375,0.0006802226416766644,-0.002347785048186779,-0.00042650941759347916
1772733823298723800,3.684723876953125,0.0003265547566115856,0.000983829377219081,-0.0010046816896647215
1772733823308739000,3.694739013671875,-0.0033730464056134224,0.00027242908254265785,-0.002228890545666218
1772733823318754000,3.704754150390625,-0.0003676691558212042,-0.00031666201539337635,-0.001548453001305461
1772733823328769000,3.71476904296875,0.0009150798432528973,0.00039660511538386345,-0.0008297807071357965
1772733823338784000,3.724783935546875,0.00021919608116149902,-0.00015600095503032207,-0.0004039412597194314
1772733823348799000,3.734799072265625,0.0007366244681179523,0.0008814134635031223,0.00022575794719159603
1772733823358814000,3.74481396484375,0.0008330307900905609,0.0001277388073503971,0.0008918145904317498
1772733823368828200,3.754828125,0.0012716762721538544,0.0019068635301664472,-0.0019074412994086742
1772733823378843100,3.764843017578125,-0.0000015809200704097748,-0.0005301949568092823,0.0012129845563322306
1772733823388858000,3.774858154296875,-0.0011596858967095613,0.0009395531378686428,0.0009409382473677397
1772733823398873000,3.784873046875,-0.0023296126164495945,0.0005403454415500164,-0.0002447011647745967
1772733823408888000,3.79488818359375,0.0010914737358689308,0.0009580012410879135,0.00021090952213853598
1772733823418903000,3.804903076171875,-0.0005202714819461107,-0.0005264445208013058,-0.0018013749504461884
1772733823428918000,3.81491796875,0.000123653095215559,-0.001008931314572692,-0.00015514763072133064
1772733823438933000,3.82493310546875,0.0005899723619222641,-0.0018789859022945166,-0.002034007804468274
1772733823448947000,3.834947021484375,-0.0004173570778220892,0.0007460869383066893,0.00017919950187206268
1772733823458962000,3.8449619140625,0.00027506472542881966,-0.000665122177451849,-0.0009340017568320036
1772733823468977000,3.854976806640625,0.0009465599432587624,-0.00014687958173453808,0.0006035629194229841
1772733823478992000,3.864991943359375,-0.0013517478946596384,-0.0009940313175320625,0.00019956135656684637
1772733823489007000,3.875007080078125,-0.00019879266619682312,0.000330144539475441,-0.00002541800495237112
1772733823499022000,3.88502197265625,0.001354096457362175,-0.00017851917073130608,0.0007823188789188862
1772733823509037000,3.895037109375,0.001125191804021597,-0.00030902354046702385,0.0009639021009206772
1772733823519052000,3.905052001953125,-0.0011438215151429176,0.00018872134387493134,0.0020123887807130814
1772733823529066000,3.91506591796875,-0.001720106927677989,-0.0006949706003069878,0.0005170755321159959
1772733823539081200,3.925081298828125,0.0011659609153866768,0.0005798847414553165,-0.00029119389364495873
1772733823549096200,3.93509619140625,0.00097720418125391,-0.0003096628934144974,-0.00032169645419344306
1772733823559111200,3.945111083984375,0.0007415143772959709,0.0005790339782834053,-0.00126738497056067
1772733823569126100,3.955126220703125,0.0013987254351377487,-0.0018823007121682167,-0.0020666334312409163
1772733823579140900,3.965140869140625,0.0001451754942536354,-0.00029399129562079906,-0.0015593012794852257
1772733823589155800,3.97515576171875,0.0014103506691753864,-0.00043282099068164825,-0.0005086135352030396
1772733823599170000,3.985170166015625,-0.0008022033143788576,-0.0005060581024736166,0.0001539809163659811
1772733823609185000,3.99518505859375,-0.0003333105705678463,-0.00006115343421697617,-0.00009412970393896103
1772733823619200000,4.005199951171875,-0.0006374437361955643,-0.0012137694284319878,0.0005793838063254952
1772733823629215000,4.015215087890625,-0.0017067855224013329,-0.0007863654755055904,-0.0002875044010579586
1772733823639230000,4.02522998046875,0.0003403862938284874,-0.0008872989565134048,-0.00031759811099618673
1772733823649245000,4.035244873046875,0.0002561444416642189,0.0011465915013104677,0.000283824629150331
1772733823659259400,4.04525927734375,-0.0009531972464174032,-0.000497377710416913,-0.00007836532313376665
1772733823669274400,4.0552744140625,-0.0002717752940952778,0.0011421255767345428,0.000590620213188231
1772733823679288300,4.065288330078125,-0.0003474093973636627,0.000945850508287549,0.00019727135077118874
1772733823689303300,4.07530322265625,-0.0007576558273285627,-0.0006901838351041079,0.0003477680729702115
1772733823699318500,4.085318603515625,0.0006399708800017834,-0.0015410634223371744,-0.0015614521689713001
1772733823709333500,4.09533349609375,0.0002627265639603138,-0.000835346756502986,-0.0009125798824243248
1772733823719348500,4.105348388671875,0.0016497010365128517,-0.0007501256186515093,-0.00036743079544976354
1772733823729363500,4.115363525390625,0.0015308666042983532,0.00009325682185590267,0.0010731038637459278
1772733823739378400,4.12537841796875,0.00018037762492895126,0.0011406780686229467,0.00026909541338682175
1772733823749393400,4.135393310546875,-0.0011146999895572662,-0.001132030738517642,0.0005514941876754165
1772733823759407400,4.145407470703125,-0.0007258786354213953,-0.0008470721077173948,-0.000030406517907977104
1772733823769422300,4.15542236328125,-0.001608716556802392,0.00011938880197703838,0.001308897277340293
1772733823779437300,4.165437255859375,-0.001565874321386218,0.0014372675213962793,0.0011219511507079005
1772733823789452300,4.175452392578125,-0.0006975012365728617,-0.0002858450170606375,-0.00020520761609077454
1772733823799467300,4.18546728515625,-5.51808625459671e-7,0.0004113705363124609,-0.0011839193757623434
1772733823809482200,4.195482177734375,0.0009176619350910187,-0.0006227379199117422,0.00005498772952705622
1772733823819497500,4.20549755859375,0.00016691675409674644,-0.00001260777935385704,-0.0011413042666390538
1772733823829511400,4.215511474609375,-0.00037583475932478905,0.0009836757089942694,-0.0005521614220924675
1772733823839526400,4.2255263671875,0.0001224428415298462,-0.0011327383108437061,0.00033067644108086824
1772733823849541400,4.235541259765625,0.000994296744465828,0.0017161736031994224,0.000980739132501185
1772733823859556400,4.245556396484375,0.00002890080213546753,0.0010266811586916447,-0.00023286347277462482
1772733823869571300,4.2555712890625,-0.0011101055424660444,-0.0009444523602724075,-0.0017352490685880184
1772733823879586600,4.265586669921875,-0.00003472110256552696,0.0007831400725990534,-0.0002105893800035119
1772733823889601500,4.2756015625,-0.000038146041333675385,0.0009297467768192291,0.0000024605542421340942
1772733823899616500,4.285616455078125,-0.0010962202213704586,0.00034518283791840076,0.00034760625567287207
1772733823909630200,4.295630126953125,-0.001195654273033142,0.0009666085243225098,-0.0004046959220431745
1772733823919645200,4.305645263671875,-0.0007612928748130798,0.00011652754619717598,-0.0012651633005589247
1772733823929660400,4.315660400390625,0.00021321000531315804,-0.00021735532209277153,0.00025483465287834406
1772733823939675400,4.32567529296875,0.0021946015767753124,0.00036640954203903675,-0.0009790079202502966
1772733823949690400,4.3356904296875,-0.0006023875903338194,0.00022274348884820938,-0.0014607859775424004
1772733823959705300,4.345705322265625,-0.000053510069847106934,-0.0006861935835331678,-0.0009177675237879157
1772733823969720300,4.35572021484375,-0.0009961812756955624,-0.0006490349769592285,0.00012337788939476013
1772733823979735300,4.3657353515625,0.000015819910913705826,0.00046549784019589424,0.00013136747293174267
1772733823989749500,4.37574951171875,0.00006365496665239334,-0.0007671178318560123,-0.00018979189917445183
1772733823999764500,4.385764404296875,-0.00003514811396598816,0.0006643312517553568,0.0009084957418963313
1772733824009779500,4.395779541015625,0.0029309880919754505,-0.001147424802184105,0.0013302407460287213
1772733824019794400,4.40579443359375,0.00007900875061750412,0.00040306756272912025,-0.00009321887046098709
1772733824029809400,4.415809326171875,-0.0012068240903317928,-0.00009150337427854538,-0.00015953113324940205
1772733824039824400,4.425824462890625,0.0010376879945397377,0.00007760734297335148,-0.000650085392408073
1772733824049839600,4.435839599609375,-0.0009898170828819275,0.0002065438311547041,0.00040286791045218706
1772733824059854600,4.4458544921875,-0.0010545318946242332,-0.0005801536608487368,0.001128046540543437
1772733824069868300,4.455868408203125,0.0002481252886354923,0.001083077397197485,-0.00036074244417250156
1772733824079883300,4.46588330078125,-0.00027678394690155983,-0.0005750067066401243,0.0005548523040488362
1772733824089898200,4.475898193359375,0.0011743218638002872,0.0006643589586019516,0.0005392315797507763
1772733824099913500,4.48591357421875,0.0013389051891863346,0.0011370698921382427,0.0007738560670986772
1772733824109928400,4.495928466796875,-0.000850914977490902,0.00032384833320975304,0.0006055035628378391
1772733824119943400,4.505943359375,0.0004404517821967602,0.00020001153461635113,0.00041428860276937485
1772733824129958400,4.51595849609375,0.0002996465191245079,0.0014775095041841269,-0.0005985263851471245
1772733824139972400,4.525972412109375,-0.0009006403852254152,-0.0003672621678560972,0.00006912811659276485
1772733824149987600,4.535987548828125,-0.0003308115992695093,-0.00025073299184441566,-0.001047501340508461
1772733824160002600,4.54600244140625,-0.0001438576728105545,0.00004088296554982662,-0.0031101196072995663
1772733824170017500,4.556017578125,-0.00011989101767539978,-0.0000027213245630264282,-0.0013917393516749144
1772733824180032500,4.566032470703125,0.0017547081224620342,0.000548552954569459,-0.0006061068852432072
1772733824190047500,4.576047607421875,0.002425649669021368,0.0005238731391727924,-0.001278322422876954
1772733824200062200,4.586062255859375,-0.0005938422400504351,0.00006208079867064953,-0.00046818889677524567
1772733824210077200,4.5960771484375,-0.00009584380313754082,0.0007147861178964376,0.0007810516981408
1772733824220091400,4.60609130859375,-0.00003139534965157509,-0.0005371659062802792,-0.00013960304204374552
1772733824230106400,4.6161064453125,0.0004510115832090378,-0.000994382193312049,0.00045620696619153023
1772733824240121300,4.626121337890625,0.0006669936701655388,-0.0006926457863301039,0.00008975598029792309
1772733824250136300,4.63613623046875,-0.00014500413089990616,0.00021282886154949665,0.00006845069583505392
1772733824260151300,4.6461513671875,0.0004275757819414139,-0.00025855074636638165,0.000374980503693223
1772733824270166300,4.656166259765625,0.0003497842699289322,-0.0014430379960685968,-0.000932032591663301
1772733824280181500,4.666181396484375,0.0012017292901873589,0.0007668531034141779,-0.0012588024837896228
1772733824290195500,4.676195556640625,0.00033830665051937103,-0.0005864594131708145,0.0001076884800568223
1772733824300210400,4.68621044921875,-0.0005269544199109077,0.0006844010204076767,0.0005590942455455661
1772733824310225400,4.696225341796875,-0.0007428647950291634,0.001146773574873805,0.0014230950037017465
1772733824320240400,4.706240478515625,0.0001772572286427021,0.0008231995161622763,0.00000735861249268055
1772733824330255600,4.716255615234375,0.0021605445072054863,0.0006354372017085552,0.0006461320444941521
1772733824340270300,4.726270263671875,-0.0003367017488926649,0.0011949674226343632,-0.0010606879368424416
1772733824350285300,4.736285400390625,-6.295740604400635e-7,-0.0008929960895329714,-0.00008764443919062614
1772733824360300300,4.74630029296875,-0.001319959294050932,0.000507027842104435,0.000475081498734653
1772733824370314200,4.756314208984375,-0.00019808998331427574,0.000027233269065618515,0.00138128234539181
1772733824380329500,4.76632958984375,-0.0007885126397013664,0.00037663988769054413,0.0011764852097257972
1772733824390344400,4.776344482421875,-0.0004253862425684929,0.0017765562515705824,0.0011546012246981263
1772733824400359400,4.786359375,0.001430570613592863,-0.00041815475560724735,0.0004893435398116708
1772733824410374400,4.79637451171875,0.001440349966287613,-0.00008762488141655922,-0.00030454358784481883
1772733824420389400,4.806389404296875,0.0008059851825237274,0.00018987641669809818,-0.0011690056417137384
1772733824430404400,4.816404296875,-0.0008586575277149677,-0.00016416888684034348,-0.0009495052509009838
1772733824440418600,4.82641845703125,0.00017837760969996452,0.0010528957936912775,-0.0008701430633664131
1772733824450433500,4.83643359375,0.0004377770237624645,-0.0003065739292651415,-0.0011642364552244544
1772733824460448500,4.846448486328125,-0.0014133863151073456,0.00005934457294642925,0.00044963916298002005
1772733824470463200,4.856463134765625,0.0018781921826303005,0.00016266736201941967,0.00022803852334618568
1772733824480478200,4.866478271484375,-0.0013780549634248018,0.00002418295480310917,0.0002546701580286026
1772733824490493200,4.8764931640625,0.0015658796764910221,0.0007582015823572874,0.00032373249996453524
1772733824500508400,4.88650830078125,-0.0019502919167280197,0.0004335623234510422,0.00002492580097168684
1772733824510523400,4.8965234375,-0.0007026521489024162,-0.0016928911209106445,0.0003664422547444701
1772733824520537300,4.906537353515625,-0.0004973225295543671,0.0003116701263934374,0.00037176848854869604
1772733824530552300,4.91655224609375,-0.0019967833068221807,0.0003217277117073536,0.00016265211161226034
1772733824540567300,4.9265673828125,0.0004400089383125305,-0.0010266306344419718,0.0005591968074440956
1772733824550582500,4.93658251953125,0.0005262698978185654,0.0002785441465675831,0.0007712531369179487
1772733824560597500,4.946597412109375,-0.0026695234701037407,-0.00007965089753270149,0.0003147873794659972
1772733824570612500,4.956612548828125,-0.0008818248752504587,0.0003250821027904749,-0.0002643331536091864
1772733824580627500,4.96662744140625,-0.0003151041455566883,-0.000480524031445384,-0.0010201382683590055
1772733824590641400,4.976641357421875,0.0005704755894839764,-0.0004101460799574852,-0.00017813395243138075
1772733824600656400,4.986656494140625,0.0006122873164713383,-0.0007467698305845261,-0.0005544386222027242
1772733824610671400,4.99667138671875,0.0016886419616639614,-0.0008427253924310207,0.0011290883412584662
1772733824620686300,5.006686279296875,0.0003575938753783703,-0.0003124901559203863,-0.0002480321563780308
1772733824630701300,5.016701416015625,-0.0004966414999216795,-0.0008738997858017683,0.0006806959863752127
1772733824640716300,5.02671630859375,0.0019755708053708076,-0.0009705724660307169,-0.0002463504206389189
1772733824650731300,5.036731201171875,0.0009384090080857277,-0.0011793712619692087,0.0005657941801473498
1772733824660746800,5.046746826171875,0.0015373541973531246,0.0011804557871073484,-0.000596941914409399
1772733824670761000,5.056760986328125,-0.0005148244090378284,0.0015981269534677267,-0.0011514060897752643
1772733824680776000,5.06677587890625,0.0024002715945243835,-0.00009697512723505497,0.00043690321035683155
1772733824690791000,5.076791015625,0.0008570156060159206,-0.000004762783646583557,-0.0003207094268873334
1772733824700806000,5.086805908203125,0.0001539411023259163,-0.0009986544027924538,-0.0003039314760826528
1772733824710820900,5.09682080078125,-0.00046753929927945137,0.0011291278060525656,-0.000590624928008765
1772733824720835800,5.1068359375,0.000025678426027297974,0.0004228574689477682,0.001090628677047789
1772733824730850800,5.116850830078125,0.001467167865484953,0.0006861165165901184,0.0009899806464090943
1772733824740865000,5.126864990234375,-0.0001520337536931038,-0.00023959833197295666,0.0004757241113111377
1772733824750880000,5.1368798828125,-0.00039572548121213913,0.0013105012476444244,0.0010199029929935932
1772733824760895000,5.14689501953125,0.00008044764399528503,-0.00010044150985777378,0.00040204962715506554
1772733824770910000,5.156909912109375,0.0009576035663485527,-0.001169361174106598,-0.0006042047752998769
1772733824780925000,5.166925048828125,-0.0016632131300866604,-0.0013019866310060024,-0.0008281766204163432
1772733824790940200,5.176940185546875,0.0004836590960621834,0.0006060788873583078,-0.0012118073645979166
1772733824800955000,5.186954833984375,0.0009851325303316116,-0.0002866126596927643,-0.0022014379501342773
1772733824810969900,5.196969970703125,0.00007627485319972038,-0.0009888431522995234,-0.000851389137096703
1772733824820983800,5.20698388671875,0.00003819167613983154,0.001163523644208908,0.00015741633251309395
1772733824830998800,5.216998779296875,0.000643435399979353,-0.0005320520140230656,0.00009368453174829483
1772733824841014000,5.227013916015625,-0.001956608612090349,-0.00017146021127700806,0.0001291045919060707
1772733824851029000,5.237029052734375,-0.000920234015211463,0.0008728790562599897,0.00033107970375567675
1772733824861044000,5.2470439453125,-0.0010438046883791685,-0.00039265514351427555,0.0010858194436877966
1772733824871059000,5.257058837890625,0.0006756479851901531,-0.00022798636928200722,0.0008003349648788571
1772733824881074000,5.267073974609375,-0.00034940289333462715,0.0007885422091931105,-0.000014325953088700771
1772733824891088100,5.277088134765625,0.001438087783753872,-0.00008572335354983807,0.0011369286803528666
1772733824901103000,5.28710302734375,0.00002288399264216423,0.001370226964354515,0.0013497151667252183
1772733824911118000,5.2971181640625,-0.0003473828546702862,-0.0004727700725197792,-0.0010016943560913205
1772733824921133000,5.307133056640625,-0.0003111639525741339,0.0006843735463917255,0.0005709022516384721
1772733824931147800,5.317147705078125,0.0007001375779509544,-0.001069417456164956,-0.001791141927242279
1772733824941162800,5.327162841796875,-0.001683657756075263,-0.0005394488107413054,-0.0012462591985240579
1772733824951177700,5.337177734375,-0.0003030090592801571,0.00024911947548389435,-0.0013393635163083673
1772733824961193000,5.34719287109375,-0.0004558744840323925,0.0008595159742981195,-0.00016996951308101416
1772733824971207000,5.35720703125,-0.0008541685529053211,0.0006854615639895201,-0.00047306419583037496
1772733824981222000,5.367221923828125,0.0008763535879552364,-0.0009494528640061617,-0.00043258414370939136
1772733824991236900,5.37723681640625,0.00031895237043499947,0.0015328708104789257,0.0006752528715878725
1772733825001251800,5.387251953125,-0.0008453817572444677,-0.0002170924562960863,0.001879268093034625
1772733825011267000,5.39726708984375,-0.0011451088357716799,-0.0004728417843580246,0.0017386884428560734
1772733825021282000,5.407281982421875,0.0007752967067062855,-0.00015486031770706177,0.0016446788795292377
1772733825031297000,5.417297119140625,0.00007935520261526108,0.000005045905709266663,0.0011426516575738788
1772733825041311000,5.42731103515625,-0.0005677931476384401,-0.000649292953312397,0.0005708710523322225
1772733825051326000,5.437325927734375,-0.0012005832977592945,-0.00033604633063077927,-0.00048024440184235573
1772733825061341000,5.4473408203125,-0.0018091157544404268,0.00002294778823852539,-0.00019235664512962103
1772733825071356000,5.45735595703125,-0.001168516930192709,0.0005800062790513039,-0.0009088603546842933
1772733825081371000,5.467370849609375,0.00028370460495352745,0.00038266624324023724,-0.000010576099157333374
1772733825091385900,5.4773857421875,0.0003145136870443821,-0.00020584743469953537,-0.000502298295032233
1772733825101400800,5.48740087890625,0.0019062850624322891,0.0014953798381611705,-0.0016882040072232485
1772733825111414800,5.497414794921875,-0.00005507376044988632,0.0006911754608154297,-0.0001113679027184844
1772733825121430000,5.507429931640625,-0.000716070644557476,-0.00037195836193859577,-0.000046919332817196846
1772733825131445000,5.517445068359375,0.001038750633597374,-0.0017049009911715984,-0.000039777252823114395
1772733825141460000,5.5274599609375,0.002093894872814417,-0.0017810673452913761,0.0014071182813495398
1772733825151475000,5.537474853515625,0.001387926284223795,0.0005903439596295357,0.00004045048262923956
1772733825161490000,5.547489990234375,0.001905112061649561,-0.0012344538699835539,0.0009584421059116721
1772733825171505000,5.5575048828125,0.0009173103608191013,0.0004088201094418764,0.0009190950077027082
1772733825181520000,5.567519775390625,-0.0005660704337060452,-0.0007752215024083853,0.0016916780732572079
1772733825191534000,5.5775341796875,-0.0010909829288721085,0.0007854457944631577,0.0015692187007516623
1772733825201548800,5.587548828125,-0.0010102891828864813,-0.00010724575258791447,-0.000559179694391787
1772733825211563800,5.597563720703125,-0.0004722834564745426,-0.0002047480084002018,-0.0009614295559003949
1772733825221578800,5.607578857421875,-0.0002845306880772114,-0.00015867524780333042,-0.0011233497643843293
1772733825231593700,5.61759375,-0.0003435043618083,-0.00025033787824213505,-0.0005232145776972175
1772733825241609000,5.62760888671875,0.0003909952938556671,0.000013315118849277496,-0.0008531802450306714
1772733825251624000,5.6376240234375,-0.00015591736882925034,0.0007019550539553165,-0.00035688269417732954
1772733825261638000,5.647637939453125,-0.000027020461857318878,0.0008433687034994364,0.00009771890472620726
1772733825271652900,5.65765283203125,0.00053736986592412,0.0005332129076123238,0.0017175903776660562
1772733825281667800,5.667667724609375,-0.0016293779481202364,-0.00037971860729157925,0.0010842905612662435
1772733825291683000,5.67768310546875,0.0008415188640356064,-0.0012078552972525358,0.00006472284439951181
1772733825301698000,5.687697998046875,0.002848743461072445,-0.0006451292429119349,-0.0009187825489789248
1772733825311713000,5.697713134765625,0.0003910134546458721,-0.0006130600813776255,0.0026594947557896376
1772733825321728000,5.70772802734375,-0.0005932908970862627,-0.0010085392277687788,-0.0010297822300344706
1772733825331742000,5.717741943359375,0.0014108349569141865,0.00029101804830133915,-0.0004764995537698269
1772733825341757000,5.7277568359375,0.0017370725981891155,0.00007823132909834385,-0.0017279188614338636
1772733825351772000,5.73777197265625,0.0005847294814884663,-0.0007451525889337063,-0.0010062261717393994
1772733825361787000,5.747786865234375,0.0005064322613179684,-0.0011938954703509808,-0.0008730681147426367
1772733825371801900,5.7578017578125,-0.0007963038515299559,-0.00045102788135409355,-0.001288361381739378
1772733825381816800,5.76781689453125,0.00041623320430517197,0.0004126352723687887,-0.001541361678391695
1772733825391831800,5.777831787109375,0.0016768965870141983,-0.001393255777657032,0.00015794998034834862
1772733825401846000,5.787845947265625,0.0008534472435712814,0.0009543206542730331,-0.000977621879428625
1772733825411861000,5.797861083984375,-0.0008433470502495766,-0.0009408218320459127,0.0013639446115121245
1772733825421876000,5.8078759765625,0.0003385636955499649,-0.0013197895605117083,0.0018262692028656602
1772733825431891000,5.817890869140625,0.00014902837574481964,-0.00016058213077485561,0.0008587171323597431
1772733825441906000,5.827906005859375,-0.0023673921823501587,-0.00010678637772798538,0.0009023929014801979
1772733825451921000,5.8379208984375,-0.0008573881350457668,0.00023116497322916985,0.0006764978170394897
1772733825461935900,5.847935791015625,0.00014262879267334938,-0.00041198846884071827,0.00021204259246587753
1772733825471951000,5.857951171875,-0.0010669669136404991,0.00022156164050102234,-0.0006499028531834483
1772733825481964800,5.86796484375,0.00040629366412758827,-0.00019122823141515255,-0.00033138878643512726
1772733825491979800,5.877979736328125,0.0007505272515118122,0.000989202642813325,-0.0009119855822063982
1772733825501994800,5.887994873046875,-0.00009236345067620277,0.0015636465977877378,-0.0012462122831493616
1772733825512010000,5.898010009765625,-0.0008116269018501043,-0.0006699650548398495,0.0006289308657869697
1772733825522025000,5.90802490234375,0.0006224852986633778,0.0002304499503225088,0.0010896576568484306
1772733825532040000,5.9180400390625,-0.0024792819749563932,-0.00000497535802423954,-0.000383532780688256
1772733825542055000,5.928054931640625,-0.0006901703309267759,-0.0006683687679469585,0.0006945148343220353
1772733825552068900,5.93806884765625,0.001334440428763628,-0.00032114656642079353,0.0004906787071377039
1772733825562083800,5.948083740234375,-0.00006478466093540192,0.00031881104223430157,0.0009197138715535402
1772733825572099000,5.95809912109375,-0.000032590702176094055,-0.0025481381453573704,0.0010704165324568748
1772733825582114000,5.968114013671875,0.0015794206410646439,-0.00024903123266994953,0.000746309757232666
1772733825592129000,5.97812890625,-0.00040894816629588604,-0.00023681321181356907,0.0001539826625958085
1772733825602144000,5.98814404296875,-0.0009338574018329382,-0.0001689025666564703,-0.0009967691730707884
1772733825612159000,5.998158935546875,0.00023797573521733284,0.00008313637226819992,-0.00017094926442950964
1772733825622173000,6.0081728515625,-0.0015902842860668898,0.00014545442536473274,-0.00039971480146050453
1772733825632188000,6.01818798828125,0.00001689046621322632,-0.0009532000403851271,-0.0007438346510753036
1772733825642203000,6.028202880859375,0.000019819941371679306,-0.000977701274678111,0.000020492589101195335
1772733825652217900,6.0382177734375,-0.0009192568250000477,-0.0003754857461899519,0.00008876330684870481
1772733825662232000,6.048232177734375,0.002069608774036169,0.00013264548033475876,0.001644848263822496
1772733825672247300,6.058247314453125,-0.00010363059118390083,0.0013572941534221172,-0.00039312097942456603
1772733825682262300,6.06826220703125,-0.00017713382840156555,0.000048084184527397156,0.00019224185962229967
1772733825692276200,6.078276123046875,-0.000032265204936265945,-0.00027197180315852165,0.00021219043992459774
1772733825702291200,6.088291259765625,0.0004985029809176922,-0.00025466131046414375,-0.000020836247131228447
1772733825712306200,6.09830615234375,-0.0005127994809299707,-0.0004674498923122883,0.0005836946656927466
1772733825722321200,6.108321044921875,0.0006472733803093433,-0.0003271014429628849,0.0003682449460029602
1772733825732336400,6.11833642578125,-0.0015553806442767382,-0.0006965252105146646,-0.00023849389981478453
1772733825742351400,6.128351318359375,0.000060891732573509216,0.000830531120300293,-0.0010603454429656267
1772733825752366300,6.138366455078125,0.001800950150936842,0.0006827188190072775,-0.0011749360710382462
1772733825762380300,6.14838037109375,-0.0009580848272889853,-0.00047628884203732014,-0.00027318974025547504
1772733825772395300,6.158395263671875,-0.0004839897155761719,0.0012502323370426893,-0.0011340429773554206
1772733825782410500,6.168410400390625,0.0010340120643377304,-0.0009671156294643879,0.0009136616718024015
1772733825792425200,6.17842529296875,0.0014987303875386715,-0.0014253517147153616,0.0007851907284930348
1772733825802440200,6.188440185546875,0.00017860112711787224,0.0007525815162807703,0.0004355177516117692
1772733825812455200,6.198455078125,0.0008221142925322056,0.0013969272840768099,-0.0003382390132173896
1772733825822470100,6.20847021484375,-0.0012570153921842575,0.0013007870875298977,0.0007539233192801476
1772733825832485000,6.218485107421875,0.00042031146585941315,-0.0007731239311397076,0.000955645926296711
1772733825842499300,6.228499267578125,-0.00010513048619031906,-0.00019681593403220177,0.0008967900648713112
1772733825852514300,6.238514404296875,-0.0014300441835075617,-0.0011822106316685677,-0.0001788715599104762
1772733825862529300,6.248529296875,-0.001199414487928152,0.00014004879631102085,-0.0008566459873691201
1772733825872544300,6.258544189453125,0.0005058464594185352,-0.000464362557977438,-0.002139733638614416
1772733825882559200,6.268559326171875,-0.0012896566186100245,0.0006523008923977613,-0.0020105703733861446
1772733825892574200,6.27857421875,-0.0008733423892408609,0.0008358166087418795,-0.0021957536228001118
1772733825902589400,6.28858935546875,0.0007021836936473846,0.00017961370758712292,-0.001458856975659728
1772733825912603400,6.298603271484375,0.0004631862975656986,-0.0007692191284149885,0.000750009436160326
1772733825922618000,6.3086181640625,-0.0011994249653071165,0.0010633021593093872,0.0005974102532491088
1772733825932633000,6.318633056640625,-0.0015231827273964882,-0.0006751273758709431,0.0003994791768491268
1772733825942648000,6.32864794921875,-0.00029546557925641537,-0.001763561274856329,0.0005139950662851334
1772733825952663300,6.338663330078125,0.001332771498709917,-0.0009281113743782043,0.0006083699408918619
1772733825962678300,6.34867822265625,-0.0009178661275655031,-0.0005904226563870907,-0.0006153525318950415
1772733825972693200,6.358693359375,0.00088167330250144,0.00014254264533519745,0.0004880948690697551
1772733825982707200,6.368707275390625,-0.0008280761539936066,-0.0005693202838301659,-0.0011478849919512868
1772733825992722200,6.37872216796875,0.000188478734344244,0.000015561701729893684,0.000017659971490502357
1772733826002737400,6.3887373046875,-0.0008232560940086842,-0.00039456505328416824,0.0007564208935946226
1772733826012752400,6.39875244140625,-0.0003929722588509321,0.0008768134284764528,0.00007355434354394674
1772733826022767400,6.408767333984375,-0.00045848614536225796,0.00024857395328581333,0.00015238381456583738
1772733826032782300,6.4187822265625,0.0003517400473356247,0.0004323241300880909,-0.0005977318505756557
1772733826042797300,6.42879736328125,0.002937136683613062,-0.001715248916298151,-0.0007724352180957794
1772733826052811300,6.438811279296875,0.0006889933720231056,-0.0007673259824514389,0.0008680918253958225
1772733826062826200,6.448826171875,-0.0013549826107919216,-0.0003364267759025097,0.00047341128811240196
1772733826072841200,6.45884130859375,0.0000037979334592819214,-0.0003193470183759928,0.0017860266380012035
1772733826082856200,6.468856201171875,0.0005366960540413857,-0.0005939188413321972,0.0004792134277522564
1772733826092871200,6.47887109375,-0.0026362650096416473,-0.002370924921706319,-0.000783648225478828
1772733826102886100,6.48888623046875,-0.0008556756656616926,-0.00008619902655482292,0.00039240368641912937
1772733826112901000,6.498901123046875,-0.0010221742559224367,0.0001251955982297659,0.000039969454519450665
1772733826122915300,6.508915283203125,0.00040954118594527245,0.0013169599696993828,0.0003757940139621496
1772733826132930300,6.518930419921875,0.0016883360221982002,-0.0011984421871602535,0.0006879450520500541
1772733826142945300,6.5289453125,-0.001137277577072382,-0.0004157393705099821,0.0002024507848545909
1772733826152960300,6.538960205078125,0.0009895050898194313,-0.0006178820040076971,0.0010680145351216197
1772733826162975200,6.548975341796875,-0.0013394292909651995,-0.00119179324246943,0.0008445751154795289
1772733826172990200,6.558990234375,-0.00023044133558869362,0.000042782165110111237,-0.001320267328992486
1772733826183005400,6.56900537109375,-0.0014597566332668066,-0.0006291333120316267,0.00034660520032048225
1772733826193019100,6.57901904296875,-0.0007642633281648159,0.000018591992557048798,0.0011871736496686935
1772733826203034000,6.5890341796875,-0.00024255015887320042,-0.0003475926350802183,0.00014401332009583712
1772733826213049000,6.599049072265625,0.00014337431639432907,-0.0002092521172016859,0.0006140107288956642
1772733826223064000,6.60906396484375,0.000714888796210289,-0.0011959532275795937,0.00018444284796714783
1772733826233079300,6.619079345703125,0.00028987880796194077,-0.0003517479635775089,-0.00013877474702894688
1772733826243094300,6.62909423828125,0.0008131898939609528,0.0017659977311268449,0.0004891986027359962
1772733826253109200,6.639109130859375,0.00026925699785351753,0.00024166889488697052,0.0013173153856769204
1772733826263123200,6.649123291015625,0.0005701943300664425,-0.00033517181873321533,-0.0006941703031770885
1772733826273138200,6.65913818359375,-0.00008149724453687668,0.0001526186242699623,0.0008457587100565434
1772733826283153400,6.6691533203125,0.000006919726729393005,0.001029331237077713,0.00004574516788125038
1772733826293168400,6.67916845703125,0.00003386009484529495,-0.00003855745308101177,-0.0007276201504282653
1772733826303183400,6.689183349609375,0.0005539753474295139,-0.0010415036231279373,0.001608771039173007
1772733826313198300,6.6991982421875,0.0008802684023976326,-0.0003804638981819153,-0.0009051450178958476
1772733826323213300,6.70921337890625,-0.00008566025644540787,-0.0006944506894797087,0.00024560687597841024
1772733826333227300,6.719227294921875,-0.00004837615415453911,-0.00020256475545465946,0.0005433482583612204
1772733826343242200,6.7292421875,0.0006945505738258362,0.00028056977316737175,0.0009404635056853294
1772733826353257200,6.73925732421875,0.00043856585398316383,-0.0011371253058314323,-0.0016993440221995115
1772733826363272200,6.749272216796875,0.0005866372957825661,-0.00031580659560859203,-0.0017917557852342725
1772733826373287200,6.759287109375,0.0012123389169573784,0.0006372686475515366,0.0006041405722498894
1772733826383302100,6.76930224609375,0.000052265822887420654,-0.0018605103250592947,-0.0005194471450522542
1772733826393317000,6.779317138671875,-0.0003961622714996338,0.0016930786659941077,-0.00016426935326308012
1772733826403331300,6.789331298828125,0.0006118440069258213,0.0005937258247286081,-0.0006803899304941297
1772733826413346300,6.79934619140625,0.0011436901986598969,-0.00005050492472946644,-0.0007439366891048849
1772733826423361300,6.809361328125,0.001987113617360592,-0.0005714192520827055,-0.0013024015352129936
1772733826433376300,6.819376220703125,0.000867912545800209,0.0013423063792288303,-0.0002142942976206541
1772733826443391200,6.82939111328125,-0.00031692790798842907,0.00025387248024344444,0.0011937189847230911
1772733826453406200,6.83940625,-0.0004881278146058321,-0.0006247207056730986,0.00008894049096852541
1772733826463421400,6.84942138671875,0.0007670200429856777,-0.00028570019640028477,0.0017142676515504718
1772733826473435100,6.85943505859375,-0.0006884913891553879,0.0009593660943210125,0.00011973129585385323
1772733826483450000,6.8694501953125,0.0008830400183796883,0.00011567655019462109,0.0012406558962538838
1772733826493465000,6.879465087890625,-0.0005409035366028547,0.001142239198088646,0.001215699128806591
1772733826503480300,6.889480224609375,0.0005070501938462257,-0.00048255547881126404,0.0005001076497137547
1772733826513495300,6.899495361328125,0.0007505114190280437,0.001735498197376728,0.0006159159820526838
1772733826523510300,6.90951025390625,0.0005811345763504505,0.0003237565979361534,0.0008617257699370384
1772733826533525200,6.919525146484375,0.0014159828424453735,-0.0017442966345697641,-0.0012245546095073223
1772733826543539200,6.929539306640625,0.0003432617522776127,0.0004959544166922569,-0.0022192453034222126
1772733826553554200,6.93955419921875,0.0000920766033232212,-0.0013741678558290005,-0.001328828977420926
1772733826563569400,6.9495693359375,-0.0005015418864786625,0.00021760351955890656,-0.0012678424827754498
1772733826573584400,6.95958447265625,0.00037395162507891655,-0.00031399819999933243,0.00014673173427581787
1772733826583599400,6.969599365234375,-0.0008606896735727787,0.001052203355357051,0.00010971375741064548
1772733826593614300,6.9796142578125,-0.000270151998847723,-0.00032505416311323643,0.00038235809188336134
1772733826603629300,6.98962939453125,0.0020409394055604935,-0.0008310547564178705,0.0007293680682778358
1772733826613643300,6.999643310546875,-0.0002032499760389328,-0.00028428854420781136,0.001109405537135899
1772733826623658200,7.009658203125,-0.00007754890248179436,-0.0003396822139620781,0.0010753170354291797
1772733826633673200,7.019673095703125,0.00022414792329072952,-0.0003993227146565914,0.0015386405866593122
1772733826643688200,7.029688232421875,-0.0013132949825376272,-0.0000890644732862711,0.000012116623111069202
1772733826653703200,7.039703125,-0.0019846796058118343,-0.0007514378521591425,-0.0009585574734956026
1772733826663718700,7.04971875,-0.00008478062227368355,-0.0008771389257162809,-0.0009518995648249984
1772733826673733600,7.059733642578125,0.00009541912004351616,0.00013562501408159733,-0.00028902979101985693
1772733826683747600,7.06974755859375,0.002492263913154602,0.000765196280553937,-0.0003572067362256348
1772733826693762600,7.079762451171875,0.00047090230509638786,0.0025870304089039564,0.010235912166535854
1772733826703777500,7.089777587890625,0.0011657210998237133,-0.002822648733854294,0.029052209109067917
1772733826713792500,7.09979248046875,0.0006948155350983143,0.00038707139901816845,0.047808315604925156
1772733826723807500,7.109807373046875,0.001517199445515871,-0.005606638267636299,0.05741247534751892
1772733826733822500,7.119822509765625,0.0012622908689081669,-0.0019119367934763432,0.05146632343530655
1772733826743837700,7.129837646484375,0.0005482975393533707,-0.0009795641526579857,0.03576619178056717
1772733826753851600,7.1398515625,-0.00043108267709612846,-0.002103295410051942,0.015414109453558922
1772733826763866600,7.14986669921875,-0.0005972639191895723,0.00024534622207283974,-0.01047501154243946
1772733826773881600,7.159881591796875,-0.00032866490073502064,0.0030279839411377907,-0.039478402584791183
1772733826783896600,7.169896484375,0.0008870684541761875,0.003082046052441001,-0.06208517774939537
1772733826793911800,7.179911865234375,0.0004297862760722637,0.0032146458979696035,-0.07310019433498383
1772733826803926800,7.1899267578125,-0.00015637557953596115,0.0013096868060529232,-0.07535642385482788
1772733826813941800,7.199941650390625,0.0005578594282269478,0.003552153008058667,-0.06825264543294907
1772733826823955500,7.20995556640625,-6.05359673500061e-7,0.00039843772538006306,-0.052289921790361404
1772733826833970400,7.219970458984375,-0.00013700872659683228,0.0010639643296599388,-0.03204214945435524
1772733826843985700,7.229985595703125,-0.000508519820868969,-0.0005107626784592867,-0.007253712508827448
1772733826854000600,7.240000732421875,-0.00039862445555627346,-0.0005950848571956158,0.01650562882423401
1772733826864015600,7.250015625,0.0004903385415673256,-0.0022545005194842815,0.03597307205200195
1772733826874030600,7.260030517578125,0.0008285907097160816,-0.0017997303511947393,0.04795472323894501
1772733826884045600,7.270045654296875,-0.002799433656036854,-0.004033856093883514,0.05436921492218971
1772733826894059800,7.280059814453125,0.0004070666618645191,-0.003337685251608491,0.053238991647958755
1772733826904074800,7.29007470703125,-0.0004648519679903984,-0.003039144678041339,0.043714992702007294
1772733826914089700,7.30008984375,0.0010524634271860123,-0.0014013079926371574,0.02904295176267624
1772733826924104700,7.310104736328125,0.000867107417434454,-0.001208494883030653,0.012508982792496681
1772733826934119700,7.32011962890625,0.000373221468180418,-0.0002981116995215416,-0.006921353749930859
1772733826944134700,7.330134765625,-0.0001186644658446312,0.0007679515983909369,-0.021854763850569725
1772733826954148600,7.340148681640625,-0.0007611673790961504,0.0013276028912514448,-0.03494834899902344
1772733826964163600,7.35016357421875,-0.0012578470632433891,0.002411509398370981,-0.0412571094930172
1772733826974178600,7.360178466796875,0.0009746961295604706,0.0018507234053686261,-0.04088810458779335
1772733826984193500,7.370193603515625,0.0000391276553273201,0.0012595015577971935,-0.033944979310035706
1772733826994208500,7.38020849609375,-0.000017367303371429443,0.0004888162948191166,-0.025324732065200806
1772733827004223500,7.390223388671875,-0.0006432102527469397,0.0009625926613807678,-0.011284280568361282
1772733827014238700,7.40023876953125,0.00031806807965040207,-0.0008636796846985817,0.004578839987516403
1772733827024252700,7.410252685546875,0.000033908989280462265,-0.0002799148205667734,0.016614995896816254
1772733827034267600,7.420267578125,0.0005348953418433666,-0.0005769503768533468,0.02598724141716957
1772733827044282600,7.43028271484375,0.0001476714387536049,-0.00040837214328348637,0.02916865237057209
1772733827054297600,7.440297607421875,0.0007611052133142948,-0.002894226461648941,0.02908092364668846
1772733827064312600,7.4503125,-0.00009323703125119209,0.0006235430482774973,0.026814041659235954
1772733827074327800,7.460327880859375,-0.0006989988032728434,-0.000882498687133193,0.01639617420732975
1772733827084342800,7.4703427734375,-0.0008465377613902092,0.0010056826286017895,0.00705673499032855
1772733827094356500,7.4803564453125,-0.000022170133888721466,0.0007987353019416332,-0.0030988515354692936
1772733827104371500,7.490371337890625,-0.0011849061120301485,0.000011238502338528633,-0.013606353662908077
1772733827114386400,7.500386474609375,-0.0005760479252785444,0.0018353697378188372,-0.019648510962724686
1772733827124401700,7.510401611328125,-0.0008061451371759176,0.00007182452827692032,-0.022896768525242805
1772733827134416600,7.520416748046875,-0.00048645935021340847,0.0012134821154177189,-0.02445962466299534
1772733827144431600,7.530431640625,-0.0002451769541949034,0.00019455677829682827,-0.01954236440360546
1772733827154446600,7.540446533203125,0.00043502077460289,-0.00037438515573740005,-0.012150627560913563
1772733827164460500,7.55046044921875,-0.00007843645289540291,0.0008903499692678452,-0.004610419739037752
1772733827174475800,7.560475830078125,0.0009685871191322803,-0.0005020704120397568,0.005028403829783201
1772733827184490800,7.57049072265625,0.001050346065312624,-0.000024565495550632477,0.01280217058956623
1772733827194505700,7.580505615234375,0.0010062707588076591,-0.0013237397652119398,0.017428085207939148
1772733827204520700,7.590520751953125,-0.0005961530841886997,-0.00012105610221624374,0.019146889448165894
1772733827214535700,7.60053564453125,-0.0005978916306048632,-0.0002795814070850611,0.018921097740530968
1772733827224550700,7.610550537109375,0.0009243711829185486,-0.00044922460801899433,0.01415297482162714
1772733827234564600,7.620564697265625,-0.0005262552294880152,-0.0020797448232769966,0.007099484093487263
1772733827244579600,7.63057958984375,-0.001923882169649005,0.00006276811473071575,-0.0009432617807760835
1772733827254594600,7.640594482421875,-0.0006066884379833937,0.002017572056502104,-0.0058701615780591965
1772733827264609500,7.650609619140625,-0.0005824535619467497,0.0012457880657166243,-0.012794381007552147
1772733827274624500,7.66062451171875,-0.00036392337642610073,0.0007937510963529348,-0.013087032362818718
1772733827284639500,7.670639404296875,-0.000177768524736166,0.0007881585042923689,-0.014791987836360931
1772733827294654700,7.68065478515625,0.00047094421461224556,0.0014827832346782088,-0.01256174873560667
1772733827304668700,7.690668701171875,-0.001207645982503891,-0.00029487675055861473,-0.0056982506066560745
1772733827314683600,7.70068359375,-0.00042275339365005493,0.0010408458765596151,-0.001078468281775713
1772733827324698600,7.71069873046875,0.0007064267992973328,-0.0008457375224679708,0.003686991985887289
1772733827334713600,7.720713623046875,0.00042455317452549934,-0.00005382578819990158,0.00789707899093628
1772733827344728800,7.730728759765625,-0.00027159741148352623,0.0006116980221122503,0.012217525392770767
1772733827354743800,7.740743896484375,-0.0002836417406797409,-0.00016689789481461048,0.012015432119369507
1772733827364758800,7.7507587890625,-0.00033717136830091476,-0.000280881067737937,0.011455901898443699
1772733827374772500,7.7607724609375,-0.0006768256425857544,0.0009665386751294136,0.008707894943654537
1772733827384787500,7.770787353515625,0.00013037864118814468,-0.0011980787385255098,0.004338179714977741
1772733827394802700,7.780802734375,-0.0004137074574828148,-0.0008823045063763857,-0.0019447405356913805
1772733827404817700,7.790817626953125,-0.00034473161213099957,0.0015731300227344036,-0.006487294100224972
1772733827414832600,7.80083251953125,-0.0001584356650710106,0.00010380195453763008,-0.008049090392887592
1772733827424847600,7.81084765625,0.00002106139436364174,0.0023400583304464817,-0.0104142427444458
1772733827434861600,7.820861572265625,0.00047614239156246185,-0.00035840412601828575,-0.009009534493088722
1772733827444876500,7.83087646484375,-0.00009430665522813797,0.0003649103455245495,-0.0073234871961176395
1772733827454891800,7.840891845703125,0.0003010975196957588,0.0010201900731772184,-0.004116083960980177
1772733827464906800,7.85090673828125,-0.00043233693577349186,-0.0000767658930271864,-0.00012853287626057863
1772733827474921700,7.860921630859375,-0.0006228568963706493,-0.00027938466519117355,0.004143682308495045
1772733827484936700,7.870936767578125,-0.0004819757305085659,-0.0014479795936495066,0.007535750977694988
1772733827494951700,7.88095166015625,-0.0003098510205745697,0.0016920907655730844,0.008945032954216003
1772733827504965600,7.890965576171875,0.0010472959838807583,-0.001243245555087924,0.005961759481579065
1772733827514980600,7.900980712890625,0.0004561939276754856,-0.000007459195330739021,0.005980284884572029
1772733827524995600,7.91099560546875,0.0002932082861661911,0.0014647362986579537,0.0023868815042078495
1772733827535010600,7.921010498046875,-0.0004647232126444578,0.00015857047401368618,0.0009626948740333319
1772733827545025500,7.931025634765625,-0.001238637836650014,0.00021849153563380241,-0.002119914162904024
1772733827555040500,7.94104052734375,0.0017066951841115952,-0.0010958861093968153,-0.00561761949211359
1772733827565055500,7.951055419921875,0.00019428599625825882,-0.0004761684685945511,-0.006228548474609852
1772733827575069700,7.961069580078125,0.0009126141667366028,0.0012611651327461004,-0.007903902791440487
1772733827585084700,7.971084716796875,-0.0005052529741078615,-0.0005037116352468729,-0.0051094479858875275
1772733827595099600,7.981099609375,0.0005607046186923981,0.0008963954169303179,-0.0021210922859609127
1772733827605114600,7.991114501953125,-0.0017511853948235512,0.0009539194870740175,-0.0010797964641824365
1772733827615129600,8.001129638671875,0.0008619744330644608,0.0006540697067975998,0.0026754187420010567
1772733827625144800,8.011144775390624,-0.0011966489255428314,0.007009970024228096,0.01213816273957491
1772733827635158500,8.021158447265625,-0.0004489785060286522,-0.0018571913242340088,0.06941542774438858
1772733827645173500,8.031173583984375,0.0017191008664667606,-0.003655091393738985,0.13675986230373383
1772733827655189000,8.04118896484375,0.0004926957190036774,-0.009292203933000565,0.1928817182779312
1772733827665204000,8.051203857421875,0.0034408150240778923,-0.012044048868119717,0.21742887794971466
1772733827675219000,8.061218994140624,0.0018904199823737144,-0.009644584730267525,0.2076999843120575
1772733827685234200,8.071234130859375,0.002216657157987356,-0.011420913971960545,0.16381961107254028
1772733827695249200,8.081249267578125,0.0011109355837106705,-0.005708515644073486,0.09257066249847412
1772733827705263000,8.09126318359375,-0.002110956935212016,-0.001774494769051671,0.003931077197194099
1772733827715278000,8.101278076171875,0.00025725411251187325,0.005973567720502615,-0.0906677171587944
