time,seconds_elapsed,z,y,x
1772619307637631700,0.0746318359375,-0.26746494176089763,-0.33513533319085836,-0.11464337420277297
1772619307647662600,0.08466259765625,-0.3949976812183857,-0.30410277380645273,-0.139663760625571
1772619307657693700,0.094693603515625,-0.4339847067385912,-0.28733035657331346,-0.13651128794401884
1772619307667724500,0.104724609375,-0.375785615748167,-0.2653396201699972,-0.09952263316679745
1772619307677755600,0.114755615234375,-0.2438473348081112,-0.23081468862518667,-0.049635187719389795
1772619307687786500,0.124786376953125,-0.034084055909514424,-0.24928075803369282,-0.021444719893112776
1772619307697817600,0.134817626953125,0.20140636944174764,-0.2702623173944652,-0.014295432660356162
1772619307707848400,0.144848388671875,0.394077643764019,-0.3136388100452721,-0.027448271156847476
1772619307717879600,0.154879638671875,0.5052583833575248,-0.34612668280452485,-0.049676834904029965
1772619307727910400,0.164910400390625,0.5277928712487221,-0.3526071308650076,-0.05549399675019085
1772619307737941500,0.17494140625,0.4906996966511011,-0.32610870777890083,-0.03632401685602963
1772619307747972600,0.18497265625,0.37537761946916576,-0.24999065986871719,-0.00688880966566503
1772619307758003700,0.195003662109375,0.29056407779753207,-0.1803723492413759,0.012443813444301486
1772619307768033500,0.205033447265625,0.23229601322412488,-0.1231172611027956,0.03400770273767412
1772619307778064600,0.215064697265625,0.2026502320230007,-0.05591565622836351,0.06225413853488862
1772619307788095700,0.225095703125,0.2160527344316244,-0.03857566824033856,0.08043876065351069
1772619307798126600,0.235126708984375,0.26944530192315574,-0.04036006743907928,0.04096329402923584
1772619307808157700,0.24515771484375,0.3483931664317846,-0.09129472038447857,-0.0024276655383408067
1772619307818188500,0.2551884765625,0.4246510612040758,-0.12494301522523164,-0.037755072572454806
1772619307828219600,0.2652197265625,0.4534937093287706,-0.1295017014428973,-0.053646396122127765
1772619307838250800,0.275250732421875,0.5172831676721572,-0.1233759120389819,-0.03203603733852505
1772619307848281600,0.285281494140625,0.5382043751478195,-0.10373159263134002,0.017683759924396872
1772619307858312700,0.295312744140625,0.5425216538250446,-0.06397489791288971,0.07974573688805103
1772619307868343600,0.305343505859375,0.4916700029879808,-0.043222325002402064,0.11357990968972444
1772619307878374700,0.315374755859375,0.388669062718749,0.007533756505697965,0.16658808097355066
1772619307888405500,0.325405517578125,0.2614724233478308,0.04313917676359415,0.22118447129689156
1772619307898436600,0.3354365234375,0.1345551854401827,0.0733051824465394,0.20232596850469708
1772619307908467500,0.345467529296875,0.03825754220187664,0.059450406225770705,0.19117687104605138
1772619307918498600,0.35549853515625,-0.006364274334907531,0.048815614964812994,0.1868294894915074
1772619307928529400,0.365529296875,-0.01888473321199417,0.031248832483589648,0.17140600264929234
1772619307938559500,0.3755595703125,-0.0743657974153757,0.028193974957615137,0.13449213014133274
1772619307948590600,0.385590576171875,-0.11185761594176291,0.024064766198396682,0.12740290253274142
1772619307958621400,0.395621337890625,-0.13401859434545038,0.007575257559865713,0.1416321380890906
1772619307968652800,0.40565283203125,-0.14571896901130676,-0.001998626471310854,0.11712868821248411
1772619307978683600,0.41568359375,-0.13479074776172636,-0.036411037552356716,0.090417353028059
1772619307988714800,0.42571484375,-0.12162030054330825,-0.07259557287245988,0.10019223952405154
1772619307998745600,0.43574560546875,-0.09119535166323184,-0.07315832132175565,0.12110986680313944
1772619308008776700,0.445776611328125,-0.0776554866105318,-0.04566606489270925,0.12986322823166846
1772619308018807600,0.4558076171875,-0.042327568119764326,-0.04859861121326685,0.13634089981317518
1772619308028838700,0.465838623046875,-0.013760229805111884,-0.06563289425298571,0.16472133725360036
1772619308038869500,0.475869384765625,-0.015578677403926848,-0.08339768352434039,0.17769107426814734
1772619308048900600,0.485900634765625,0.0017728548914194106,-0.08334858368560671,0.1754657994341105
1772619308058931700,0.495931640625,0.009668576577305793,-0.09028013651445507,0.16868797586224973
1772619308068962600,0.505962646484375,-0.0029886604219675063,-0.12348945541605352,0.1486410670030862
1772619308078993700,0.51599365234375,0.01233867256939411,-0.11057400587201117,0.1387071905530989
1772619308089023500,0.5260234375,0.04058627741038799,-0.13072174475714562,0.13242489541321992
1772619308099054600,0.5360546875,0.10737024139463901,-0.1230038638561964,0.14216324929110705
1772619308109085400,0.54608544921875,0.16208967357575893,-0.1039960887864232,0.11736140098981558
1772619308119116500,0.556116455078125,0.2184317385226488,-0.12329729384481906,0.07962824798822403
1772619308129147600,0.566147705078125,0.26144144368767736,-0.1455984113715589,0.054795127765834326
1772619308139178500,0.576178466796875,0.26013912891745566,-0.1485128375135362,0.06896423063278198
1772619308149209600,0.586209716796875,0.21063597007989882,-0.10924158822447061,0.10592457263097166
1772619308159240700,0.59624072265625,0.14826923801600933,-0.06369315836206078,0.13655607693381608
1772619308169271800,0.606271728515625,0.11920856322646141,-0.05141425315588712,0.16686726324111223
1772619308179302700,0.616302734375,0.1123638118982315,-0.03454772789850831,0.19319938984960316
1772619308189333800,0.626333740234375,0.16006781235933304,-0.016616057627648114,0.21314269220381973
1772619308199364600,0.636364501953125,0.21341069549024103,-0.032116555228829384,0.21895956178903578
1772619308209395700,0.646395751953125,0.23098259253799913,-0.06649374886602163,0.22701485795080661
1772619308219426600,0.656426513671875,0.2271674181640148,-0.0965235609486699,0.20944602964296935
1772619308229457700,0.666457763671875,0.22078969982564448,-0.12138327691704034,0.19043292081095278
1772619308239488500,0.676488525390625,0.2266618067294359,-0.1801926087602973,0.1844767888855189
1772619308249518600,0.6865185546875,0.22493454454541206,-0.25012013146728274,0.19274507021084428
1772619308259549700,0.6965498046875,0.2258084047704935,-0.3114358931735158,0.17979959085471928
1772619308269580500,0.70658056640625,0.23932079729437827,-0.3496373212739825,0.21422917226627466
1772619308279611600,0.716611572265625,0.23269524167478084,-0.3858011060670018,0.23498525230810044
1772619308289642500,0.726642578125,0.22560382210910318,-0.42107057236880063,0.26253837207891045
1772619308299673600,0.736673583984375,0.1930167267590761,-0.44524756677001714,0.25808672643229363
1772619308309704400,0.746704345703125,0.1275561203330755,-0.4855285776235163,0.2690512611042708
1772619308319735600,0.756735595703125,0.058759647482633584,-0.5291083377614617,0.25457901057228444
1772619308329766400,0.766766357421875,-0.038757892939448355,-0.5536556267797946,0.22547135483585296
1772619308339797500,0.776797607421875,-0.0912187325388193,-0.5777351521559059,0.21103008396402
1772619308349828600,0.78682861328125,-0.10168401245176792,-0.5939489125929772,0.1871285455033183
1772619308359859700,0.796859619140625,-0.10332534991800785,-0.5927187862761318,0.1843923985376954
1772619308369890800,0.806890869140625,-0.07297814244925975,-0.622352438648045,0.18524536210522055
1772619308379921700,0.816921630859375,-0.042594694623351095,-0.633885640053451,0.181639446567744
1772619308389952800,0.826952880859375,-0.03505202415883541,-0.6673484953247011,0.17135339567922056
1772619308399983600,0.836983642578125,-0.014921674799919127,-0.6929502618320286,0.1347214819177985
1772619308410013700,0.847013671875,-0.0028770167410373687,-0.7147497134469449,0.12892675109915436
1772619308420044500,0.85704443359375,0.03880231660306453,-0.7251072952017188,0.1275491791356355
1772619308430075400,0.867075439453125,0.08988719167411327,-0.6917145825572312,0.1388016639035195
1772619308440106500,0.8771064453125,0.13517127151191233,-0.6774468416213989,0.1771731148086488
1772619308450137300,0.887137451171875,0.16973931154608726,-0.684803195733577,0.18083353701233862
1772619308460168400,0.89716845703125,0.21674480834901333,-0.7008176342062652,0.1916919809613377
1772619308470199300,0.90719921875,0.2575824301719665,-0.7259642042919993,0.20475436469539998
1772619308480230400,0.91723046875,0.3133446494042873,-0.7727423220798373,0.2195112773876637
1772619308490261500,0.927261474609375,0.34538229417800903,-0.8023986246749758,0.21223383373059332
1772619308500292600,0.937292724609375,0.3658434829264879,-0.8337139465235173,0.24140045311264693
1772619308510323500,0.947323486328125,0.4058154278308153,-0.8494256026573479,0.2638212514963001
1772619308520354600,0.9573544921875,0.439800115019083,-0.8879197300940751,0.24780389041416345
1772619308530385400,0.967385498046875,0.4752116201400757,-0.9402041902132332,0.23001374750584364
1772619308540416500,0.97741650390625,0.4725245730131864,-0.9643021280288696,0.19708434152416884
1772619308550447400,0.987447265625,0.4613999524086714,-0.943925256562978,0.1731770309098065
1772619308560478500,0.997478515625,0.46506373561322684,-0.9837715292610227,0.11378741496056317
1772619308570508500,1.007508544921875,0.4654536117136478,-1.0308313865996896,0.10288703156597911
1772619308580539400,1.017539306640625,0.47517421073913574,-1.0603720999911428,0.040598333174362775
1772619308590570500,1.027570556640625,0.46107028206288814,-1.064220153721422,-0.01508121274318546
1772619308600601300,1.037601318359375,0.45352702707648274,-1.1120346288196743,-0.06208210643623024
1772619308610632400,1.047632568359375,0.4521697672486305,-1.1243769546508788,-0.1063501410992816
1772619308620663300,1.057663330078125,0.4958493344992399,-1.1511888276003301,-0.13431801568344234
1772619308630694400,1.0676943359375,0.5435948360145092,-1.1592340407595039,-0.11928765634465963
1772619308640725200,1.077725341796875,0.5634796861797571,-1.192443944182992,-0.10201799364648759
1772619308650756400,1.08775634765625,0.5690156929969787,-1.2117441263280808,-0.09915741658359765
1772619308660787500,1.097787353515625,0.46693362113833425,-1.1861809382654727,-0.019020123094692826
1772619308670818300,1.107818359375,0.33123686444759365,-1.144094485425204,0.07835026394166052
1772619308680849700,1.117849609375,0.30777532483935355,-1.0806884734414517,0.20794811923541126
1772619308690880500,1.127880615234375,0.3482312538683414,-1.0513901905037462,0.3186832704858854
1772619308700911600,1.13791162109375,0.4788227963745594,-1.047384461993724,0.42085546831339593
1772619308710942500,1.1479423828125,0.5937877306818962,-1.0722924010179937,0.4971255649801343
1772619308720973600,1.1579736328125,0.691724957820773,-1.0938920922771096,0.5429393677804619
1772619308731003600,1.168003662109375,0.7604179702967405,-1.1134642232313752,0.5618854027256369
1772619308741034500,1.178034423828125,0.7517612011104822,-1.1208685081385075,0.6099651776965708
1772619308751065600,1.188065673828125,0.6920183878093957,-1.1103586584314704,0.668530983107537
1772619308761096400,1.198096435546875,0.6352683265835046,-1.110323879379034,0.7205935441043227
1772619308771127600,1.20812744140625,0.5645072756618261,-1.1458948128454387,0.7382307614732533
1772619308781158400,1.218158447265625,0.4640507591784,-1.1862678858965634,0.7261521280795336
1772619308791189500,1.228189453125,0.2996861264079809,-1.2133495156981051,0.7344998313166201
1772619308801220400,1.238220458984375,0.07983575325906277,-1.2224680571772157,0.7456411107949912
1772619308811251500,1.24825146484375,-0.24151450794637203,-1.2305094709441065,0.7623289184845984
1772619308821282300,1.2582822265625,-0.586818476191163,-1.216233692832291,0.7363036658681928
1772619308831313400,1.2683134765625,-0.9697235685557126,-1.2227445360310374,0.6828302882254124
1772619308841344300,1.27834423828125,-1.3910978000462055,-1.18604138366431,0.5832032448360696
1772619308851375400,1.288375244140625,-1.7435872958809135,-1.1574269913375377,0.4576758173190057
1772619308861406200,1.29840625,-1.926888684311509,-1.1471757925666868,0.26275632567852736
1772619308871437600,1.3084375,-1.9292688574463128,-1.1147075012907386,0.08635777543894946
1772619308881468400,1.318468505859375,-1.8877163653522728,-1.0870132925488054,-0.030325068702176213
1772619308891498200,1.328498291015625,-1.8021774320155381,-1.0355093152828514,-0.19247334059737622
1772619308901529600,1.338529541015625,-1.6181056437343357,-0.975036288011074,-0.2601151269873604
1772619308911560400,1.348560546875,-1.3901450293660162,-0.9161433695375919,-0.19607377624213695
1772619308921591600,1.358591552734375,-1.2018950786173344,-0.7948816731736064,-0.15737013424057514
1772619308931622400,1.368622314453125,-1.0787579437702894,-0.6602797259822487,-0.07007752563692629
1772619308941653500,1.378653564453125,-1.0429670839428902,-0.5217419006466866,-0.0631295331299305
1772619308951684400,1.388684326171875,-1.0670271739661692,-0.32892712620049713,-0.06849624779485165
1772619308961715500,1.398715576171875,-1.1833213110506533,-0.08471797234266996,-0.06575257510989904
1772619308971746600,1.40874658203125,-1.3463205006867647,0.1684042635500431,-0.038743645218387246
1772619308981777400,1.41877734375,-1.486422798860073,0.4609042778462171,0.014550138073787092
1772619308991808500,1.42880859375,-1.5658979021131991,0.675009093080461,0.02309161031730473
1772619309001839400,1.43883935546875,-1.562319459104538,0.8456424308568239,-0.09646488956399261
1772619309011870500,1.448870361328125,-1.4565928932636976,0.9877981544286012,-0.30755846721827984
1772619309021901300,1.4589013671875,-1.1971657120078802,1.0154203208476305,-0.580241582018882
1772619309031932400,1.468932373046875,-0.7734843726187944,0.9542457211777567,-0.7917365800809115
1772619309041962500,1.47896240234375,-0.3229629570990801,0.8982394640564918,-0.9364031904950737
1772619309051993300,1.488993408203125,0.12020283496081828,0.867938433817029,-1.1030873522542417
1772619309062024400,1.4990244140625,0.5547048435717821,0.8134314753428101,-1.24900856583938
1772619309072055300,1.50905517578125,0.9925713601797819,0.7344663674384355,-1.2949208605781197
1772619309082086400,1.51908642578125,1.3625281236439943,0.673171940781176,-1.209548296784237
1772619309092117500,1.529117431640625,1.6177169366776942,0.6638406333342194,-1.0771353840697555
1772619309102148600,1.539148681640625,1.78786950519979,0.707877927981317,-0.8788972694005817
1772619309112179500,1.549179443359375,1.8611556906849145,0.7888318716153502,-0.6431882328625768
1772619309122210600,1.55921044921875,1.8053917178869245,0.8283730238869785,-0.45233767116144297
1772619309132241400,1.569241455078125,1.6663766304284333,0.8190551604434847,-0.32960034928694365
1772619309142272500,1.5792724609375,1.5103139620572328,0.8196528340756892,-0.21580526247657833
1772619309152303400,1.589303466796875,1.30235217962265,0.8198033484622835,-0.15107501615174113
1772619309162334500,1.59933447265625,1.0657798042535782,0.7547700275376439,-0.1242291678674519
1772619309172365300,1.609365234375,0.8612053261697292,0.597450929364562,-0.16396131266653538
1772619309182396400,1.619396484375,0.6627566374897956,0.37800036918818947,-0.28220504944883285
1772619309192427500,1.629427490234375,0.43803368986845015,0.1955199417516589,-0.4615029013264924
1772619309202457300,1.639457275390625,0.21200024417042732,0.03561608778238296,-0.6001476211026311
1772619309212488400,1.649488525390625,0.09755904147624969,-0.06180471426695585,-0.6423782316539436
1772619309222519300,1.659519287109375,0.028148820641636846,-0.06020750820338726,-0.6017001843068749
1772619309232550400,1.66955029296875,-0.04597849184274673,-0.014702186830341815,-0.5083031578809023
1772619309242581200,1.679581298828125,-0.06446984182298184,0.03891834419816732,-0.3882626008097082
1772619309252612400,1.6896123046875,-0.062567223072052,0.1015109939724207,-0.23874065931886432
1772619309262643500,1.6996435546875,-0.05640227070152759,0.0926701003909111,-0.18834997705705464
1772619309272674600,1.709674560546875,-0.04424187730848789,0.07034457907527684,-0.21110409904830157
1772619309282705700,1.71970556640625,-0.11622750158905983,0.0020244915649294854,-0.21237660320214927
1772619309292736500,1.729736572265625,-0.17437573917508123,-0.04336158734261989,-0.24196816999800502
1772619309302767600,1.739767578125,-0.11633622266054153,-0.012605214551091194,-0.18794841051883995
1772619309312798500,1.749798583984375,0.06450432861447333,-0.011486731915175914,-0.13377587163075805
1772619309322829600,1.75982958984375,0.332635040807724,-0.0006412205129861831,-0.05026771346926689
1772619309332860400,1.7698603515625,0.597021890297532,-0.0724383364841342,0.0325851956538856
1772619309342891500,1.7798916015625,0.824858586025238,-0.1265130410209298,0.081576313316077
1772619309352921600,1.789921630859375,1.0007897379487751,-0.18951544063985346,0.1646081592027098
1772619309362952400,1.799952392578125,1.0932844817727803,-0.20762597460895776,0.22592969306260346
1772619309372983600,1.809983642578125,1.0926403386503458,-0.2912415386676788,0.2348971356332302
1772619309383014400,1.820014404296875,0.8100643369972705,-0.5576414815455675,-0.0655727615635842
1772619309393045500,1.83004541015625,0.9315028512328862,-0.27161563169956204,-0.19075966854728757
1772619309403076400,1.840076416015625,1.126767649179697,-0.20503975750803946,0.16841076635606586
1772619309413107200,1.850107177734375,1.1710936976402997,-0.33184359816908837,0.4124413487765938
1772619309423138000,1.860137939453125,1.1251485235452652,-0.4117459869235754,0.4379784525498748
1772619309433169200,1.870169189453125,1.0666682775259018,-0.42539895696192975,0.3331725086852908
1772619309443200000,1.880199951171875,0.9730559278488159,-0.41582185806035993,0.22595007826350627
1772619309453231000,1.890231201171875,0.8940905276834964,-0.4465279619693756,0.22493337550163267
1772619309463262200,1.90026220703125,0.8118903833806514,-0.5052694892734289,0.24203809342905877
1772619309473293000,1.91029296875,0.7687076597362756,-0.5740463806405663,0.20030805281102657
1772619309483324200,1.92032421875,0.7646551694750785,-0.6330266851365566,0.12535210748277603
1772619309493355000,1.93035498046875,0.6588695669233798,-0.6995832701057195,0.08090776640474796
1772619309503386000,1.94038623046875,0.46569501925408835,-0.7466597863182425,0.044074630982801316
1772619309513416000,1.950416015625,0.5154693962484598,-0.7464227626919746,0.006246858500316739
1772619309523447000,1.960447021484375,0.2959732433646917,-0.8336404428958892,0.02640157511550933
1772619309533478100,1.97047802734375,0.056712651824951166,-0.91374098457098,-0.07796228753738105
1772619309543509000,1.980509033203125,-0.0764011026352644,-0.9460527701109647,-0.11110372883453964
1772619309553540000,1.9905400390625,-0.14679565833210945,-0.9689160515651106,-0.10526603565700351
1772619309563571000,2.000571044921875,-0.2004717189401388,-1.0429939719498156,-0.07065930758025497
1772619309573602000,2.01060205078125,-0.18690555040240286,-1.093503385220468,-0.09188198222052306
1772619309583633200,2.020633056640625,-0.15017127224504948,-1.0721709665954113,-0.14365129589177666
1772619309593664300,2.030664306640625,-0.10269289723336696,-1.0567392964467406,-0.2011153323396109
1772619309603695000,2.040695068359375,-0.07623860554993152,-1.0247063278481363,-0.23942809359375386
1772619309613726200,2.050726318359375,-0.1345318045645952,-0.9819958978906274,-0.25467034211754797
1772619309623757000,2.060757080078125,-0.3953279360860586,-0.8803174383968114,-0.2790358813608065
1772619309633788200,2.0707880859375,-0.7542506798386573,-0.7139306521490216,-0.335869602282159
1772619309643819000,2.080819091796875,-1.0034200864523648,-0.6310390184506773,-0.2537828369596042
1772619309653849000,2.09084912109375,-1.1566489927023649,-0.5916539335235953,-0.2412953305040486
1772619309663880200,2.100880126953125,-1.1286994940251112,-0.6570081569656729,-0.2641060415207408
1772619309673911000,2.1109111328125,-0.9870867912888527,-0.8425906420707702,-0.14989335035281254
1772619309683942100,2.120942138671875,-0.773238873425126,-0.9164292007416486,-0.17901830428391693
1772619309693973000,2.130972900390625,-0.5080822086066007,-1.0743354511529206,-0.4149478517048061
1772619309704004000,2.141004150390625,-0.2332932075679302,-1.604494467011094,-0.8577702371545135
1772619309714035000,2.151034912109375,0.13934826493561267,-1.1702645533397793,-0.14874165956703944
1772619309724066000,2.161066162109375,0.36330256627202034,-0.7452405671700835,0.5798933896357193
1772619309734097000,2.171096923828125,0.03479951070249081,-0.9182388805121183,0.6766340639337897
1772619309744128000,2.1811279296875,-0.7746575080513953,-0.9460144839271902,0.47050643812380727
1772619309754158800,2.191158935546875,-1.6517320190042257,-0.5641723446190356,0.23087251975964754
1772619309764190000,2.20118994140625,-2.4005729487538336,-0.09390928679704666,0.15269036066019906
1772619309774221000,2.211220947265625,-2.954879732918739,0.3373874960318208,0.16378548117559402
1772619309784252200,2.221252197265625,-3.0496757394224403,0.7591136096999048,0.23203129787333307
1772619309794283300,2.231283203125,-2.7990409364312887,1.1369278086662291,0.3897041048549115
1772619309804314000,2.241314208984375,-2.409048516154289,1.3806120618671178,0.5317561853891238
1772619309814344200,2.25134423828125,-1.9520166958272456,1.5551678337842225,0.6693822661746293
1772619309824375000,2.261375,-1.4381296003341675,1.5997399659603833,0.7889199152249843
1772619309834406100,2.27140625,-0.9146259507119655,1.4599629542186856,0.8779201679967343
1772619309844437200,2.281437255859375,-0.367255103290081,1.2494286909475922,0.9051122724354267
1772619309854468000,2.291468017578125,0.1366150405794382,1.0198419366821647,0.8828638349439948
1772619309864499200,2.301499267578125,0.4985428113669157,0.8141036755159496,0.7916225252471863
1772619309874530000,2.311530029296875,0.7067360644698143,0.7035185637280345,0.639186084549129
1772619309884561200,2.32156103515625,0.8127806102186441,0.6486737516015768,0.4823009938791394
1772619309894592000,2.331592041015625,0.8928799828499555,0.5793310430452228,0.3660500383492559
1772619309904623000,2.341623046875,1.0133119503915309,0.5305483074367046,0.3039515653001144
1772619309914654000,2.351654052734375,1.0903992817252874,0.4996273917332291,0.34210736416056753
1772619309924685000,2.36168505859375,1.0932844817727803,0.5165557301804423,0.38344687109105285
1772619309934716000,2.3717158203125,1.0042150362223385,0.6498863422617316,0.4179423208130523
1772619309944747000,2.3817470703125,0.8333569497793912,0.7966846309423447,0.43294619400370865
1772619309954777900,2.39177783203125,0.4771966564774513,0.8492202893435955,0.40584487312100825
1772619309964808000,2.401807861328125,-0.027255671194195745,0.8628566005080938,0.290234115190804
1772619309974839000,2.411839111328125,-0.43395080446898937,0.891748932993412,0.1565956792693585
1772619309984870000,2.421869873046875,-0.6862099937915802,0.8645420693770051,0.011793012252217157
1772619309994901200,2.4319013671875,-0.7009925523817538,0.7869707539185881,-0.10487967582107521
1772619310004932000,2.44193212890625,-0.506817303237319,0.7462395150795579,-0.1487394584767986
1772619310014963200,2.451963134765625,-0.18551380378305912,0.7082064292833209,-0.18641038729660211
1772619310024994000,2.461994140625,0.20475334178209303,0.6598232143864036,-0.20105764733562245
1772619310035025200,2.472025146484375,0.6755588359177113,0.6095204296037554,-0.1703863772779703
1772619310045056000,2.482055908203125,1.1558797618955372,0.5307520133152603,-0.11002786149764433
1772619310055087000,2.492087158203125,1.5043150139033794,0.439419591268897,-0.0571470885863062
1772619310065118000,2.502117919921875,1.6497727016299961,0.3520344455435872,-0.06485295025589875
1772619310075149000,2.512149169921875,1.674879670357704,0.33412995554059743,-0.09081185050467029
1772619310085180200,2.52218017578125,1.541028249272704,0.31923370744287966,-0.10635372129585594
1772619310095211000,2.5322109375,1.4014017519176005,0.3034808425158262,-0.11750683734249323
1772619310105242000,2.5422421875,1.3059224393248556,0.27724107036590573,-0.11124125587539747
1772619310115273000,2.55227294921875,1.2287205417007208,0.21771043851077557,-0.06539182920583989
1772619310125303000,2.562302978515625,1.125178334161639,0.21351152551621197,-0.032754113346850494
1772619310135334000,2.572333984375,0.9923492418617009,0.2300742455214262,-0.06855495571214705
1772619310145365000,2.582364990234375,0.8690028481781482,0.2382671965882182,-0.08845451938933692
1772619310155396000,2.59239599609375,0.7850456310749053,0.2505868721961975,-0.10919936565109528
1772619310165427000,2.602427001953125,0.707834965622425,0.2710314020708203,-0.09300431904764846
1772619310175458000,2.6124580078125,0.6528215189307928,0.26188480354100463,-0.05064191707652062
1772619310185489200,2.6224892578125,0.5724328079640865,0.23935586860775945,-0.03372504073823802
1772619310195520300,2.632520263671875,0.5037970786333084,0.21162205850780008,-0.059984513102471826
1772619310205551000,2.642551025390625,0.42943128121793267,0.1770616172581911,-0.09829196799383498
1772619310215582200,2.652582275390625,0.3282312528908253,0.1203393208220601,-0.12090192314088344
1772619310225613000,2.662613037109375,0.24487667785584924,0.08256284013539553,-0.17270638119075446
1772619310235644200,2.67264404296875,0.18775719879567623,0.054873161438107484,-0.18926690923888234
1772619310245675000,2.682675048828125,0.165759886521101,0.043403672918677326,-0.1408971748780459
1772619310255706000,2.6927060546875,0.14816402407586574,0.030541853258013722,-0.07186561463009565
1772619310265737000,2.702737060546875,0.1316220545977354,0.03355506359934807,-0.017277718140464277
1772619310275767000,2.71276708984375,0.14733634108006954,0.05471095661371946,0.0604565693273209
1772619310285798100,2.722798095703125,0.32523324011862276,0.09055763828158378,0.2789292061159387
1772619310295829000,2.7328291015625,0.5232686718225479,0.06272825885266065,0.46687305005751545
1772619310305860000,2.742860107421875,0.6778431474626064,0.057112757058441634,0.5447156202053651
1772619310315891000,2.752890869140625,0.8049789965569972,0.008299041789770126,0.5449188511598855
1772619310325922000,2.762922119140625,0.8405325404971837,-0.13570464773625135,0.4671602695010602
1772619310335953000,2.772952880859375,0.6937403892964125,-0.29002310278862714,0.24364072458641603
1772619310345984000,2.78298388671875,0.43851241329610346,-0.40962943316102024,-0.025730964111257342
1772619310356014800,2.793014892578125,0.16294950527548788,-0.5259601028636097,-0.22008785343291237
1772619310366046000,2.8030458984375,-0.16441431713104246,-0.5805649687543512,-0.321819595750235
1772619310376077000,2.8130771484375,-0.3855114754706621,-0.5750424059405923,-0.31309326845910396
1772619310386108200,2.823108154296875,-0.4531342283666134,-0.6354468980208039,-0.22511753642950205
1772619310396139300,2.83313916015625,-0.34760581544637675,-0.7298539052069186,-0.11664875920843332
1772619310406170000,2.843170166015625,-0.16485446211397647,-0.9716346628740429,-0.016033946890756486
1772619310416201500,2.853201416015625,-0.0005874444991350174,-1.260376493680477,0.13362543030939997
1772619310426231300,2.863231201171875,0.1434907715678215,-1.586888959954679,0.26720292982384564
1772619310436262400,2.873262451171875,0.24056407535374164,-1.8294108913779257,0.3614304887898266
1772619310446293200,2.883293212890625,0.14755612131059168,-2.107723682628572,0.3646533232938498
1772619310456324400,2.893324462890625,-0.08186755134761332,-2.3185519604101774,0.29947401802726087
1772619310466355200,2.903355224609375,-0.4557897113114595,-2.438078211283684,0.3041942514821887
1772619310476386300,2.91338623046875,-1.0987953541487454,-2.3198262181296943,0.4036761507797986
1772619310486417400,2.92341748046875,-1.893333620712161,-1.9967939951866864,0.44979631611555815
1772619310496448300,2.9334482421875,-2.6378730538755653,-1.5336363854557276,0.5383212795257568
1772619310506479400,2.943479248046875,-3.177740393799543,-0.9684522334456444,0.7384782334282994
1772619310516510200,2.95351025390625,-3.4824551620244977,-0.4865250413149595,0.9696572983864694
1772619310526541300,2.963541259765625,-3.566113103920221,-0.18071750941723583,1.1286250405494123
1772619310536572200,2.973572265625,-3.410484150791168,0.0937745545014739,1.159870073640719
1772619310546603300,2.983603271484375,-3.003530658841133,0.2946004937067628,1.1072475406736135
1772619310556634400,2.99363427734375,-2.5026900919258592,0.39026860686987636,1.020272144792974
1772619310566665500,3.00366552734375,-1.992730983531475,0.4534153833955526,0.8655477392882108
1772619310576696300,3.0136962890625,-1.5043693744391202,0.4935021868512034,0.6028561494089663
1772619310586726400,3.023726318359375,-1.015917164453864,0.48085313315838574,0.3278694338411093
1772619310596757500,3.033757568359375,-0.5163216291636228,0.4834948798388242,0.13156952069289982
1772619310606788400,3.043788330078125,-0.012093173375725746,0.48642216546237466,-0.016962240716814993
1772619310616819500,3.0538193359375,0.4364940592110157,0.45187575273811814,-0.20869141188338397
1772619310626850300,3.063850341796875,0.8412859892129898,0.34416385829895735,-0.3449902991857379
1772619310636881400,3.07388134765625,1.1280910067379475,0.17067688465714453,-0.4610344800971448
1772619310646912300,3.083912353515625,1.3168909925848244,0.011049217280745505,-0.6207812438085675
1772619310656943400,3.093943359375,1.386378370308876,-0.06574088467210532,-0.7420001970093697
1772619310666974200,3.10397412109375,1.355557115587592,-0.046723757252097126,-0.7278365740351378
1772619310677005300,3.11400537109375,1.1495184101700782,0.1368573249027133,-0.5810396735940129
1772619310687036200,3.1240361328125,0.7325847914755343,0.444593194514513,-0.410175888062641
1772619310697067300,3.1340673828125,0.2008031428515911,0.7681938649952411,-0.2578952224481851
1772619310707098400,3.144098388671875,-0.31102994272112844,1.124296582891047,0.04220635289289057
1772619310717129200,3.154129150390625,-0.8511766841083764,1.4972227175548671,0.3498522061336785
1772619310727160300,3.164160400390625,-1.3066384786397218,1.8398840623363852,0.6763279205940663
1772619310737190100,3.174190185546875,-1.4935054505974052,2.118624723610282,0.8907673746101558
1772619310747221200,3.18422119140625,-1.3719687366843223,2.224475208091736,0.9804811094135045
1772619310757252000,3.194252197265625,-0.9681979664236307,2.1630501407921314,0.9555858106750994
1772619310767283200,3.204283203125,-0.3227303173869848,1.9307091193825006,0.7911683517388999
1772619310777314300,3.214314208984375,0.4142641072243452,1.5766241710498927,0.5635409148477017
1772619310787345400,3.224345458984375,1.0686702649980784,1.224387480932474,0.27160949421972036
1772619310797376500,3.23437646484375,1.6027911702245472,0.8952443738937378,0.03139993139207363
1772619310807407400,3.244407470703125,1.9712942277491092,0.6076736326932907,-0.1368574710331857
1772619310817438500,3.2544384765625,2.175980349513888,0.3037210810124874,-0.29529037566706534
1772619310827469300,3.26446923828125,2.2480080593705174,0.08425327744036912,-0.3748497962027788
1772619310837500400,3.27450048828125,2.2198767743855714,-0.053015550872683524,-0.4211575199998915
1772619310847531300,3.28453125,2.1212124020159244,-0.12680208709537982,-0.4645908574044704
1772619310857562400,3.294562255859375,1.9098878651499747,-0.1208227204248309,-0.4580566333301365
1772619310867593200,3.30459326171875,1.635921870931983,-0.04208469927459955,-0.35155484533309933
1772619310877624300,3.314624267578125,1.3210457741767168,0.10768325286656617,-0.22178134121149778
1772619310887654400,3.324654296875,1.0725959140092134,0.2348512506648898,-0.046191111680120224
1772619310897685200,3.334685302734375,0.863654472887516,0.282833775806427,0.11776786289885639
1772619310907716400,3.34471630859375,0.6662859806597232,0.2516898650020361,0.23801278343573212
1772619310917747200,3.354747314453125,0.4857540569424629,0.19934242264926433,0.31275150581672784
1772619310927778300,3.3647783203125,0.32799627509117124,0.10494272198677063,0.32313568331748244
1772619310937809200,3.37480908203125,0.14946575432419776,0.004794833061099052,0.2533576520837843
1772619310947840300,3.38484033203125,-0.022472528570890424,-0.09513707502633333,0.09492226323187351
1772619310957871000,3.39487109375,-0.24985621983408926,-0.22106939354985952,-0.07196268179640174
1772619310967902500,3.40490234375,-0.44604982306361196,-0.2610617967203259,-0.24461349687501788
1772619310977933300,3.414933349609375,-0.5294213492333889,-0.29163521416038274,-0.38950989745706316
1772619310987964400,3.42496435546875,-0.5546814626961947,-0.3006529256135225,-0.4648917400471866
1772619310997995300,3.434995361328125,-0.5117787250369787,-0.3057362202271819,-0.5594064453914761
1772619311008026400,3.4450263671875,-0.3937684316843748,-0.32085020272880793,-0.5816349360734224
1772619311018057500,3.455057373046875,-0.2457154667675495,-0.324522169239819,-0.54604120625332
1772619311028088300,3.46508837890625,-0.06163666422367096,-0.335134164147079,-0.541298395640403
1772619311038118400,3.475118408203125,0.1002250458151102,-0.3765308811575174,-0.515803888899833
1772619311048149200,3.485149169921875,0.2100795052409172,-0.40512861461043354,-0.4885148999579251
1772619311058180400,3.495180419921875,0.2488046649545431,-0.4375032362535596,-0.455822444537282
1772619311068211200,3.505211181640625,0.24189152456521987,-0.4710235208004713,-0.4889147129304707
1772619311078242300,3.5152421875,0.26015666457414627,-0.5615583627283572,-0.5428831806138158
1772619311088273400,3.5252734375,0.3122562696456909,-0.6175783561140299,-0.5829727605484426
1772619311098304300,3.53530419921875,0.38567104994654655,-0.6714911480873823,-0.6348233592949807
1772619311108335400,3.54533544921875,0.4902794254124164,-0.6922814226597547,-0.6712807202070951
1772619311118366200,3.5553662109375,0.5409773469924927,-0.6746963738694787,-0.6831751561403274
1772619311128397300,3.565397216796875,0.5123977337181568,-0.624245412787795,-0.695218352894485
1772619311138428200,3.57542822265625,0.42688685743212695,-0.5746636357560754,-0.6450185900948942
1772619311148459500,3.58545947265625,0.33339842639565465,-0.4929898534148931,-0.5393023995175957
1772619311158490400,3.595490478515625,0.25808219638764857,-0.43832127463817594,-0.43644861263409257
1772619311168521500,3.605521484375,0.19809446841478345,-0.4191460340470075,-0.3027235944077372
1772619311178552300,3.61555224609375,0.24215339037179945,-0.42390258092433214,-0.19918518626093865
1772619311188582400,3.62558251953125,0.2897749732464552,-0.4966764329731464,-0.07282850484549999
1772619311198613500,3.635613525390625,0.3687637542873621,-0.5894178450345993,0.08086451178491115
1772619311208644400,3.645644287109375,0.42350364473462104,-0.6432984883040189,0.21880948579385875
1772619311218675500,3.655675537109375,0.4361310711175203,-0.7137479890584946,0.38741774748340246
1772619311228706300,3.665706298828125,0.4358528386980295,-0.7761068300768733,0.526148026651144
1772619311238737400,3.6757373046875,0.2649976748645306,-0.7918205320373177,0.5929559560328722
1772619311248768300,3.685768310546875,-0.05017652805447578,-0.7184981061950325,0.5992492109581827
1772619311258799400,3.69579931640625,-0.5222849214822054,-0.541648085860908,0.6015111645407974
1772619311268830200,3.705830322265625,-1.0613017820566892,-0.31582302221655845,0.597535831169039
1772619311278861300,3.715861328125,-1.5941875925302504,-0.06048223349153995,0.687934479496628
1772619311288892200,3.72589208984375,-2.014918849942088,0.29807080016583204,0.8253656587645412
1772619311298923300,3.73592333984375,-2.238357602971792,0.6898179551556706,0.8423921238239854
1772619311308954000,3.7459541015625,-2.2898797004163263,0.994777345791459,0.8329385051716118
1772619311318985200,3.755985107421875,-2.162302537295222,1.1393518209427596,0.8401992899548262
1772619311329016300,3.766016357421875,-1.7997376376479863,1.198503098091483,0.8423711541011929
1772619311339047400,3.77604736328125,-1.3011498180955647,1.1842574228569864,0.9318633551083505
1772619311349077200,3.7860771484375,-0.8957757042914628,1.1773738008230923,1.0871723555680364
1772619311359108000,3.796108154296875,-0.5950269170880317,1.2523355183050036,1.1661105754654855
1772619311369139500,3.806139404296875,-0.31296938635110855,1.3079352404519915,1.1610480313789098
1772619311379170300,3.81617041015625,-0.10056582207679748,1.3017077442392706,1.031275769366324
1772619311389201400,3.826201416015625,0.0786053346812725,1.244253918658197,0.7380301243346185
1772619311399232500,3.836232421875,0.2073129631370306,1.04914021961987,0.4146067831821739
1772619311409263400,3.846263427734375,0.23857202475368974,0.8136728828832507,0.11293956595957279
1772619311419294200,3.856294189453125,0.18617957421541212,0.7021025594502687,-0.16782755964063106
1772619311429325000,3.866324951171875,0.04169277734756469,0.6397852194860577,-0.3481641799814999
1772619311439356200,3.876356201171875,-0.18162147251963615,0.6498363656401633,-0.40424949368834495
1772619311449387000,3.886386962890625,-0.4529162017017603,0.7296247726261615,-0.38392683662772176
1772619311459418400,3.89641845703125,-0.7176239537090062,0.8120882440403103,-0.330817981448397
1772619311469449200,3.90644921875,-0.8845914624541997,0.9169324740886687,-0.29698139749392866
1772619311479480300,3.916480224609375,-0.9361626597374677,1.007058442954719,-0.29302243073508144
1772619311489511200,3.92651123046875,-0.9104109633654356,0.9925842196613549,-0.2568746472287923
1772619311499541200,3.936541259765625,-0.9081728290498257,0.9498930789262056,-0.27076383717581626
1772619311509572400,3.946572265625,-0.9218290139585733,0.9423667750746011,-0.3624470454212278
1772619311519603200,3.956603271484375,-0.9677221656054258,0.9243597014799714,-0.53700055231601
1772619311529634300,3.96663427734375,-1.0111246694803238,0.8516992466777562,-0.7308863169945776
1772619311539665200,3.9766650390625,-0.9951473481476306,0.7880082802727818,-0.878737621859461
1772619311549696300,3.9866962890625,-0.9728963533729315,0.7449050516054034,-1.0258576167751103
1772619311559727000,3.99672705078125,-0.941945334792137,0.6966089304700493,-1.1313909250661731
1772619311569758200,4.00675830078125,-0.8217728949695825,0.730470575800538,-1.203146466917917
1772619311579789000,4.0167890625,-0.5528694448381662,0.7551642875522374,-1.1416354749005286
1772619311589820200,4.026820068359375,-0.2013303815960884,0.7759393645554781,-1.0285111269585787
1772619311599851000,4.03685107421875,0.21565935119986532,0.8073039323732256,-0.8546442140884697
1772619311609882000,4.046882080078125,0.6673001261383295,0.8371744622409343,-0.7224865913093089
1772619311619913200,4.056913330078125,1.0938672500967979,0.8252785650029778,-0.6622749183874577
1772619311629944000,4.066944091796875,1.4057254603356122,0.7245935004606843,-0.6966311423018574
1772619311639974100,4.07697412109375,1.6370160959094762,0.5948603283494711,-0.8636611948892474
1772619311650005000,4.0870048828125,1.818558073452115,0.38523382757306096,-1.1371036766897886
1772619311660036000,4.0970361328125,1.954886113783717,0.1779790243640542,-1.253371875615418
1772619311670067200,4.107067138671875,2.0188363156467677,0.07233516837060451,-1.2417664857566355
1772619311680098300,4.117098388671875,1.9399667770713567,0.0600707300812006,-1.1322392855238168
1772619311690129400,4.12712939453125,1.7010107214361427,0.1400330323293805,-0.9712890643067658
1772619311700160300,4.13716015625,1.4275275422990321,0.2702089797720313,-0.8037338918667286
1772619311710191400,4.14719140625,1.1276987925499677,0.38779315666705366,-0.6447253793019802
1772619311720222200,4.15722216796875,0.8784908074915408,0.46124680767357346,-0.525054240065068
1772619311730253300,4.16725341796875,0.6151636961877346,0.5020440974861383,-0.457047602418065
1772619311740284200,4.1772841796875,0.3680097210496664,0.5245303623214363,-0.41912542965039606
1772619311750315300,4.187315185546875,0.12226210557818412,0.5034820213347673,-0.3757827662039548
1772619311760346000,4.19734619140625,-0.09567454290390014,0.5061977100342512,-0.3236569307126105
1772619311770377200,4.207377197265625,-0.26765257328748704,0.4845438043698668,-0.2800145536672324
1772619311780408000,4.217407958984375,-0.4119213434904814,0.47181467117816206,-0.27458324933350087
1772619311790439200,4.227439208984375,-0.4880599957972765,0.4338333155691623,-0.2844957907345146
1772619311800469200,4.23746923828125,-0.5769856489628553,0.3603103987187147,-0.30285438118055463
1772619311810500000,4.2475,-0.602096709343791,0.25513269893229007,-0.31539902465082703
1772619311820531200,4.25753125,-0.5900502977192401,0.13287044722363353,-0.301035714386031
1772619311830562000,4.26756201171875,-0.5085141702830791,0.052098728288710115,-0.2791957846302539
1772619311840593200,4.27759326171875,-0.3368950363397598,-0.024734482153505086,-0.22465485082119702
1772619311850624000,4.2876240234375,-0.09160510150790215,-0.13270122813656926,-0.1097188503473997
1772619311860655400,4.2976552734375,0.20024667801260948,-0.2678827287815511,0.015862608911842106
1772619311870686200,4.307686279296875,0.41436698307693004,-0.34681992576569315,0.11445618106760085
1772619311880717300,4.31771728515625,0.5455576605200767,-0.40033743481114503,0.16094897910803554
1772619311890748200,4.327748046875,0.6228945827007293,-0.48646454329937694,0.13683445548377932
1772619311900779300,4.337779296875,0.6508025803238153,-0.6142514036484062,0.02705539938174188
1772619311910810000,4.34781005859375,0.6476584370791911,-0.7601762704953551,-0.11193338459171354
1772619311920841200,4.35784130859375,0.6512766275763511,-0.8931992779321968,-0.28916495158933103
1772619311930872300,4.367872314453125,0.6684720925271511,-1.0610523373402654,-0.4651512677662074
1772619311940903200,4.377903076171875,0.6254518659681081,-1.1672235782086848,-0.4479233618505299
1772619311950934300,4.387934326171875,0.5831774893403053,-1.1603570534400642,-0.38640637848377224
1772619311960964000,4.397964111328125,0.4988303961366415,-1.0913880005016923,-0.2946626722227782
1772619311970995200,4.4079951171875,0.353687181186676,-1.010352954455465,-0.09150171419866382
1772619311981026000,4.418026123046875,0.20171499699950218,-0.9170707135155797,0.1704024516299367
1772619311991057200,4.42805712890625,0.012649638214707375,-0.7998214676633477,0.4403882171053439
1772619312001088300,4.438088134765625,-0.1828074674338102,-0.6799968183651566,0.6635016837034374
1772619312011119000,4.448119140625,-0.34846155549287794,-0.5631538152262568,0.8494068248916417
1772619312021150200,4.458150146484375,-0.4884633159011602,-0.5498712859354913,1.024793567740172
1772619312031181000,4.46818115234375,-0.6684966424465179,-0.5291416555091738,1.1286360734000802
1772619312041212200,4.478212158203125,-0.8052806098520755,-0.5105690569862723,1.1946718493655324
1772619312051243300,4.4882431640625,-0.9747942959487438,-0.548734098599106,1.191264890466258
1772619312061274400,4.4982744140625,-1.1678607070684432,-0.6350897551462054,1.092879919559881
1772619312071305200,4.50830517578125,-1.2981418684512376,-0.7824579526692629,0.9117026836764067
1772619312081336300,4.51833642578125,-1.3043074053436516,-0.875321091414243,0.8160527637571096
1772619312091367200,4.5283671875,-1.234926995125413,-0.9738299809612333,0.8520681530553847
1772619312101397200,4.538397216796875,-1.1617670663684605,-1.0661126894697546,0.8333052926573902
1772619312111428400,4.548428466796875,-1.0498001448333263,-1.0559878935575484,0.8471493282884359
1772619312121459200,4.558459228515625,-0.86429978505373,-1.0168266805142163,0.9168900231864303
1772619312131490300,4.568490234375,-0.7517132703155279,-0.9648336045570671,1.0415992296557872
1772619312141521200,4.578521240234375,-0.8825164097458124,-0.8674822144821286,1.0543591233119367
1772619312151552300,4.58855224609375,-1.325239718735218,-0.6976993560552597,0.9211967074044048
1772619312161583000,4.5985830078125,-2.0735089860767126,-0.48250104649588466,0.6536912144374102
1772619312171614200,4.6086142578125,-2.8132915801018474,-0.22508637410625815,0.4712207604056224
1772619312181645000,4.61864501953125,-3.4373248114436863,0.06021101533472538,0.5259401560541243
1772619312191676200,4.62867626953125,-3.8843420182347295,0.37049057807996866,0.6498361464444548
1772619312201707000,4.63870703125,-3.9440339781314133,0.693979020357877,0.8337004294548184
1772619312211738000,4.648738037109375,-3.6339018610328435,0.8733553442992269,1.015589612999931
1772619312221769200,4.658769287109375,-2.9887586216449735,0.9880778481528162,1.1208685812037438
1772619312231800000,4.668800048828125,-2.081310599738359,1.109355618868768,1.1615813345380126
1772619312241831400,4.67883154296875,-1.0671908400952816,1.2291443200707435,1.1308590101465583
1772619312251861000,4.688861083984375,-0.10677578263282775,1.2825129221647977,0.9887530440006405
1772619312261892000,4.69889208984375,0.7191729367166757,1.3042179734945296,0.768387560936436
1772619312271923200,4.708923095703125,1.37057406745553,1.1881149750679731,0.5689448562504723
1772619312281954300,4.718954345703125,1.7897703703850507,0.9857403451159595,0.35302707331012934
1772619312291985200,4.728985107421875,1.9641022704184055,0.7869923812285066,0.09165184499276802
1772619312302016300,4.739016357421875,1.9647154338806867,0.6175102593138814,-0.1873540248222649
1772619312312047400,4.74904736328125,1.8636130207091568,0.4614326856344938,-0.4180322641188279
1772619312322078200,4.759078125,1.7566092745393513,0.3273416105747223,-0.63492981534414
1772619312332109300,4.769109375,1.6286960113316773,0.2865378910213709,-0.8061293356359005
1772619312342140200,4.77914013671875,1.51587685688138,0.30447482198923825,-0.8692994930371641
1772619312352171300,4.789171142578125,1.3926023593902588,0.3962096873566508,-0.8832914127063005
1772619312362202000,4.7992021484375,1.2740139738887548,0.6132309745594858,-0.7925896897789091
1772619312372233200,4.809233154296875,1.1350935789763927,0.8559986974373459,-0.6058579981060698
1772619312382264000,4.81926416015625,1.0221066667437553,1.0565922891914843,-0.40984815394561736
1772619312392295200,4.829295166015625,0.93106679790318,1.2193842658177017,-0.20245270015690475
1772619312402326000,4.839325927734375,0.8153548446208239,1.3136544948816298,-0.04607170481784269
1772619312412356000,4.849356201171875,0.6694032358974218,1.3431421629115938,0.0660455849734135
1772619312422387700,4.8593876953125,0.549087588211894,1.2989274658709764,0.0972560034090653
1772619312432418600,4.86941845703125,0.44258886895477767,1.1839400274708867,0.14374145839326083
1772619312442449700,4.87944970703125,0.3942892406880855,1.0323840228691696,0.1689079387558624
1772619312452480500,4.88948046875,0.3218903594315052,0.918062354901433,0.1914612409453839
1772619312462511600,4.89951171875,0.3058382192969322,0.8506164198771119,0.20562482738699764
1772619312472542500,4.90954248046875,0.36342297778129573,0.7509221199378371,0.2923905625723302
1772619312482573600,4.919573486328125,0.4717243625462055,0.629575667899847,0.3757104316201061
1772619312492604400,4.9296044921875,0.6326409006893634,0.5010378430530429,0.4509208631660789
1772619312502635500,4.939635498046875,0.7870955493420362,0.34630876137316224,0.4831386868122965
1772619312512666400,4.949666259765625,0.9091980804443359,0.18115210144221783,0.4591393870655447
1772619312522697500,4.959697509765625,0.9773299519062042,0.032307109364867206,0.4299111006241291
1772619312532728600,4.969728515625,0.9874918649584055,-0.10828794076144695,0.41762919974327084
1772619312542759700,4.979759765625,0.9231915344834327,-0.260492764660716,0.33032150316834447
1772619312552790500,4.98979052734375,0.8177654128938913,-0.3699029874503612,0.21895517787486313
1772619312562820600,4.999820556640625,0.6906248876243829,-0.45819998732358214,0.14250957851074636
1772619312572851700,5.009851806640625,0.5844207673996686,-0.5134221083298325,0.12280929113216697
1772619312582882600,5.019882568359375,0.5075421103805303,-0.5426107934132218,0.1402084619615227
1772619312592913700,5.02991357421875,0.4723188213080167,-0.5607946848794818,0.1319008715391159
1772619312602944500,5.039944580078125,0.40610359712243077,-0.5791939726620913,0.14954459171406922
1772619312612975600,5.0499755859375,0.3333358825534582,-0.5929971648260951,0.11176504228748381
1772619312623006500,5.06000634765625,0.28262159436047074,-0.6144359664350748,0.08326689675152302
1772619312633037600,5.07003759765625,0.20680209100544453,-0.6128863989055157,0.06717004069238901
1772619312643068700,5.080068603515625,0.17471125473976135,-0.5939724395990371,0.03700410807467997
1772619312653099500,5.090099609375,0.16562720005214213,-0.5935995146334171,-0.015928002298250792
1772619312663130600,5.100130615234375,0.1856359688580036,-0.6472010487005114,-0.05294058594033122
1772619312673161500,5.110161376953125,0.19267302788794038,-0.704672117677331,-0.12833740690387785
1772619312683192600,5.120192626953125,0.15956044735908506,-0.7379442726820706,-0.19531287487223742
1772619312693223400,5.130223388671875,0.11417524523437023,-0.7321241882264614,-0.23084822556860743
1772619312703254500,5.140254638671875,0.07795067016482353,-0.6812117471128701,-0.27697781631983814
1772619312713284600,5.15028466796875,0.06345511182248592,-0.6976070015966892,-0.27829277137592434
1772619312723315500,5.1603154296875,0.05964227553606033,-0.7038926577374339,-0.22823365915603935
1772619312733346600,5.1703466796875,0.05647825854718685,-0.716908206655085,-0.22176570525094866
1772619312743377700,5.180377685546875,0.03982639895379543,-0.732563164165616,-0.17898783608041702
1772619312753408800,5.19040869140625,0.001751227581501007,-0.7093766421064734,-0.1541288507644087
1772619312763439600,5.200439697265625,-0.001359013393521309,-0.7277776834547519,-0.10422032599635421
1772619312773470700,5.210470703125,-0.0005780921489000321,-0.734441232997179,-0.045964682513102886
1772619312783501600,5.22050146484375,0.0025210429102182387,-0.7267801968500017,-0.012048603581637143
1772619312793532700,5.23053271484375,0.021527941197156904,-0.7338584646731615,0.0033300212055444715
1772619312803563500,5.2405634765625,0.07092354800701141,-0.7534089683175087,0.0453099449314177
1772619312813594600,5.2505947265625,0.13944588009119033,-0.7623214658305049,0.035632527460530396
1772619312823625500,5.26062548828125,0.16767828736305235,-0.8002259568110108,-0.03286839650943875
1772619312833656600,5.270656494140625,0.15459551842808722,-0.8153717957556247,-0.10247947367839515
1772619312843687400,5.2806875,0.042132337808609005,-0.7849532766163348,-0.19658559822179375
1772619312853718500,5.290718505859375,-0.1121107139199972,-0.713842097082734,-0.17752916170470415
1772619312863748600,5.30074853515625,-0.2871481318742037,-0.5981257598862052,-0.15068470165990291
1772619312873779500,5.310779541015625,-0.44632980904877184,-0.46805502638369795,-0.096027301864326
1772619312883810600,5.320810546875,-0.5960603517889976,-0.3806941383168101,-0.03277699189893901
1772619312893841400,5.33084130859375,-0.7246241878598928,-0.33264351637512446,0.03924173093363643
1772619312903872500,5.34087255859375,-0.7671779659509659,-0.3012845015153289,0.04115384816527366
1772619312913903400,5.3509033203125,-0.7569371424436568,-0.3486503560632467,0.05602211227752268
1772619312923934500,5.3609345703125,-0.6845259862273931,-0.5064522693172097,0.03197225138731301
1772619312933965600,5.370965576171875,-0.5089437938719987,-0.6736547558620571,0.06978007706031203
1772619312943996700,5.38099658203125,-0.24387539185881613,-0.8395502514615655,0.16796872167699037
1772619312954027800,5.39102783203125,0.0326209976196289,-0.9953396558493375,0.2224147437442094
1772619312964058600,5.40105859375,0.2283405535966158,-1.1619108587533236,0.18763810246065257
1772619312974089700,5.41108984375,0.27180735487937924,-1.3479171222284436,0.12600063451938331
1772619312984120600,5.42112060546875,0.11170564025044441,-1.3476724998176097,0.06592552052401006
1772619312994151700,5.431151611328125,-0.3862392052233219,-1.2131252054229378,0.015367665001749992
1772619313004182500,5.4411826171875,-1.1423767217218874,-0.9001829993396997,0.05996602759771048
1772619313014213600,5.451213623046875,-1.9373206464767454,-0.5574348530575632,0.21611257486008106
1772619313024244500,5.461244384765625,-2.5878397336840626,-0.2613932206317782,0.3957355670388788
1772619313034274600,5.471274658203125,-3.072377400574088,0.02335632566809654,0.5379935819413513
1772619313044305700,5.4813056640625,-3.229839414349198,0.32090134839415546,0.5827284303985536
1772619313054336500,5.49133642578125,-3.094367698585987,0.5791936804011464,0.6473086737934499
1772619313064367600,5.50136767578125,-2.7244799087047573,0.7298954062610864,0.706216789836064
1772619313074398500,5.5113984375,-2.197003263798356,0.7660662053167819,0.6624625499140471
1772619313084429600,5.5214296875,-1.6557406701236963,0.7446274037078022,0.5615858352571725
1772619313094460400,5.53146044921875,-1.1229752711594103,0.7735495468094945,0.47804304417371746
1772619313104491500,5.541491455078125,-0.6137532448679208,0.8721247795909642,0.4358097302086651
1772619313114522400,5.5515224609375,-0.13378537011146543,0.9177095959410071,0.45360593753159045
1772619313124553700,5.5615537109375,0.2473012746542692,0.9266191708445548,0.4535966582465917
1772619313134584600,5.57158447265625,0.569835777208209,0.9348439783543347,0.4398134128920734
1772619313144615700,5.58161572265625,0.8201631216853856,0.9060644585937261,0.42285716352462765
1772619313154646500,5.591646484375,0.9896943434387445,0.8612532569646835,0.37629495350979264
1772619313164677600,5.601677734375,1.1070160700052976,0.810943750180304,0.33111725665591657
1772619313174708500,5.61170849609375,1.1757032372623681,0.7840814622178673,0.28997751008123157
1772619313184738600,5.621738525390625,1.201787526589632,0.7653194786027073,0.254831158702448
1772619313194769700,5.631769775390625,1.1891209372401237,0.7483779884129762,0.2452900809623301
1772619313204800500,5.641800537109375,1.1183423506617545,0.7343541392356157,0.21340536172799765
1772619313214831600,5.65183154296875,0.980631331539154,0.7210793548598885,0.1580186978098005
1772619313224862500,5.661862548828125,0.7587105818569659,0.7134884613394736,0.07830554801709949
1772619313234893600,5.6718935546875,0.46116731269657607,0.722913584549725,0.040418958019465205
1772619313244924700,5.681924560546875,0.09907119960486889,0.761166742837429,0.047867812720686194
1772619313254955500,5.69195556640625,-0.285377615070343,0.8589575472429394,0.025545652405917642
1772619313264986600,5.701986572265625,-0.6417623647779226,0.9512550149291753,0.0029739377768710253
1772619313275017500,5.712017578125,-0.8725625864863396,1.1180705479830504,-0.052073191988654434
1772619313285048600,5.722048583984375,-0.9039309536963701,1.3191396482944489,-0.08057966696154326
1772619313295079400,5.732079345703125,-0.832811006334424,1.4405062663376331,-0.1283465400584042
1772619313305110500,5.742110595703125,-0.6281418357044458,1.4908417843461035,-0.25576445749718696
1772619313315140600,5.752140625,-0.20775486168563365,1.4384627778112888,-0.34575653431788084
1772619313325171500,5.76217138671875,0.26729718397855756,1.3315063779145477,-0.4223045711431652
1772619313335202600,5.77220263671875,0.7232149055838585,1.2490548891991375,-0.42763402253761884
1772619313345233700,5.782233642578125,1.0606167224019765,1.1955895487323402,-0.3499325048282742
1772619313355264800,5.7922646484375,1.2359557536512613,1.2060416769027709,-0.21537278934344647
1772619313365295600,5.802295654296875,1.3325070793896914,1.2489341854289173,-0.10224128100834787
1772619313375326700,5.81232666015625,1.4268798920452594,1.2577365005657075,0.0012475889082998036
1772619313385357600,5.822357666015625,1.5039292294561861,1.2241618554830551,0.05439473027139902
1772619313395388700,5.832388671875,1.5725257958203553,1.1070534794062374,0.08670052446201443
1772619313405419500,5.84241943359375,1.5813596751391887,0.9763850722715258,0.0732565940644592
1772619313415450600,5.85245068359375,1.5919406903862952,0.8295958436802029,-0.0052967181686311956
1772619313425481200,5.862481201171875,1.5757283912539481,0.6801824040651321,-0.09987915498688817
1772619313435512300,5.87251220703125,1.5111615187972782,0.4941726334586739,-0.21017748572267592
1772619313445543200,5.882543212890625,1.3906447955816983,0.26338702479749915,-0.34509675523489713
1772619313455574300,5.89257421875,1.2014736383348703,0.07080781267285347,-0.44354171270020304
1772619313465604400,5.902604248046875,0.9865940393358469,-0.07992898450046777,-0.5615303056776523
1772619313475635200,5.91263525390625,0.7793962270110845,-0.2387275075763464,-0.7072065315257757
1772619313485666300,5.922666259765625,0.6052782619893551,-0.3460857662722468,-0.7696155683614313
1772619313495697200,5.932697265625,0.5216074606120586,-0.44674511185139415,-0.7528362829960882
1772619313505728300,5.942728271484375,0.476796258983016,-0.5186196769729257,-0.6477278490535915
1772619313515759000,5.952759033203125,0.4773679213911295,-0.5471159958779811,-0.5136324631448835
1772619313525790200,5.962790283203125,0.5111603008776903,-0.5384983896583319,-0.3211836724668741
1772619313535821300,5.9728212890625,0.5919406415104865,-0.49620413928627966,-0.10514094797261059
1772619313545852400,5.982852294921875,0.5820066919952631,-0.43345133051425216,0.11434504884332418
1772619313555883500,5.992883544921875,0.5330173278987408,-0.40494712056368587,0.31941870862096544
1772619313565914400,6.002914306640625,0.4438134423136711,-0.44073885717391964,0.444432743255794
1772619313575945500,6.012945556640625,0.3517062365025282,-0.5172065953046083,0.5196203784480691
1772619313585976300,6.022976318359375,0.24464228457808493,-0.6261483237996697,0.574240003516525
1772619313596007400,6.03300732421875,0.17727262966036794,-0.743769910095632,0.5760108125813305
1772619313606038300,6.043038330078125,0.1698375112235546,-0.8476470486775041,0.5776189784303307
1772619313616068400,6.053068359375,0.14133973101377487,-0.9902861718520521,0.5413020489022136
1772619313626099500,6.063099365234375,0.07454699920117855,-1.105953993731737,0.5710530440434813
1772619313636130300,6.07313037109375,-0.1013619408905506,-1.1345070112600921,0.5905279982335865
1772619313646161400,6.083161376953125,-0.3905354411125183,-1.13294458424896,0.6049345631182194
1772619313656192300,6.093192138671875,-0.727535106870532,-1.1493258102074264,0.6418946128554642
1772619313666223400,6.103223388671875,-1.0306325030267238,-1.1489414870649575,0.7186988894641398
1772619313676254200,6.113254150390625,-1.266057461926341,-1.1051432618707417,0.8864746458522975
1772619313686285300,6.123285400390625,-1.3827180942356585,-1.0972545544475316,1.043139956291765
1772619313696316200,6.133316162109375,-1.3868039022445677,-1.160430849328637,1.1778139458060264
1772619313706347300,6.14334716796875,-1.3167068681895733,-1.3629995405480264,1.1900189820583909
1772619313716378000,6.153378173828125,-1.2144757432490587,-1.6450851283356547,1.0692859126783907
1772619313726409500,6.163409423828125,-1.1030869138628243,-1.897114016033709,0.8817581387244164
1772619313736440300,6.1734404296875,-0.9503589428722858,-2.0621715995043517,0.6118927847582847
1772619313746471400,6.183471435546875,-0.7467325592935085,-2.13984257594496,0.4262726710565388
1772619313756502300,6.193502197265625,-0.6478408079087734,-2.1110294461756944,0.21150142780281603
1772619313766533400,6.203533447265625,-0.8185755602329969,-1.9767858109027145,-0.03262764655612409
1772619313776563500,6.2135634765625,-1.3240490476459263,-1.631818527266383,-0.20855499908737837
1772619313786594300,6.22359423828125,-2.057888807618618,-1.1163488387569784,-0.22131182400360702
1772619313796625400,6.23362548828125,-2.6538164729386566,-0.5125727980241179,-0.10478168620616198
1772619313806656300,6.24365625,-3.0401544623613357,0.1252054655537009,0.019720343785919248
1772619313816687400,6.253687255859375,-3.167906397527456,0.7144304183647037,0.24250523601677268
1772619313826718200,6.26371826171875,-3.027779549434781,1.133884495447576,0.4874977953372523
1772619313836749300,6.273749267578125,-2.6360768181085583,1.371872290572524,0.6447913572102785
1772619313846780400,6.283780517578125,-2.119137349307537,1.462019009965658,0.7992487823419272
1772619313856811300,6.293811279296875,-1.5966870081305502,1.4430024670675397,0.8630578221686184
1772619313866842400,6.30384228515625,-1.1052519829422234,1.441470435194671,0.7103139229565858
1772619313876873200,6.313873291015625,-0.7453022342294454,1.4040952287852764,0.48646742937620724
1772619313886904300,6.323904296875,-0.5544464848965406,1.290406890285015,0.28711222031060607
1772619313896935200,6.33393505859375,-0.44151510224342344,1.2394497332468628,0.0989474088284187
1772619313906966300,6.34396630859375,-0.3240285405039787,1.2672712216302753,-0.01754089912129566
1772619313916997400,6.353997314453125,-0.161358436691761,1.3215177756026386,-0.04267775153061375
1772619313927027200,6.364027099609375,-0.02636310626864433,1.27101099268049,-0.0908385741148144
1772619313937058300,6.374058349609375,0.041247956189513206,1.2209879016220568,-0.1750285587943159
1772619313947089400,6.38408935546875,0.13523790700733662,1.1869658050328493,-0.3191922794539481
1772619313957120500,6.39412060546875,0.30699615716040135,1.1830737660303712,-0.3934633843231946
1772619313967151400,6.4041513671875,0.494237807649374,1.1884347085416316,-0.436278955155611
1772619313977182500,6.414182373046875,0.6972013434052466,1.2130787359327078,-0.4619094363007694
1772619313987213300,6.42421337890625,0.8977414514064789,1.2788678436607122,-0.4535962563877925
1772619313997244400,6.434244384765625,1.0800298634022474,1.3417434020295738,-0.3491078905723989
1772619314007275300,6.444275146484375,1.2005647067964076,1.3796747810170054,-0.151517882814724
1772619314017306400,6.454306396484375,1.3033096264779567,1.4671341610223054,0.04957489063320681
1772619314027337200,6.464337158203125,1.3585036904335022,1.5311454454228282,0.2526337582560256
1772619314037368300,6.474368408203125,1.343947341814637,1.5099515584856271,0.4584964860521257
1772619314047399200,6.484399169921875,1.2778373315691947,1.4589873871847987,0.6080395068636164
1772619314057430300,6.49443017578125,1.1801000109165907,1.3207476680129766,0.6894765943720936
1772619314067461400,6.50446142578125,1.0311211633265018,1.1371557722032068,0.6258674610316753
1772619314077491200,6.5144912109375,0.8584183257997036,0.943224853208661,0.5068693622181192
1772619314087522300,6.524522216796875,0.6520230620294809,0.7721057777419685,0.32035708544962105
1772619314097553200,6.53455322265625,0.498973019477725,0.6200047064781189,0.10758388414531946
1772619314107584300,6.544584228515625,0.4609902025640011,0.46318420547693967,-0.09793386613801121
1772619314117615000,6.554614990234375,0.52354456615448,0.33005262309908867,-0.2854437756417319
1772619314127646200,6.564646240234375,0.5716571474164724,0.2018225490272045,-0.3623719343584031
1772619314137677300,6.57467724609375,0.5975409457355737,0.09499036003202199,-0.4422867442030459
1772619314147708400,6.58470849609375,0.5813602107852697,0.021398177337646485,-0.5485298812638968
1772619314157739500,6.594739501953125,0.5795534536242485,-0.04003653457313776,-0.6274493233956396
1772619314167770400,6.604770263671875,0.5831424180269241,-0.05665069250464439,-0.5871360177077353
1772619314177801500,6.614801513671875,0.5576403125017881,-0.07787585136294364,-0.5247310725253075
1772619314187832300,6.624832275390625,0.493564438432455,-0.07317337276041508,-0.4759490675691515
1772619314197863400,6.634863525390625,0.4473106367796659,-0.04243453562557697,-0.3913778102207929
1772619314207894300,6.644894287109375,0.4624918392986059,0.010898410633206367,-0.29124665323421356
1772619314217925400,6.65492529296875,0.4729612108647823,0.03239800251871347,-0.19933781953938304
1772619314227955500,6.66495556640625,0.5104793328762054,0.028117548720538614,-0.09451083288677037
1772619314237986300,6.674986328125,0.5283101731210946,-0.03963876742720604,-0.056944268623739476
1772619314248017400,6.685017333984375,0.551717352193594,-0.10268471392691135,-0.05841580248102545
1772619314258048300,6.69504833984375,0.5281055904597044,-0.19153642507344484,-0.10173778846561908
1772619314268079400,6.705079345703125,0.46563832063078875,-0.27878157780617474,-0.19248444651328026
1772619314278110200,6.715110107421875,0.42169747209548947,-0.3179021665781736,-0.30553426791429517
1772619314288141300,6.725141357421875,0.38706396560966966,-0.3398012791752815,-0.3231624982591718
1772619314298172200,6.735172119140625,0.38436756613254547,-0.41164252654910083,-0.33126163356266913
1772619314308203300,6.745203369140625,0.3739034552633762,-0.47142216472923754,-0.33288127065375445
1772619314318234000,6.755234130859375,0.3708569271743297,-0.4922033792123198,-0.328380890494585
1772619314328265500,6.765265380859375,0.3410176692277193,-0.5262471031114458,-0.33266835855543614
1772619314338296300,6.77529638671875,0.29307109218239785,-0.5658420313969255,-0.3403284448545426
1772619314348327400,6.785327392578125,0.2671387785464525,-0.5617421948626637,-0.3494959400419146
1772619314358358300,6.795358154296875,0.27978432510793205,-0.5817170613989233,-0.31410306655615566
1772619314368389400,6.805389404296875,0.2819955714166164,-0.6149266725614666,-0.25461956177838146
1772619314378419500,6.81541943359375,0.2515530868798494,-0.6143477036297321,-0.2530819769475609
1772619314388450300,6.8254501953125,0.18833879807591436,-0.6219929576858878,-0.23616510974243282
1772619314398481400,6.8354814453125,0.06425999846458434,-0.6495727462679147,-0.23149046899490058
1772619314408512300,6.84551220703125,-0.0723141255825758,-0.6700289665803313,-0.24904336908124386
1772619314418543600,6.855543701171875,-0.17165654334425925,-0.7024354446664453,-0.31060543369874355
1772619314428574500,6.865574462890625,-0.23333178601264953,-0.7624892236128449,-0.41859110357798635
1772619314438605600,6.87560546875,-0.2855307598054409,-0.8032958657756447,-0.5361325373098254
1772619314448636400,6.885636474609375,-0.3602963701933622,-0.7711088756591081,-0.689925507183373
1772619314458667500,6.89566748046875,-0.41023499783873557,-0.6938029331386089,-0.8082000044301152
1772619314468698600,6.90569873046875,-0.43429041168689725,-0.5931584928676485,-0.9142462306793778
1772619314478729700,6.915729736328125,-0.4437403770774603,-0.49597179183512924,-0.9505391948100179
1772619314488760800,6.9257607421875,-0.4615548507094383,-0.37206542618125676,-0.9322120954807848
1772619314498791700,6.935791748046875,-0.5183487510770559,-0.31977965088784693,-0.9032217825137078
1772619314508822800,6.94582275390625,-0.6909475437074899,-0.3322472105339169,-0.789066776349768
1772619314518853600,6.955853515625,-0.8641291046619415,-0.24592384882122276,-0.6263331057820469
1772619314528883700,6.9658837890625,-0.9570055412799119,-0.22702888647615907,-0.47812684999965127
1772619314538914600,6.97591455078125,-0.9773866505295038,-0.24675328538268804,-0.3703389677148312
1772619314548945700,6.985945556640625,-0.9640431848317385,-0.34600773259997364,-0.21523959141783414
1772619314558976800,6.995976806640625,-0.8628197756290436,-0.5124518019929528,-0.08450644848383963
1772619314569007600,7.006007568359375,-0.7526806540429591,-0.7292281745240092,0.026397446929663417
1772619314579038700,7.016038818359375,-0.6921966669857501,-0.9406918275997042,0.07054601993151009
1772619314589069600,7.026069580078125,-0.6485714602708816,-1.116916701772809,0.005939180790632963
1772619314599100700,7.0361005859375,-0.5592915868401527,-1.1233218926399946,-0.12456731378063558
1772619314609131500,7.046131591796875,-0.38049452409148216,-1.0099065258622169,-0.20519626324400306
1772619314619162600,7.05616259765625,-0.2631394797772169,-0.8215890628352761,-0.1661326653562486
1772619314629193500,7.066193359375,-0.3207745071440935,-0.5280179121762514,0.005584376003593206
1772619314639224600,7.076224609375,-0.6888327435106039,-0.10288929658830165,0.16729995556995272
1772619314649255400,7.08625537109375,-1.2859054872125386,0.36344197474271056,0.296778422267735
1772619314659286500,7.09628662109375,-1.8356845648199318,0.8398229309231042,0.42260406554639335
1772619314669317600,7.106317626953125,-2.265163192310929,1.1996890930056572,0.5546091281123459
1772619314679347500,7.116347412109375,-2.473861472326517,1.4518135500326752,0.5988834463857114
1772619314689378600,7.126378662109375,-2.426678865391016,1.5707026720464228,0.5781266356915236
1772619314699409700,7.13640966796875,-2.0878508151620627,1.6289251439124346,0.5184253234446048
1772619314709440800,7.146440673828125,-1.5467589018791914,1.585520009689033,0.3810246854454279
1772619314719471600,7.1564716796875,-0.7828741322547197,1.4981550299689173,0.22460516646057366
1772619314729502700,7.166502685546875,-0.03140051591396332,1.3603475647345185,0.08113134602755308
1772619314739533600,7.176533447265625,0.5578846426516771,1.1612503490179777,0.09369885891675948
1772619314749564700,7.186564697265625,0.9503887534886598,1.0529884194806218,0.11558423524945974
1772619314759595500,7.196595458984375,1.2274375161528586,1.0636346089184283,0.1811013941682875
1772619314769626600,7.206626708984375,1.3532330565541981,1.068773140850663,0.33421661091074345
1772619314779657700,7.21665771484375,1.2557505874454975,1.0516305751308799,0.44504049989059563
1772619314789688600,7.2266884765625,1.0636772790163755,1.011310547441244,0.45745209156572814
1772619314799719700,7.2367197265625,0.9364461528539657,1.0019403692886233,0.4137367223493755
1772619314809750500,7.24675048828125,0.851789263048768,0.9458639695405959,0.32386341307014227
1772619314819781600,7.25678173828125,0.7663479448676109,0.8565867264583706,0.2134665173307061
1772619314829811500,7.2668115234375,0.6813163765311241,0.7874711046561599,0.13865356066972018
1772619314839842600,7.276842529296875,0.5765840824246407,0.7616925202772021,0.12498626984506844
1772619314849873700,7.286873779296875,0.4263713091254234,0.7660431167021393,0.10592091936916112
1772619314859904500,7.296904541015625,0.27669220431149005,0.7805883594051003,0.11572086724117397
1772619314869935600,7.306935546875,0.11299743362665175,0.8249474333524703,0.11273892882093786
1772619314879966500,7.316966552734375,-0.03601590075492859,0.8479767190232872,0.10413257464766502
1772619314889997800,7.326997802734375,-0.16163550006747246,0.8397416823804378,0.00907177972793579
1772619314900028700,7.337028564453125,-0.23394085782170293,0.80945000449121,-0.14243395599126815
1772619314910059800,7.347059814453125,-0.20562837105095386,0.790949009899795,-0.27593393329009414
1772619314920090600,7.357090576171875,-0.10934650990366936,0.7827049131676554,-0.4090066250875592
1772619314930121700,7.367121826171875,-0.005910100826621055,0.758630210097134,-0.522319116012752
1772619314940152600,7.377152587890625,0.12222761878669261,0.7557108155190945,-0.576943271125853
1772619314950183700,7.38718359375,0.17504501673877237,0.7769158083721995,-0.4914397013634443
1772619314960214500,7.397214599609375,0.1517734467446804,0.8337038635209202,-0.26723493239730595
1772619314970245600,7.40724560546875,0.09210311415791511,0.8985334785670042,-0.05408464140892028
1772619314980275700,7.417275634765625,0.05697510215342044,0.9577654197365045,-0.0030199323430657385
1772619314990306600,7.427306640625,0.06650806965231895,0.9519143556207418,-0.015901479617506264
1772619315000337700,7.437337646484375,0.1518260537147522,0.9117197078764439,-0.02383987140133977
1772619315010368500,7.447368408203125,0.25366964064240455,0.8333259701192378,-0.08462079557850956
1772619315020399600,7.457399658203125,0.25477497153580186,0.7607996630907058,-0.20460779583156108
1772619315030430500,7.467430419921875,0.13005962758660317,0.689115944366157,-0.24974150741323828
1772619315040461600,7.477461669921875,-0.022815058398246765,0.6308443726614117,-0.23574732272177934
1772619315050492400,7.487492431640625,-0.12851239814460277,0.6109305886626243,-0.28671383211016654
1772619315060523500,7.4975234375,-0.15926526380479336,0.5979629705399274,-0.36892362102419135
1772619315070554400,7.507554443359375,-0.17058686828613281,0.5633601514533162,-0.3785245391927659
1772619315080585700,7.517585693359375,-0.1690577590227127,0.5017939221173524,-0.31764161594584583
1772619315090616600,7.527616455078125,-0.16716390810012816,0.4463654648840427,-0.29107611897289754
1772619315100647700,7.537647705078125,-0.11807400623857975,0.3653291036635637,-0.306936097536236
1772619315110678800,7.5476787109375,0.037214170628786084,0.25593875461816784,-0.3200273420386016
1772619315120708600,7.55770849609375,0.25748364597260953,0.13157295475900171,-0.28842326637655497
1772619315130739700,7.56773974609375,0.3536486027419567,0.0315887319624424,-0.2736019832111895
1772619315140770600,7.5777705078125,0.3782844468265772,-0.017438041535019874,-0.2825498442985117
1772619315150801700,7.5878017578125,0.3249076614260673,-0.0828536397755146,-0.32958544397875666
1772619315160832800,7.597832763671875,0.24221534969210623,-0.12527063974440097,-0.36443288547620173
1772619315170863600,7.607863525390625,0.1841062750726938,-0.07219108372479677,-0.3033385114356875
1772619315180894700,7.617894775390625,0.10079027848243713,-0.0077209496408700935,-0.10754325987398623
1772619315190925600,7.627925537109375,-0.04968669871091842,0.016601882971823214,0.04586918624937534
1772619315200956700,7.637956787109375,-0.14065467135906218,0.07991261788755655,0.18744550249800085
1772619315210987500,7.647987548828125,-0.16316460933089255,0.08061141380667686,0.25705723725408314
1772619315221018600,7.6580185546875,-0.14479834703505037,0.028295243375003335,0.25494024510011076
1772619315231049500,7.668049560546875,-0.08236147234439849,-0.08118950595557689,0.21221315626874565
1772619315241080600,7.67808056640625,-0.01120411558151245,-0.16962971369177102,0.13438041339516638
1772619315251111400,7.688111328125,0.09266834682524204,-0.24813246478140352,0.1160544831097126
1772619315261142500,7.698142578125,0.19391279881596565,-0.3206096719712019,0.15674582832977174
1772619315271172600,7.708172607421875,0.3004477584302425,-0.3504296406954527,0.23767098426073788
1772619315281203500,7.718203369140625,0.33896482835114,-0.4164680470094084,0.2505861415438354
1772619315291234600,7.728234619140625,0.30409342145621776,-0.46496027523875233,0.23407778207436203
1772619315301265700,7.738265625,0.27232816388309,-0.49866322287619114,0.35066651819124817
1772619315311296800,7.748296875,0.2883756278425455,-0.5240969393402338,0.43016529458090663
1772619315321327600,7.75832763671875,0.27416064000725743,-0.5462500266984105,0.4066821276627481
1772619315331358700,7.768358642578125,0.2521364397257566,-0.5404603373810649,0.43716435968801376
1772619315341389600,7.7783896484375,0.15290858825445175,-0.5382397387221455,0.5163794968307018
1772619315351420700,7.788420654296875,-0.009479776006937026,-0.48455140315443274,0.6874502031110227
1772619315361451500,7.798451416015625,-0.14585925426483154,-0.38778643466532225,0.8214782959371805
1772619315371482600,7.808482666015625,-0.1677846703469753,-0.30283757617622614,0.8699012583225965
1772619315381513500,7.818513427734375,-0.04981353996098041,-0.34959728152453895,0.8789465884350239
1772619315391544600,7.828544677734375,0.14278583816885948,-0.45028117702305315,0.8628798352532088
1772619315401575700,7.83857568359375,0.42225218336880205,-0.5654658915609121,0.8045489345766603
1772619315411606500,7.8486064453125,0.6519008969545363,-0.6534598168343305,0.7977243492536247
1772619315421636600,7.85863671875,0.7623071450442075,-0.7270654435321688,0.8903212382778525
1772619315431667700,7.868667724609375,0.7647884404659271,-0.7699208349183201,1.0195778789184986
1772619315441698800,7.87869873046875,0.707208358156681,-0.7351119718655943,1.110920310902223
1772619315451729700,7.888729736328125,0.5683820712685584,-0.7331792502373456,1.1642038650613278
1772619315461760800,7.8987607421875,0.41280163345634935,-0.7710954316556453,1.121117879789695
1772619315471791900,7.9087919921875,0.27975509901344775,-0.8308823763594031,1.0561079397406428
1772619315481822700,7.91882275390625,0.08788929585516453,-0.9172802646130322,0.9639282532151788
1772619315491853800,7.928853759765625,-0.0917336963236332,-0.9594979426175355,0.8698987741045653
1772619315501884700,7.938884765625,-0.2523041975080967,-0.9380918742343782,0.8937211098492145
1772619315511915800,7.948915771484375,-0.39976504175066946,-0.8743529770344495,1.0249632252186536
1772619315521946600,7.958946533203125,-0.5795101990044117,-0.7386267019882797,1.1414758273594081
1772619315531977700,7.968977783203125,-0.9440320779383182,-0.49999067208766934,1.1920519491907209
1772619315542008600,7.979008544921875,-1.2468547488063573,-0.4661947854697704,1.1563808432854712
1772619315552039700,7.989039794921875,-1.2196294727504253,-0.650799365453422,0.9067175156749785
1772619315562070500,7.999070556640625,-1.2956857074707746,-0.7251280457288026,0.41833069907613096
