time,seconds_elapsed,z,y,x
1772619307637631700,0.0746318359375,-0.08261515200138092,0.03997495770454407,-0.02311861515045166
1772619307647662600,0.08466259765625,-0.0871930941939354,0.06180202588438988,0.04033345356583595
1772619307657693700,0.094693603515625,-0.08649587631225586,0.07616551220417023,0.1040266752243042
1772619307667724500,0.104724609375,-0.07723334431648254,0.08565153181552887,0.15150094032287598
1772619307677755600,0.114755615234375,-0.07076026499271393,0.08989181369543076,0.16719308495521545
1772619307687786500,0.124786376953125,-0.06487533450126648,0.09296034276485443,0.15660814940929413
1772619307697817600,0.134817626953125,-0.05921132117509842,0.10560210794210434,0.12540042400360107
1772619307707848400,0.144848388671875,-0.0589696504175663,0.11572154611349106,0.08290056884288788
1772619307717879600,0.154879638671875,-0.05969217047095299,0.1190800666809082,0.049735426902770996
1772619307727910400,0.164910400390625,-0.057317331433296204,0.11218125373125076,0.02180885151028633
1772619307737941500,0.17494140625,-0.051848795264959335,0.10228680819272995,0.019533447921276093
1772619307747972600,0.18497265625,-0.04091469570994377,0.1005142331123352,0.0329604297876358
1772619307758003700,0.195003662109375,-0.023908548057079315,0.08991990983486176,0.05237327516078949
1772619307768033500,0.205033447265625,-0.0039032474160194397,0.08269891142845154,0.07328561693429947
1772619307778064600,0.215064697265625,0.017186325043439865,0.07651105523109436,0.08923262357711792
1772619307788095700,0.225095703125,0.03236215189099312,0.07414913922548294,0.10034200549125671
1772619307798126600,0.235126708984375,0.03653266280889511,0.06599001586437225,0.10328958928585052
1772619307808157700,0.24515771484375,0.03188355639576912,0.05124055966734886,0.09591037780046463
1772619307818188500,0.2551884765625,0.023011766374111176,0.039770856499671936,0.08232452720403671
1772619307828219600,0.2652197265625,0.01961333304643631,0.025673214346170425,0.06608070433139801
1772619307838250800,0.275250732421875,0.017295584082603455,0.00933392345905304,0.04766148701310158
1772619307848281600,0.285281494140625,0.02335948310792446,-0.008594176732003689,0.028838858008384705
1772619307858312700,0.295312744140625,0.033187344670295715,-0.03602660074830055,0.015299880877137184
1772619307868343600,0.305343505859375,0.04807503893971443,-0.059816718101501465,0.013116429559886456
1772619307878374700,0.315374755859375,0.06379009038209915,-0.0844794511795044,0.02501596510410309
1772619307888405500,0.325405517578125,0.07939983159303665,-0.10306834429502487,0.045744799077510834
1772619307898436600,0.3354365234375,0.09011958539485931,-0.11533672362565994,0.0713721290230751
1772619307908467500,0.345467529296875,0.09521394222974777,-0.1284036785364151,0.08378447592258453
1772619307918498600,0.35549853515625,0.0998515710234642,-0.1282888948917389,0.09281712025403976
1772619307928529400,0.365529296875,0.09702838212251663,-0.11406432837247849,0.09216507524251938
1772619307938559500,0.3755595703125,0.09759484231472015,-0.09646988660097122,0.08393111824989319
1772619307948590600,0.385590576171875,0.09607665985822678,-0.07227664440870285,0.07867898792028427
1772619307958621400,0.395621337890625,0.09468835592269897,-0.041714735329151154,0.06737759709358215
1772619307968652800,0.40565283203125,0.08666715025901794,-0.019793257117271423,0.05157400295138359
1772619307978683600,0.41568359375,0.07527201622724533,-0.006091826595366001,0.039432916790246964
1772619307988714800,0.42571484375,0.06805155426263809,0.009354395791888237,0.03487398475408554
1772619307998745600,0.43574560546875,0.06101415306329727,0.02302812971174717,0.027021922171115875
1772619308008776700,0.445776611328125,0.05820263549685478,0.03013651818037033,0.02970392256975174
1772619308018807600,0.4558076171875,0.05545425042510033,0.032869987189769745,0.0268828347325325
1772619308028838700,0.465838623046875,0.054743506014347076,0.028816046193242073,0.03168950602412224
1772619308038869500,0.475869384765625,0.04857269674539566,0.027883140370249748,0.040830276906490326
1772619308048900600,0.485900634765625,0.04349439591169357,0.020794058218598366,0.04271930828690529
1772619308058931700,0.495931640625,0.036213044077157974,0.018939433619379997,0.047203805297613144
1772619308068962600,0.505962646484375,0.029717613011598587,0.014969848096370697,0.04978182166814804
1772619308078993700,0.51599365234375,0.020801082253456116,0.019777653738856316,0.042751606553792953
1772619308089023500,0.5260234375,0.012948239222168922,0.03305603191256523,0.030841490253806114
1772619308099054600,0.5360546875,0.005188853479921818,0.05033568665385246,0.014829501509666443
1772619308109085400,0.54608544921875,-0.00342126889154315,0.06555414199829102,-0.007580991834402084
1772619308119116500,0.556116455078125,-0.01884363405406475,0.06834886223077774,-0.02675521746277809
1772619308129147600,0.566147705078125,-0.027721144258975983,0.05809900537133217,-0.036104463040828705
1772619308139178500,0.576178466796875,-0.033807266503572464,0.042795684188604355,-0.029186638072133064
1772619308149209600,0.586209716796875,-0.03479774668812752,0.028361696749925613,-0.017535239458084106
1772619308159240700,0.59624072265625,-0.03138437494635582,0.0197458378970623,0.00010420696344226599
1772619308169271800,0.606271728515625,-0.0238789189606905,0.017381839454174042,0.016596907749772072
1772619308179302700,0.616302734375,-0.015049740672111511,0.02285436913371086,0.02464444749057293
1772619308189333800,0.626333740234375,-0.006075971759855747,0.018078668043017387,0.021902650594711304
1772619308199364600,0.636364501953125,0.0005459785461425781,0.01388498768210411,0.020665612071752548
1772619308209395700,0.646395751953125,0.008595101535320282,0.016323786228895187,0.01248803548514843
1772619308219426600,0.656426513671875,0.014282016083598137,0.014357042498886585,0.008635773323476315
1772619308229457700,0.666457763671875,0.019160062074661255,0.006866238545626402,0.005796859506517649
1772619308239488500,0.676488525390625,0.014874237589538097,-0.0025264639407396317,0.0005131477955728769
1772619308249518600,0.6865185546875,0.014322230592370033,-0.008559990674257278,-0.006805500481277704
1772619308259549700,0.6965498046875,0.013191984966397285,-0.013576054945588112,-0.013845034874975681
1772619308269580500,0.70658056640625,0.01263463869690895,-0.021153710782527924,-0.03112740069627762
1772619308279611600,0.716611572265625,0.008811937645077705,-0.027800695970654488,-0.04208071529865265
1772619308289642500,0.726642578125,0.00794474221765995,-0.034641332924366,-0.05944079905748367
1772619308299673600,0.736673583984375,0.006264020688831806,-0.04416533187031746,-0.0694819837808609
1772619308309704400,0.746704345703125,0.0009964057244360447,-0.05268686264753342,-0.07102909684181213
1772619308319735600,0.756735595703125,-0.005618087947368622,-0.04911769554018974,-0.06863198429346085
1772619308329766400,0.766766357421875,-0.013356167823076248,-0.04092714190483093,-0.06384069472551346
1772619308339797500,0.776797607421875,-0.020088639110326767,-0.030186612159013748,-0.052273254841566086
1772619308349828600,0.78682861328125,-0.0225034449249506,-0.026085663586854935,-0.05022759363055229
1772619308359859700,0.796859619140625,-0.02605876512825489,-0.021869879215955734,-0.04590102285146713
1772619308369890800,0.806890869140625,-0.03026001900434494,-0.014775984920561314,-0.04675876349210739
1772619308379921700,0.816921630859375,-0.037501685321331024,-0.008350576274096966,-0.053465936332941055
1772619308389952800,0.826952880859375,-0.042209871113300323,0.0025677080266177654,-0.054778803139925
1772619308399983600,0.836983642578125,-0.045513786375522614,0.011056268587708473,-0.05968248099088669
1772619308410013700,0.847013671875,-0.05345860496163368,0.018015118315815926,-0.0691109299659729
1772619308420044500,0.85704443359375,-0.053423184901475906,0.024195782840251923,-0.07387425750494003
1772619308430075400,0.867075439453125,-0.04365228861570358,0.03181328997015953,-0.08559869974851608
1772619308440106500,0.8771064453125,-0.034864917397499084,0.04552324116230011,-0.08866719156503677
1772619308450137300,0.887137451171875,-0.025508690625429153,0.05451188609004021,-0.09051483869552612
1772619308460168400,0.89716845703125,-0.013814483769237995,0.0661163479089737,-0.08678854256868362
1772619308470199300,0.90719921875,-0.004676925018429756,0.06490572541952133,-0.07882042229175568
1772619308480230400,0.91723046875,0.007738199550658464,0.0554451160132885,-0.06999417394399643
1772619308490261500,0.927261474609375,0.01715056225657463,0.042074527591466904,-0.05484844371676445
1772619308500292600,0.937292724609375,0.030713774263858795,0.019145241007208824,-0.029376903548836708
1772619308510323500,0.947323486328125,0.036305464804172516,-0.012642014771699905,-0.01284752693027258
1772619308520354600,0.9573544921875,0.043228354305028915,-0.04564976692199707,0.0007953142048791051
1772619308530385400,0.967385498046875,0.04830022156238556,-0.0735146552324295,0.014446210116147995
1772619308540416500,0.97741650390625,0.050017163157463074,-0.09694141149520874,0.033709652721881866
1772619308550447400,0.987447265625,0.04955846816301346,-0.11875174939632416,0.04622478038072586
1772619308560478500,0.997478515625,0.038534846156835556,-0.14383871853351593,0.05886547639966011
1772619308570508500,1.007508544921875,0.027333837002515793,-0.16650713980197906,0.06740429252386093
1772619308580539400,1.017539306640625,0.004918009974062443,-0.18065997958183289,0.07283501327037811
1772619308590570500,1.027570556640625,-0.01648683100938797,-0.17618940770626068,0.06765936315059662
1772619308600601300,1.037601318359375,-0.043722979724407196,-0.15844103693962097,0.05681842938065529
1772619308610632400,1.047632568359375,-0.07463186234235764,-0.12879972159862518,0.03501472622156143
1772619308620663300,1.057663330078125,-0.10425926744937897,-0.1010325476527214,0.0041327085345983505
1772619308630694400,1.0676943359375,-0.13919247686862946,-0.06477627158164978,-0.033500950783491135
1772619308640725200,1.077725341796875,-0.1753813773393631,-0.029287515208125114,-0.07085151970386505
1772619308650756400,1.08775634765625,-0.1970355212688446,-0.0074022794142365456,-0.0862823948264122
1772619308660787500,1.097787353515625,-0.2184222936630249,0.020926564931869507,-0.07765721529722214
1772619308670818300,1.107818359375,-0.22360482811927795,0.03872722014784813,-0.057400427758693695
1772619308680849700,1.117849609375,-0.22067482769489288,0.048816341906785965,-0.03725414350628853
1772619308690880500,1.127880615234375,-0.21946975588798523,0.055057600140571594,-0.026948053389787674
1772619308700911600,1.13791162109375,-0.21169225871562958,0.05763101577758789,-0.028593087568879128
1772619308710942500,1.1479423828125,-0.2082548290491104,0.05115170776844025,-0.03460189700126648
1772619308720973600,1.1579736328125,-0.20367978513240814,0.028509514406323433,-0.044621773064136505
1772619308731003600,1.168003662109375,-0.19370543956756592,0.006035753525793552,-0.055824290961027145
1772619308741034500,1.178034423828125,-0.18121787905693054,-0.009908058680593967,-0.05204926058650017
1772619308751065600,1.188065673828125,-0.16294364631175995,-0.036830928176641464,-0.042095158249139786
1772619308761096400,1.198096435546875,-0.1459612101316452,-0.081363245844841,-0.033003129065036774
1772619308771127600,1.20812744140625,-0.13354912400245667,-0.13695035874843597,-0.018486380577087402
1772619308781158400,1.218158447265625,-0.12338782846927643,-0.19789467751979828,-0.009583432227373123
1772619308791189500,1.228189453125,-0.10770644247531891,-0.26458510756492615,0.0019836099818348885
1772619308801220400,1.238220458984375,-0.0909423753619194,-0.3119931221008301,0.012943582609295845
1772619308811251500,1.24825146484375,-0.07923811674118042,-0.36127498745918274,0.03451305627822876
1772619308821282300,1.2582822265625,-0.06511803716421127,-0.38553398847579956,0.06438066810369492
1772619308831313400,1.2683134765625,-0.055859535932540894,-0.3727613389492035,0.11122388392686844
1772619308841344300,1.27834423828125,-0.05008420720696449,-0.31232061982154846,0.16628234088420868
1772619308851375400,1.288375244140625,-0.05139760300517082,-0.23743055760860443,0.22200094163417816
1772619308861406200,1.29840625,-0.0647757276892662,-0.15082935988903046,0.26498541235923767
1772619308871437600,1.3084375,-0.08314909785985947,-0.024185266345739365,0.29323381185531616
1772619308881468400,1.318468505859375,-0.10373932123184204,0.12318341434001923,0.3055088520050049
1772619308891498200,1.328498291015625,-0.13531799614429474,0.2429884970188141,0.30208146572113037
1772619308901529600,1.338529541015625,-0.16600561141967773,0.3389033079147339,0.2716122269630432
1772619308911560400,1.348560546875,-0.19518795609474182,0.4047819674015045,0.2312377691268921
1772619308921591600,1.358591552734375,-0.2099650502204895,0.4597291052341461,0.1811373233795166
1772619308931622400,1.368622314453125,-0.2104872465133667,0.4856671690940857,0.14775612950325012
1772619308941653500,1.378653564453125,-0.20429885387420654,0.4647509753704071,0.13302858173847198
1772619308951684400,1.388684326171875,-0.18698877096176147,0.39287814497947693,0.15183421969413757
1772619308961715500,1.398715576171875,-0.14655399322509766,0.29035070538520813,0.22940385341644287
1772619308971746600,1.40874658203125,-0.09069801867008209,0.18309393525123596,0.342923104763031
1772619308981777400,1.41877734375,-0.023395145311951637,0.08299289643764496,0.48102185130119324
1772619308991808500,1.42880859375,0.03137410059571266,0.05159816890954971,0.6302428245544434
1772619309001839400,1.43883935546875,0.05855778232216835,0.10433381050825119,0.796966016292572
1772619309011870500,1.448870361328125,0.06254342198371887,0.15751881897449493,0.9303800463676453
1772619309021901300,1.4589013671875,0.05030246824026108,0.1866237074136734,1.01038658618927
1772619309031932400,1.468932373046875,0.01293165422976017,0.21996121108531952,1.0392332077026367
1772619309041962500,1.47896240234375,-0.049856364727020264,0.2766737639904022,1.0235027074813843
1772619309051993300,1.488993408203125,-0.14254067838191986,0.32716304063796997,0.9579424858093262
1772619309062024400,1.4990244140625,-0.24689717590808868,0.3401656448841095,0.8387817144393921
1772619309072055300,1.50905517578125,-0.34705865383148193,0.33779868483543396,0.6882866024971008
1772619309082086400,1.51908642578125,-0.4328702390193939,0.32903367280960083,0.524048924446106
1772619309092117500,1.529117431640625,-0.5038671493530273,0.3001871407032013,0.3543332517147064
1772619309102148600,1.539148681640625,-0.5449767708778381,0.25802212953567505,0.19362905621528625
1772619309112179500,1.549179443359375,-0.5563071370124817,0.20112816989421844,0.05242721363902092
1772619309122210600,1.55921044921875,-0.5503749847412109,0.12997835874557495,-0.057904619723558426
1772619309132241400,1.569241455078125,-0.5303955078125,0.0296703539788723,-0.14300672709941864
1772619309142272500,1.5792724609375,-0.4902097284793854,-0.084126777946949,-0.20079359412193298
1772619309152303400,1.589303466796875,-0.4368816316127777,-0.2042199969291687,-0.23356486856937408
1772619309162334500,1.59933447265625,-0.3911975026130676,-0.31066760420799255,-0.24248433113098145
1772619309172365300,1.609365234375,-0.3692006468772888,-0.3798806667327881,-0.23610518872737885
1772619309182396400,1.619396484375,-0.3682789206504822,-0.3943682610988617,-0.20315097272396088
1772619309192427500,1.629427490234375,-0.3831232488155365,-0.39392638206481934,-0.16613595187664032
1772619309202457300,1.639457275390625,-0.4021965265274048,-0.37610557675361633,-0.1363365203142166
1772619309212488400,1.649488525390625,-0.40998414158821106,-0.3276604413986206,-0.11724672466516495
1772619309222519300,1.659519287109375,-0.41096606850624084,-0.2620193660259247,-0.09940354526042938
1772619309232550400,1.66955029296875,-0.3920636475086212,-0.2073931246995926,-0.08510036021471024
1772619309242581200,1.679581298828125,-0.3639926016330719,-0.17042525112628937,-0.06316869705915451
1772619309252612400,1.6896123046875,-0.3365059196949005,-0.13234156370162964,-0.039670031517744064
1772619309262643500,1.6996435546875,-0.31602805852890015,-0.10799974948167801,-0.003981275018304586
1772619309272674600,1.709674560546875,-0.31051477789878845,-0.09384939819574356,0.0533057302236557
1772619309282705700,1.71970556640625,-0.3062582314014435,-0.06141848862171173,0.12856772541999817
1772619309292736500,1.729736572265625,-0.29620179533958435,-0.026796218007802963,0.2149336338043213
1772619309302767600,1.739767578125,-0.2820598781108856,-0.00039896462112665176,0.2819520831108093
1772619309312798500,1.749798583984375,-0.2644306421279907,0.006730293855071068,0.3222900331020355
1772619309322829600,1.75982958984375,-0.25638604164123535,-0.008520031347870827,0.31894218921661377
1772619309332860400,1.7698603515625,-0.24303768575191498,-0.05722467601299286,0.28515464067459106
1772619309342891500,1.7798916015625,-0.22228926420211792,-0.09873643517494202,0.2266564667224884
1772619309352921600,1.789921630859375,-0.20112751424312592,-0.1087011843919754,0.16842645406723022
1772619309362952400,1.799952392578125,-0.19408026337623596,-0.09297734498977661,0.12581586837768555
1772619309372983600,1.809983642578125,-0.20262593030929565,-0.09291552752256393,0.12618158757686615
1772619309383014400,1.820014404296875,-0.22502684593200684,-0.13410690426826477,0.11368577182292938
1772619309393045500,1.83004541015625,-0.2167603224515915,-0.23554053902626038,0.07982980459928513
1772619309403076400,1.840076416015625,-0.17597001791000366,-0.36079299449920654,0.024332193657755852
1772619309413107200,1.850107177734375,-0.13913856446743011,-0.46103763580322266,-0.03335507586598396
1772619309423138000,1.860137939453125,-0.116048164665699,-0.49643024802207947,-0.08014841377735138
1772619309433169200,1.870169189453125,-0.09604743868112564,-0.5006121397018433,-0.1191406399011612
1772619309443200000,1.880199951171875,-0.07346862554550171,-0.5050089955329895,-0.15317237377166748
1772619309453231000,1.890231201171875,-0.045322876423597336,-0.5127488374710083,-0.17528218030929565
1772619309463262200,1.90026220703125,-0.02675052359700203,-0.5253799557685852,-0.18595506250858307
1772619309473293000,1.91029296875,-0.019642993807792664,-0.5523797869682312,-0.18696460127830505
1772619309483324200,1.92032421875,-0.01666584610939026,-0.5282863974571228,-0.1752927601337433
1772619309493355000,1.93035498046875,-0.008923572488129139,-0.5271636843681335,-0.14579559862613678
1772619309503386000,1.94038623046875,-0.00330403633415699,-0.5148656964302063,-0.10742504149675369
1772619309513416000,1.950416015625,0.00022416934370994568,-0.5103471875190735,-0.053760282695293427
1772619309523447000,1.960447021484375,-0.006577544379979372,-0.49771660566329956,0.026052523404359818
1772619309533478100,1.97047802734375,-0.025972014293074608,-0.4602893590927124,0.11410994827747345
1772619309543509000,1.980509033203125,-0.04044682905077934,-0.44205042719841003,0.1944018453359604
1772619309553540000,1.9905400390625,-0.056958358734846115,-0.44102421402931213,0.25946682691574097
1772619309563571000,2.000571044921875,-0.0768556296825409,-0.4452064335346222,0.29243168234825134
1772619309573602000,2.01060205078125,-0.0979059562087059,-0.46278485655784607,0.29011067748069763
1772619309583633200,2.020633056640625,-0.10973438620567322,-0.5037458539009094,0.24826602637767792
1772619309593664300,2.030664306640625,-0.11754916608333588,-0.5552700161933899,0.17305836081504822
1772619309603695000,2.040695068359375,-0.11223349720239639,-0.5716162323951721,0.0943872407078743
1772619309613726200,2.050726318359375,-0.09546347707509995,-0.5464900135993958,0.04069964215159416
1772619309623757000,2.060757080078125,-0.07371103763580322,-0.45817986130714417,0.037895068526268005
1772619309633788200,2.0707880859375,-0.03819798678159714,-0.31391265988349915,0.08274723589420319
1772619309643819000,2.080819091796875,-0.013917680829763412,-0.1753087043762207,0.15084825456142426
1772619309653849000,2.09084912109375,-0.006008277181535959,-0.02373703382909298,0.22447645664215088
1772619309663880200,2.100880126953125,0.0028792235534638166,0.14793352782726288,0.291034460067749
1772619309673911000,2.1109111328125,-0.023734770715236664,0.2940784692764282,0.32820379734039307
1772619309683942100,2.120942138671875,-0.09878184646368027,0.3787917494773865,0.33101367950439453
1772619309693973000,2.130972900390625,-0.16848085820674896,0.345241904258728,0.2703542709350586
1772619309704004000,2.141004150390625,-0.2132192999124527,0.2278369516134262,0.10673205554485321
1772619309714035000,2.151034912109375,-0.21056656539440155,-0.07398554682731628,-0.13224948942661285
1772619309724066000,2.161066162109375,-0.17467087507247925,-0.39471322298049927,-0.341793417930603
1772619309734097000,2.171096923828125,-0.14905090630054474,-0.5821995139122009,-0.43300101161003113
1772619309744128000,2.1811279296875,-0.13937005400657654,-0.6420940160751343,-0.4178558886051178
1772619309754158800,2.191158935546875,-0.13284069299697876,-0.6617109179496765,-0.31490305066108704
1772619309764190000,2.20118994140625,-0.11157695949077606,-0.6289854645729065,-0.15465161204338074
1772619309774221000,2.211220947265625,-0.07475526630878448,-0.4919530153274536,0.022595208138227463
1772619309784252200,2.221252197265625,-0.016503412276506424,-0.222757488489151,0.20921754837036133
1772619309794283300,2.231283203125,0.04859741032123566,0.12491203099489212,0.38558611273765564
1772619309804314000,2.241314208984375,0.13627693057060242,0.4767358601093292,0.5413190126419067
1772619309814344200,2.25134423828125,0.23259063065052032,0.7706757187843323,0.6655826568603516
1772619309824375000,2.261375,0.32933446764945984,0.9341722130775452,0.7632956504821777
1772619309834406100,2.27140625,0.41825729608535767,0.8908965587615967,0.8079714775085449
1772619309844437200,2.281437255859375,0.4897761940956116,0.7110019326210022,0.812465250492096
1772619309854468000,2.291468017578125,0.5334143042564392,0.497411847114563,0.8019797205924988
1772619309864499200,2.301499267578125,0.5490084290504456,0.3069828152656555,0.7807090282440186
1772619309874530000,2.311530029296875,0.5447188019752502,0.14707070589065552,0.7481966018676758
1772619309884561200,2.32156103515625,0.5240492224693298,0.004734345246106386,0.6892784237861633
1772619309894592000,2.331592041015625,0.48817679286003113,-0.12851861119270325,0.5757508277893066
1772619309904623000,2.341623046875,0.45287394523620605,-0.24919068813323975,0.41465112566947937
1772619309914654000,2.351654052734375,0.4254816174507141,-0.31855401396751404,0.21548588573932648
1772619309924685000,2.36168505859375,0.4155706465244293,-0.302523136138916,-0.0029228723142296076
1772619309934716000,2.3717158203125,0.41646671295166016,-0.21634188294410706,-0.21056826412677765
1772619309944747000,2.3817470703125,0.4249100089073181,-0.14149481058120728,-0.36984607577323914
1772619309954777900,2.39177783203125,0.4258940815925598,-0.09223772585391998,-0.4494185447692871
1772619309964808000,2.401807861328125,0.42157337069511414,-0.040779586881399155,-0.44291138648986816
1772619309974839000,2.411839111328125,0.4027084410190582,0.015252754092216492,-0.3685818314552307
1772619309984870000,2.421869873046875,0.37823453545570374,0.09741313755512238,-0.2668980658054352
1772619309994901200,2.4319013671875,0.34688714146614075,0.19418977200984955,-0.1550351083278656
1772619310004932000,2.44193212890625,0.30994218587875366,0.2919483184814453,-0.06631749123334885
1772619310014963200,2.451963134765625,0.26818493008613586,0.3695642650127411,-0.021131491288542747
1772619310024994000,2.461994140625,0.2325132042169571,0.38949427008628845,-0.02703838236629963
1772619310035025200,2.472025146484375,0.2111942023038864,0.3510919511318207,-0.0940038412809372
1772619310045056000,2.482055908203125,0.18188585340976715,0.28770071268081665,-0.19567081332206726
1772619310055087000,2.492087158203125,0.15141145884990692,0.23671197891235352,-0.2982689440250397
1772619310065118000,2.502117919921875,0.11736747622489929,0.20043599605560303,-0.39707595109939575
1772619310075149000,2.512149169921875,0.08809714764356613,0.18183229863643646,-0.4662480354309082
1772619310085180200,2.52218017578125,0.06699372828006744,0.1841212809085846,-0.5174382328987122
1772619310095211000,2.5322109375,0.044645313173532486,0.17817158997058868,-0.5474468469619751
1772619310105242000,2.5422421875,0.02227902039885521,0.16047514975070953,-0.5642740726470947
1772619310115273000,2.55227294921875,-0.004920109640806913,0.11664830893278122,-0.5529202222824097
1772619310125303000,2.562302978515625,-0.027630750089883804,0.07115299254655838,-0.5272164344787598
1772619310135334000,2.572333984375,-0.06197362020611763,0.035588886588811874,-0.4924902319908142
1772619310145365000,2.582364990234375,-0.08628295361995697,0.001551555935293436,-0.44956809282302856
1772619310155396000,2.59239599609375,-0.10136021673679352,-0.03130597248673439,-0.41082507371902466
1772619310165427000,2.602427001953125,-0.10796219110488892,-0.05851282551884651,-0.372913122177124
1772619310175458000,2.6124580078125,-0.11569638550281525,-0.05988991633057594,-0.33694547414779663
1772619310185489200,2.6224892578125,-0.12434419989585876,-0.05507252365350723,-0.2942051887512207
1772619310195520300,2.632520263671875,-0.1363992691040039,-0.033998481929302216,-0.2410106509923935
1772619310205551000,2.642551025390625,-0.1591125726699829,0.009705855511128902,-0.17269152402877808
1772619310215582200,2.652582275390625,-0.1911175549030304,0.056234464049339294,-0.08073384314775467
1772619310225613000,2.662613037109375,-0.23183462023735046,0.09333895146846771,0.013026736676692963
1772619310235644200,2.67264404296875,-0.2734038829803467,0.12336680293083191,0.11139965802431107
1772619310245675000,2.682675048828125,-0.30345284938812256,0.14456982910633087,0.20734669268131256
1772619310255706000,2.6927060546875,-0.33242955803871155,0.14298823475837708,0.297277569770813
1772619310265737000,2.702737060546875,-0.34243932366371155,0.08901634812355042,0.35436081886291504
1772619310275767000,2.71276708984375,-0.31392204761505127,0.01619102992117405,0.34648945927619934
1772619310285798100,2.722798095703125,-0.262458860874176,-0.009254674427211285,0.31349849700927734
1772619310295829000,2.7328291015625,-0.2003057897090912,-0.011253954842686653,0.24757139384746552
1772619310305860000,2.742860107421875,-0.13598431646823883,-0.008368153125047684,0.1451350450515747
1772619310315891000,2.752890869140625,-0.0819154903292656,0.013023687526583672,0.031981855630874634
1772619310325922000,2.762922119140625,-0.04763554781675339,0.050101280212402344,-0.0721655860543251
1772619310335953000,2.772952880859375,-0.03964831307530403,0.10375069081783295,-0.1484334021806717
1772619310345984000,2.78298388671875,-0.044849198311567307,0.1546199917793274,-0.1853512078523636
1772619310356014800,2.793014892578125,-0.051002178341150284,0.23718498647212982,-0.19717249274253845
1772619310366046000,2.8030458984375,-0.04695816710591316,0.37468796968460083,-0.17742063105106354
1772619310376077000,2.8130771484375,-0.024858713150024414,0.5690768361091614,-0.16305255889892578
1772619310386108200,2.823108154296875,-0.009440875612199306,0.7856746315956116,-0.17807704210281372
1772619310396139300,2.83313916015625,-0.004646653309464455,0.9712186455726624,-0.233329638838768
1772619310406170000,2.843170166015625,-0.0055060554295778275,1.0975209474563599,-0.32686787843704224
1772619310416201500,2.853201416015625,-0.02498749829828739,1.1358124017715454,-0.46204522252082825
1772619310426231300,2.863231201171875,-0.05628656595945358,1.0741900205612183,-0.616915225982666
1772619310436262400,2.873262451171875,-0.12543463706970215,0.8864357471466064,-0.7665520310401917
1772619310446293200,2.883293212890625,-0.2259300947189331,0.5522431135177612,-0.9073402881622314
1772619310456324400,2.893324462890625,-0.33412984013557434,0.11945869773626328,-1.0169556140899658
1772619310466355200,2.903355224609375,-0.4394698441028595,-0.3231261670589447,-1.0425212383270264
1772619310476386300,2.91338623046875,-0.5208073258399963,-0.679561197757721,-0.9819551706314087
1772619310486417400,2.92341748046875,-0.5512161254882812,-0.8562757968902588,-0.8464428782463074
1772619310496448300,2.9334482421875,-0.5091703534126282,-0.8766461610794067,-0.6475498676300049
1772619310506479400,2.943479248046875,-0.41564276814460754,-0.7921520471572876,-0.41775819659233093
1772619310516510200,2.95351025390625,-0.29183873534202576,-0.6071529984474182,-0.1648445874452591
1772619310526541300,2.963541259765625,-0.16891123354434967,-0.36052483320236206,0.07598346471786499
1772619310536572200,2.973572265625,-0.05188623443245888,-0.12182639539241791,0.28384092450141907
1772619310546603300,2.983603271484375,0.06358256936073303,0.07781986892223358,0.4506738483905792
1772619310556634400,2.99363427734375,0.16920198500156403,0.2305028736591339,0.5887519717216492
1772619310566665500,3.00366552734375,0.2490837574005127,0.3414442837238312,0.7113287448883057
1772619310576696300,3.0136962890625,0.3048916757106781,0.41608884930610657,0.8178587555885315
1772619310586726400,3.023726318359375,0.33472999930381775,0.44874081015586853,0.9027597904205322
1772619310596757500,3.033757568359375,0.34072139859199524,0.44313040375709534,0.9562673568725586
1772619310606788400,3.043788330078125,0.319002240896225,0.40028148889541626,0.9688747525215149
1772619310616819500,3.0538193359375,0.2578076422214508,0.32691332697868347,0.9323196411132812
1772619310626850300,3.063850341796875,0.15995514392852783,0.22109073400497437,0.8451820611953735
1772619310636881400,3.07388134765625,0.010220896452665329,0.0880282074213028,0.7210577726364136
1772619310646912300,3.083912353515625,-0.17299926280975342,-0.05659262835979462,0.5528509020805359
1772619310656943400,3.093943359375,-0.36868587136268616,-0.2027146965265274,0.3513668179512024
1772619310666974200,3.10397412109375,-0.5420363545417786,-0.31198498606681824,0.12932045757770538
1772619310677005300,3.11400537109375,-0.6791775226593018,-0.3625697195529938,-0.07732020318508148
1772619310687036200,3.1240361328125,-0.7799859046936035,-0.3408718705177307,-0.23824331164360046
1772619310697067300,3.1340673828125,-0.8266976475715637,-0.2702791690826416,-0.341797411441803
1772619310707098400,3.144098388671875,-0.8068256974220276,-0.15666018426418304,-0.35567301511764526
1772619310717129200,3.154129150390625,-0.7110686302185059,0.021183880046010017,-0.27227047085762024
1772619310727160300,3.164160400390625,-0.5662264823913574,0.24579407274723053,-0.11899727582931519
1772619310737190100,3.174190185546875,-0.3879718482494354,0.4743395745754242,0.06943322718143463
1772619310747221200,3.18422119140625,-0.21189509332180023,0.6630178689956665,0.245344340801239
1772619310757252000,3.194252197265625,-0.06624205410480499,0.7560335993766785,0.3793688416481018
1772619310767283200,3.204283203125,0.039706211537122726,0.7618004083633423,0.45441699028015137
1772619310777314300,3.214314208984375,0.10692954808473587,0.716627299785614,0.47449618577957153
1772619310787345400,3.224345458984375,0.1392906904220581,0.6365766525268555,0.44243037700653076
1772619310797376500,3.23437646484375,0.13535176217556,0.5224511623382568,0.3676998019218445
1772619310807407400,3.244407470703125,0.10422045737504959,0.3942665457725525,0.2704203724861145
1772619310817438500,3.2544384765625,0.05522502213716507,0.2673991918563843,0.16058683395385742
1772619310827469300,3.26446923828125,-0.009251436218619347,0.14924031496047974,0.04548262059688568
1772619310837500400,3.27450048828125,-0.0777210220694542,0.047720205038785934,-0.07220692932605743
1772619310847531300,3.28453125,-0.1312154084444046,-0.0193999744951725,-0.18644535541534424
1772619310857562400,3.294562255859375,-0.15758177638053894,-0.04201933369040489,-0.2851904332637787
1772619310867593200,3.30459326171875,-0.15442779660224915,-0.025732506066560745,-0.3721378445625305
1772619310877624300,3.314624267578125,-0.12065418064594269,0.021432364359498024,-0.437819242477417
1772619310887654400,3.324654296875,-0.054611511528491974,0.08180169761180878,-0.4858293831348419
1772619310897685200,3.334685302734375,0.026449665427207947,0.12079441547393799,-0.5144047737121582
1772619310907716400,3.34471630859375,0.10872136801481247,0.12122131884098053,-0.5215601325035095
1772619310917747200,3.354747314453125,0.19097712635993958,0.08697643131017685,-0.5037153959274292
1772619310927778300,3.3647783203125,0.2615032196044922,0.035611242055892944,-0.4706447720527649
1772619310937809200,3.37480908203125,0.3141081929206848,-0.037562258541584015,-0.42004579305648804
1772619310947840300,3.38484033203125,0.3501253128051758,-0.0860871821641922,-0.34680885076522827
1772619310957871000,3.39487109375,0.37059345841407776,-0.09986027330160141,-0.2672276198863983
1772619310967902500,3.40490234375,0.38486477732658386,-0.08602062612771988,-0.18595565855503082
1772619310977933300,3.414933349609375,0.39285072684288025,-0.04450758174061775,-0.11273151636123657
1772619310987964400,3.42496435546875,0.39580443501472473,0.02313804253935814,-0.056116439402103424
1772619310997995300,3.434995361328125,0.4023769497871399,0.09790866822004318,-0.017752481624484062
1772619311008026400,3.4450263671875,0.4102196991443634,0.16860361397266388,0.0021847416646778584
1772619311018057500,3.455057373046875,0.41830188035964966,0.22627869248390198,0.0031167063862085342
1772619311028088300,3.46508837890625,0.4211570620536804,0.2497560679912567,-0.002228790195658803
1772619311038118400,3.475118408203125,0.42290279269218445,0.24534431099891663,-0.008556374348700047
1772619311048149200,3.485149169921875,0.4212356507778168,0.22266028821468353,-0.006140087731182575
1772619311058180400,3.495180419921875,0.4139038920402527,0.2018926590681076,0.004817486274987459
1772619311068211200,3.505211181640625,0.39837366342544556,0.18130828440189362,0.017366034910082817
1772619311078242300,3.5152421875,0.3700387477874756,0.16888615489006042,0.017685281112790108
1772619311088273400,3.5252734375,0.3363279104232788,0.1571219116449356,0.005543130915611982
1772619311098304300,3.53530419921875,0.29338449239730835,0.1460135281085968,-0.032328419387340546
1772619311108335400,3.54533544921875,0.2561306059360504,0.13546741008758545,-0.07934705913066864
1772619311118366200,3.5553662109375,0.21662935614585876,0.12745538353919983,-0.13319844007492065
1772619311128397300,3.565397216796875,0.1854589283466339,0.12652169167995453,-0.18491117656230927
1772619311138428200,3.57542822265625,0.1672118455171585,0.13801121711730957,-0.22096064686775208
1772619311148459500,3.58545947265625,0.1568918228149414,0.1489831656217575,-0.24994276463985443
1772619311158490400,3.595490478515625,0.15598586201667786,0.16090771555900574,-0.2732548713684082
1772619311168521500,3.605521484375,0.15452724695205688,0.1642686277627945,-0.3042069375514984
1772619311178552300,3.61555224609375,0.15416738390922546,0.16577379405498505,-0.34436845779418945
1772619311188582400,3.62558251953125,0.156798854470253,0.15452726185321808,-0.39403030276298523
1772619311198613500,3.635613525390625,0.1671428233385086,0.12666776776313782,-0.4502597749233246
1772619311208644400,3.645644287109375,0.17840108275413513,0.07183806598186493,-0.5139820575714111
1772619311218675500,3.655675537109375,0.18891486525535583,-0.038911666721105576,-0.5920066833496094
1772619311228706300,3.665706298828125,0.18365006148815155,-0.19555480778217316,-0.6863832473754883
1772619311238737400,3.6757373046875,0.1743369996547699,-0.3660091459751129,-0.7623282670974731
1772619311248768300,3.685768310546875,0.16980057954788208,-0.5307608246803284,-0.8073058724403381
1772619311258799400,3.69579931640625,0.16870656609535217,-0.6855944395065308,-0.7883276343345642
1772619311268830200,3.705830322265625,0.1938294917345047,-0.7563807368278503,-0.7019956707954407
1772619311278861300,3.715861328125,0.2556469440460205,-0.7021549344062805,-0.5405430197715759
1772619311288892200,3.72589208984375,0.34167051315307617,-0.5423519611358643,-0.34148555994033813
1772619311298923300,3.73592333984375,0.4428340792655945,-0.30278894305229187,-0.1309533417224884
1772619311308954000,3.7459541015625,0.5409174561500549,-0.051351651549339294,0.0541592575609684
1772619311318985200,3.755985107421875,0.6190191507339478,0.14140251278877258,0.17764538526535034
1772619311329016300,3.766016357421875,0.6886155605316162,0.24674570560455322,0.24205739796161652
1772619311339047400,3.77604736328125,0.7566949725151062,0.3010145425796509,0.27649474143981934
1772619311349077200,3.7860771484375,0.828813374042511,0.32945844531059265,0.2952851951122284
1772619311359108000,3.796108154296875,0.9050323367118835,0.3491508960723877,0.2963482737541199
1772619311369139500,3.806139404296875,0.973281979560852,0.36257293820381165,0.29417112469673157
1772619311379170300,3.81617041015625,1.0252710580825806,0.34832069277763367,0.27604058384895325
1772619311389201400,3.826201416015625,1.034298062324524,0.26996728777885437,0.2385755032300949
1772619311399232500,3.836232421875,1.001357078552246,0.13736939430236816,0.19228790700435638
1772619311409263400,3.846263427734375,0.9214755296707153,-0.039667706936597824,0.1528875082731247
1772619311419294200,3.856294189453125,0.8216875195503235,-0.22781607508659363,0.12036651372909546
1772619311429325000,3.866324951171875,0.7231066226959229,-0.38679638504981995,0.09528939425945282
1772619311439356200,3.876356201171875,0.6408742070198059,-0.46286317706108093,0.0827246606349945
1772619311449387000,3.886386962890625,0.5764051675796509,-0.4589589834213257,0.07599485665559769
1772619311459418400,3.89641845703125,0.5212412476539612,-0.3881240785121918,0.0690729022026062
1772619311469449200,3.90644921875,0.475768506526947,-0.280219703912735,0.056159500032663345
1772619311479480300,3.916480224609375,0.44837507605552673,-0.17558890581130981,0.031686440110206604
1772619311489511200,3.92651123046875,0.4253147542476654,-0.0985303521156311,0.013886937871575356
1772619311499541200,3.936541259765625,0.3977491557598114,-0.04973525553941727,0.004572604317218065
1772619311509572400,3.946572265625,0.3648436963558197,-0.013963941484689713,0.013815371319651604
1772619311519603200,3.956603271484375,0.3176548182964325,0.012374676764011383,0.041192129254341125
1772619311529634300,3.96663427734375,0.258709192276001,0.03295452147722244,0.07034681737422943
1772619311539665200,3.9766650390625,0.19155679643154144,0.05705985426902771,0.10775837302207947
1772619311549696300,3.9866962890625,0.11739814281463623,0.12531188130378723,0.14698487520217896
1772619311559727000,3.99672705078125,0.046582967042922974,0.22103556990623474,0.18443743884563446
1772619311569758200,4.00675830078125,-0.01636723428964615,0.33691155910491943,0.21153563261032104
1772619311579789000,4.0167890625,-0.06625186651945114,0.4412500560283661,0.2205396592617035
1772619311589820200,4.026820068359375,-0.0963170975446701,0.5204823017120361,0.21134641766548157
1772619311599851000,4.03685107421875,-0.11703174561262131,0.5658887028694153,0.18460223078727722
1772619311609882000,4.046882080078125,-0.1323707550764084,0.5695732235908508,0.14821280539035797
1772619311619913200,4.056913330078125,-0.1565524935722351,0.5461649298667908,0.1069464385509491
1772619311629944000,4.066944091796875,-0.20339642465114594,0.4996160566806793,0.06919187307357788
1772619311639974100,4.07697412109375,-0.29127663373947144,0.45190614461898804,0.014645814895629883
1772619311650005000,4.0870048828125,-0.40283510088920593,0.35657721757888794,-0.05402965098619461
1772619311660036000,4.0970361328125,-0.5171198844909668,0.21000929176807404,-0.1310093253850937
1772619311670067200,4.107067138671875,-0.624098002910614,0.034877434372901917,-0.20376448333263397
1772619311680098300,4.117098388671875,-0.7108225226402283,-0.1257794201374054,-0.2673579752445221
1772619311690129400,4.12712939453125,-0.7695827484130859,-0.2474920004606247,-0.30674079060554504
1772619311700160300,4.13716015625,-0.800050675868988,-0.328763484954834,-0.3524104058742523
1772619311710191400,4.14719140625,-0.8156746625900269,-0.38345974683761597,-0.38719236850738525
1772619311720222200,4.15722216796875,-0.8234827518463135,-0.4299149513244629,-0.4120146930217743
1772619311730253300,4.16725341796875,-0.8249480128288269,-0.4691598415374756,-0.420213520526886
1772619311740284200,4.1772841796875,-0.8128733038902283,-0.49522665143013,-0.4178776443004608
1772619311750315300,4.187315185546875,-0.7988198399543762,-0.5167215466499329,-0.40572643280029297
1772619311760346000,4.19734619140625,-0.7712399959564209,-0.5144166946411133,-0.3834714889526367
1772619311770377200,4.207377197265625,-0.7404136061668396,-0.4759233295917511,-0.35758450627326965
1772619311780408000,4.217407958984375,-0.7062088847160339,-0.41027164459228516,-0.321054607629776
1772619311790439200,4.227439208984375,-0.6805456280708313,-0.32260653376579285,-0.2842760980129242
1772619311800469200,4.23746923828125,-0.6558877825737,-0.21663184463977814,-0.2393457293510437
1772619311810500000,4.2475,-0.6404398679733276,-0.10938528180122375,-0.19035501778125763
1772619311820531200,4.25753125,-0.6244820356369019,-0.003114735707640648,-0.1492980569601059
1772619311830562000,4.26756201171875,-0.6068007946014404,0.08194077014923096,-0.10997729003429413
1772619311840593200,4.27759326171875,-0.594805896282196,0.12126472592353821,-0.09347966313362122
1772619311850624000,4.2876240234375,-0.5875474810600281,0.11192874610424042,-0.09372041374444962
1772619311860655400,4.2976552734375,-0.5812742114067078,0.06827437877655029,-0.11083469539880753
1772619311870686200,4.307686279296875,-0.5714985728263855,0.013701152056455612,-0.1302957385778427
1772619311880717300,4.31771728515625,-0.5642461776733398,-0.0406067818403244,-0.14639267325401306
1772619311890748200,4.327748046875,-0.5671095848083496,-0.09310247749090195,-0.16089358925819397
1772619311900779300,4.337779296875,-0.5948818922042847,-0.14187473058700562,-0.17524689435958862
1772619311910810000,4.34781005859375,-0.6393502950668335,-0.16830208897590637,-0.19690372049808502
1772619311920841200,4.35784130859375,-0.7050365209579468,-0.19298823177814484,-0.2286098450422287
1772619311930872300,4.367872314453125,-0.7739322781562805,-0.23728139698505402,-0.25626811385154724
1772619311940903200,4.377903076171875,-0.8352178335189819,-0.28019219636917114,-0.278595507144928
1772619311950934300,4.387934326171875,-0.8802662491798401,-0.31161215901374817,-0.29292571544647217
1772619311960964000,4.397964111328125,-0.9059867262840271,-0.3386920690536499,-0.29107382893562317
1772619311970995200,4.4079951171875,-0.9187046885490417,-0.3628828823566437,-0.27947869896888733
1772619311981026000,4.418026123046875,-0.899437665939331,-0.3732590675354004,-0.2605923116207123
1772619311991057200,4.42805712890625,-0.8515111207962036,-0.3535681962966919,-0.22828681766986847
1772619312001088300,4.438088134765625,-0.7829602360725403,-0.3308833837509155,-0.1985541582107544
1772619312011119000,4.448119140625,-0.7047008275985718,-0.32177138328552246,-0.1549920290708542
1772619312021150200,4.458150146484375,-0.6191335320472717,-0.32857459783554077,-0.10108399391174316
1772619312031181000,4.46818115234375,-0.5279846787452698,-0.3467927575111389,-0.03376513719558716
1772619312041212200,4.478212158203125,-0.4425995945930481,-0.3613876700401306,0.04695015773177147
1772619312051243300,4.4882431640625,-0.3745529055595398,-0.3697982132434845,0.1381056308746338
1772619312061274400,4.4982744140625,-0.33057448267936707,-0.36972084641456604,0.23349906504154205
1772619312071305200,4.50830517578125,-0.30037131905555725,-0.3685682415962219,0.31213873624801636
1772619312081336300,4.51833642578125,-0.2740055322647095,-0.374901682138443,0.36420148611068726
1772619312091367200,4.5283671875,-0.25322914123535156,-0.37131866812705994,0.3933103680610657
1772619312101397200,4.538397216796875,-0.24044634401798248,-0.3823244869709015,0.3800596594810486
1772619312111428400,4.548428466796875,-0.2304759919643402,-0.44659802317619324,0.28830844163894653
1772619312121459200,4.558459228515625,-0.21752628684043884,-0.5822609663009644,0.13080096244812012
1772619312131490300,4.568490234375,-0.20681452751159668,-0.7645138502120972,-0.05506424233317375
1772619312141521200,4.578521240234375,-0.21799488365650177,-0.9539822340011597,-0.2190903127193451
1772619312151552300,4.58855224609375,-0.24414552748203278,-1.0867606401443481,-0.2991481423377991
1772619312161583000,4.5985830078125,-0.2488243728876114,-1.1498651504516602,-0.2828548550605774
1772619312171614200,4.6086142578125,-0.21264931559562683,-1.1214815378189087,-0.1314096599817276
1772619312181645000,4.61864501953125,-0.14752927422523499,-1.0000057220458984,0.15552902221679688
1772619312191676200,4.62867626953125,-0.07372163236141205,-0.7986993193626404,0.523582935333252
1772619312201707000,4.63870703125,-0.0009822426363825798,-0.5537263751029968,0.9029657244682312
1772619312211738000,4.648738037109375,0.06248887628316879,-0.31041356921195984,1.2253104448318481
1772619312221769200,4.658769287109375,0.1227082759141922,-0.06856872141361237,1.4386069774627686
1772619312231800000,4.668800048828125,0.20171840488910675,0.14949624240398407,1.5186383724212646
1772619312241831400,4.67883154296875,0.2799445390701294,0.3366613984107971,1.492862343788147
1772619312251861000,4.688861083984375,0.35394394397735596,0.4715776741504669,1.377137303352356
1772619312261892000,4.69889208984375,0.41707512736320496,0.5264583230018616,1.2154541015625
1772619312271923200,4.708923095703125,0.4422217607498169,0.5216281414031982,1.0446999073028564
1772619312281954300,4.718954345703125,0.43808713555336,0.4689638018608093,0.8938449025154114
1772619312291985200,4.728985107421875,0.3896929919719696,0.3852289617061615,0.7727661728858948
1772619312302016300,4.739016357421875,0.2937008738517761,0.2748774588108063,0.6863075494766235
1772619312312047400,4.74904736328125,0.16258548200130463,0.15253794193267822,0.6250305771827698
1772619312322078200,4.759078125,-0.003518715500831604,0.014623383991420269,0.5593864321708679
1772619312332109300,4.769109375,-0.17806150019168854,-0.11007487773895264,0.49288567900657654
1772619312342140200,4.77914013671875,-0.3450160324573517,-0.18840284645557404,0.40570297837257385
1772619312352171300,4.789171142578125,-0.47124961018562317,-0.19757558405399323,0.29769423604011536
1772619312362202000,4.7992021484375,-0.5520774722099304,-0.14467623829841614,0.17849299311637878
1772619312372233200,4.809233154296875,-0.596718966960907,-0.06090570613741875,0.058088015764951706
1772619312382264000,4.81926416015625,-0.6028227806091309,0.021908016875386238,-0.06974250078201294
1772619312392295200,4.829295166015625,-0.5788231492042542,0.10385295003652573,-0.18579906225204468
1772619312402326000,4.839325927734375,-0.5397405624389648,0.20390546321868896,-0.2810842990875244
1772619312412356000,4.849356201171875,-0.500506579875946,0.29786285758018494,-0.3516237139701843
1772619312422387700,4.8593876953125,-0.4578359127044678,0.36949560046195984,-0.3991076946258545
1772619312432418600,4.86941845703125,-0.42036017775535583,0.412631094455719,-0.4316627085208893
1772619312442449700,4.87944970703125,-0.38434359431266785,0.44564223289489746,-0.4363268315792084
1772619312452480500,4.88948046875,-0.3492116928100586,0.4820295572280884,-0.4245585799217224
1772619312462511600,4.89951171875,-0.3034859895706177,0.5090876817703247,-0.3984290659427643
1772619312472542500,4.90954248046875,-0.24684083461761475,0.5216415524482727,-0.37547022104263306
1772619312482573600,4.919573486328125,-0.18295884132385254,0.5106586813926697,-0.3521423041820526
1772619312492604400,4.9296044921875,-0.1216353103518486,0.4780685305595398,-0.33816149830818176
1772619312502635500,4.939635498046875,-0.062256768345832825,0.41807588934898376,-0.3287678062915802
1772619312512666400,4.949666259765625,-0.007832938805222511,0.3469782769680023,-0.3250095546245575
1772619312522697500,4.959697509765625,0.04298190027475357,0.2616526186466217,-0.3231078088283539
1772619312532728600,4.969728515625,0.08023286610841751,0.17386046051979065,-0.3117387592792511
1772619312542759700,4.979759765625,0.10673990100622177,0.09596976637840271,-0.2982323467731476
1772619312552790500,4.98979052734375,0.12264110147953033,0.03684811666607857,-0.27217915654182434
1772619312562820600,4.999820556640625,0.1320408582687378,0.004713527392596006,-0.2334512174129486
1772619312572851700,5.009851806640625,0.1547464281320572,-0.017790982499718666,-0.20613384246826172
1772619312582882600,5.019882568359375,0.17766942083835602,-0.03600488603115082,-0.18519094586372375
1772619312592913700,5.02991357421875,0.2047279328107834,-0.042487017810344696,-0.17268581688404083
1772619312602944500,5.039944580078125,0.22162847220897675,-0.050794605165719986,-0.1619860678911209
1772619312612975600,5.0499755859375,0.23734325170516968,-0.05155200883746147,-0.1539798080921173
1772619312623006500,5.06000634765625,0.2542804777622223,-0.04049922525882721,-0.13898302614688873
1772619312633037600,5.07003759765625,0.27400463819503784,-0.01576964370906353,-0.1271977424621582
1772619312643068700,5.080068603515625,0.28221556544303894,0.0010969219729304314,-0.11096690595149994
1772619312653099500,5.090099609375,0.291327565908432,0.0015784213319420815,-0.10098165273666382
1772619312663130600,5.100130615234375,0.28387361764907837,-0.006640160456299782,-0.10011065751314163
1772619312673161500,5.110161376953125,0.2688022553920746,-0.018193218857049942,-0.09687118977308273
1772619312683192600,5.120192626953125,0.2542100250720978,-0.0032352423295378685,-0.0971890389919281
1772619312693223400,5.130223388671875,0.2411797046661377,0.033765122294425964,-0.0951666384935379
1772619312703254500,5.140254638671875,0.23425227403640747,0.08191494643688202,-0.09030937403440475
1772619312713284600,5.15028466796875,0.23019655048847198,0.1303674280643463,-0.08932852745056152
1772619312723315500,5.1603154296875,0.22237230837345123,0.16542260348796844,-0.08410347253084183
1772619312733346600,5.1703466796875,0.2203485667705536,0.20692157745361328,-0.07434884458780289
1772619312743377700,5.180377685546875,0.22088995575904846,0.24273142218589783,-0.05274301394820213
1772619312753408800,5.19040869140625,0.21885663270950317,0.26816248893737793,-0.02781076543033123
1772619312763439600,5.200439697265625,0.22720472514629364,0.2812027037143707,0.003249215194955468
1772619312773470700,5.210470703125,0.23229749500751495,0.28998953104019165,0.03890494629740715
1772619312783501600,5.22050146484375,0.23829318583011627,0.2939416468143463,0.0750756710767746
1772619312793532700,5.23053271484375,0.24797697365283966,0.2874951958656311,0.09713037312030792
1772619312803563500,5.2405634765625,0.25306421518325806,0.2701417803764343,0.10891219973564148
1772619312813594600,5.2505947265625,0.2443189173936844,0.23101037740707397,0.104503333568573
1772619312823625500,5.26062548828125,0.22966207563877106,0.17640268802642822,0.09353936463594437
1772619312833656600,5.270656494140625,0.20459666848182678,0.11785869300365448,0.07668182253837585
1772619312843687400,5.2806875,0.18882012367248535,0.07548972964286804,0.06397893279790878
1772619312853718500,5.290718505859375,0.18719319999217987,0.059272147715091705,0.05721370875835419
1772619312863748600,5.30074853515625,0.19858106970787048,0.0726018100976944,0.054886043071746826
1772619312873779500,5.310779541015625,0.23288550972938538,0.11089540272951126,0.06374584883451462
1772619312883810600,5.320810546875,0.2823023796081543,0.16668695211410522,0.07369721680879593
1772619312893841400,5.33084130859375,0.3362518846988678,0.2391587495803833,0.0976259857416153
1772619312903872500,5.34087255859375,0.38196757435798645,0.3085515797138214,0.11951324343681335
1772619312913903400,5.3509033203125,0.413424551486969,0.3631272315979004,0.1411229372024536
1772619312923934500,5.3609345703125,0.43214651942253113,0.3937402367591858,0.14806725084781647
1772619312933965600,5.370965576171875,0.4429536461830139,0.3924619257450104,0.12545327842235565
1772619312943996700,5.38099658203125,0.43863311409950256,0.34248408675193787,0.059890855103731155
1772619312954027800,5.39102783203125,0.4073713421821594,0.24269729852676392,-0.06742449104785919
1772619312964058600,5.40105859375,0.354701429605484,0.10492634028196335,-0.2612994313240051
1772619312974089700,5.41108984375,0.3024997413158417,-0.06907501816749573,-0.482959121465683
1772619312984120600,5.42112060546875,0.25954440236091614,-0.21493399143218994,-0.6583903431892395
1772619312994151700,5.431151611328125,0.23414956033229828,-0.31478551030158997,-0.7497495412826538
1772619313004182500,5.4411826171875,0.2413402944803238,-0.3639923632144928,-0.7366867065429688
1772619313014213600,5.451213623046875,0.2714585065841675,-0.328671932220459,-0.6215652227401733
1772619313024244500,5.461244384765625,0.3255781829357147,-0.20350009202957153,-0.4271756708621979
1772619313034274600,5.471274658203125,0.4002889096736908,-0.030191682279109955,-0.18958280980587006
1772619313044305700,5.4813056640625,0.4945215880870819,0.15484711527824402,0.04498707130551338
1772619313054336500,5.49133642578125,0.5954766869544983,0.3000127971172333,0.26417186856269836
1772619313064367600,5.50136767578125,0.6767051815986633,0.3775884509086609,0.44732385873794556
1772619313074398500,5.5113984375,0.7309486865997314,0.4042735993862152,0.5954038500785828
1772619313084429600,5.5214296875,0.7746623158454895,0.41766276955604553,0.7107816338539124
1772619313094460400,5.53146044921875,0.8148161172866821,0.4244871139526367,0.8010974526405334
1772619313104491500,5.541491455078125,0.8499953150749207,0.41904738545417786,0.8611943125724792
1772619313114522400,5.5515224609375,0.8774384260177612,0.3917055130004883,0.8994522094726562
1772619313124553700,5.5615537109375,0.8937647342681885,0.34568706154823303,0.9085716605186462
1772619313134584600,5.57158447265625,0.8950489163398743,0.28687113523483276,0.9006335735321045
1772619313144615700,5.58161572265625,0.8812122344970703,0.21710869669914246,0.8738579154014587
1772619313154646500,5.591646484375,0.8511706590652466,0.14256548881530762,0.8325602412223816
1772619313164677600,5.601677734375,0.8122013807296753,0.07176537811756134,0.7704192399978638
1772619313174708500,5.61170849609375,0.7671867609024048,-0.005051906686276197,0.6926757097244263
1772619313184738600,5.621738525390625,0.7170712351799011,-0.08525712788105011,0.5989872813224792
1772619313194769700,5.631769775390625,0.6604838371276855,-0.1719110757112503,0.504266619682312
1772619313204800500,5.641800537109375,0.5911526679992676,-0.2607486844062805,0.39931851625442505
1772619313214831600,5.65183154296875,0.5046252608299255,-0.3541734516620636,0.2828691303730011
1772619313224862500,5.661862548828125,0.42603474855422974,-0.41768160462379456,0.1675199270248413
1772619313234893600,5.6718935546875,0.3476744294166565,-0.44734814763069153,0.06910279393196106
1772619313244924700,5.681924560546875,0.27208366990089417,-0.4337505102157593,-0.01300991140305996
1772619313254955500,5.69195556640625,0.214174285531044,-0.3606696128845215,-0.05493605509400368
1772619313264986600,5.701986572265625,0.16627717018127441,-0.23095254600048065,-0.06967545300722122
1772619313275017500,5.712017578125,0.1489461213350296,-0.07232216000556946,-0.045978646725416183
1772619313285048600,5.722048583984375,0.14557214081287384,0.10850869864225388,0.003672780469059944
1772619313295079400,5.732079345703125,0.1332464963197708,0.2773493826389313,0.056444648653268814
1772619313305110500,5.742110595703125,0.09242895245552063,0.3921516239643097,0.0824090763926506
1772619313315140600,5.752140625,0.03870739787817001,0.45383068919181824,0.06648017466068268
1772619313325171500,5.76217138671875,-0.014928468503057957,0.4812558591365814,0.015157600864768028
1772619313335202600,5.77220263671875,-0.05545645207166672,0.4813682436943054,-0.052557796239852905
1772619313345233700,5.782233642578125,-0.07684727758169174,0.48328474164009094,-0.11767841130495071
1772619313355264800,5.7922646484375,-0.08587006479501724,0.5142354965209961,-0.1612037718296051
1772619313365295600,5.802295654296875,-0.07855584472417831,0.5374166369438171,-0.18456456065177917
1772619313375326700,5.81232666015625,-0.07054664939641953,0.5304034352302551,-0.19690431654453278
1772619313385357600,5.822357666015625,-0.06206802278757095,0.48387300968170166,-0.2022932916879654
1772619313395388700,5.832388671875,-0.05788393318653107,0.41286593675613403,-0.2069959044456482
1772619313405419500,5.84241943359375,-0.05296327918767929,0.33343127369880676,-0.19617466628551483
1772619313415450600,5.85245068359375,-0.06241457164287567,0.2595679759979248,-0.1935863494873047
1772619313425481200,5.862481201171875,-0.07083103060722351,0.17678649723529816,-0.18622857332229614
1772619313435512300,5.87251220703125,-0.09614251554012299,0.08749709278345108,-0.18773911893367767
1772619313445543200,5.882543212890625,-0.13410592079162598,-0.0005439519882202148,-0.18255233764648438
1772619313455574300,5.89257421875,-0.1849914789199829,-0.06488645821809769,-0.17780257761478424
1772619313465604400,5.902604248046875,-0.25848469138145447,-0.08173617720603943,-0.16183221340179443
1772619313475635200,5.91263525390625,-0.33542367815971375,-0.07071894407272339,-0.15055160224437714
1772619313485666300,5.922666259765625,-0.415577232837677,-0.03838222101330757,-0.1422497183084488
1772619313495697200,5.932697265625,-0.49889981746673584,0.011888405308127403,-0.14540210366249084
1772619313505728300,5.942728271484375,-0.5669540166854858,0.06181582808494568,-0.1665147840976715
1772619313515759000,5.952759033203125,-0.6163823008537292,0.11205023527145386,-0.1988210529088974
1772619313525790200,5.962790283203125,-0.6427803635597229,0.14166906476020813,-0.24110300838947296
1772619313535821300,5.9728212890625,-0.6473005414009094,0.15014590322971344,-0.27266013622283936
1772619313545852400,5.982852294921875,-0.6231363415718079,0.1385723352432251,-0.29240792989730835
1772619313555883500,5.992883544921875,-0.5950354933738708,0.12090972065925598,-0.28624752163887024
1772619313565914400,6.002914306640625,-0.5650522112846375,0.08873498439788818,-0.26761695742607117
1772619313575945500,6.012945556640625,-0.5352338552474976,0.045062340795993805,-0.23355060815811157
1772619313585976300,6.022976318359375,-0.5105762481689453,0.002566298935562372,-0.20234541594982147
1772619313596007400,6.03300732421875,-0.4925466477870941,-0.04760605841875076,-0.18490171432495117
1772619313606038300,6.043038330078125,-0.4843261241912842,-0.1186847910284996,-0.18490657210350037
1772619313616068400,6.053068359375,-0.47131845355033875,-0.2002667486667633,-0.2063535451889038
1772619313626099500,6.063099365234375,-0.4412388801574707,-0.2775877118110657,-0.23121802508831024
1772619313636130300,6.07313037109375,-0.3999159336090088,-0.34276750683784485,-0.24269065260887146
1772619313646161400,6.083161376953125,-0.3584873378276825,-0.3762930631637573,-0.23389701545238495
1772619313656192300,6.093192138671875,-0.30589765310287476,-0.36360734701156616,-0.18855829536914825
1772619313666223400,6.103223388671875,-0.22757916152477264,-0.31323277950286865,-0.12260192632675171
1772619313676254200,6.113254150390625,-0.1232524886727333,-0.2593384087085724,-0.04007003828883171
1772619313686285300,6.123285400390625,-0.00885668396949768,-0.23971004784107208,0.03850913792848587
1772619313696316200,6.133316162109375,0.07759591937065125,-0.25920864939689636,0.10980621725320816
1772619313706347300,6.14334716796875,0.12043730169534683,-0.30457231402397156,0.1529533565044403
1772619313716378000,6.153378173828125,0.12510715425014496,-0.35463494062423706,0.15971219539642334
1772619313726409500,6.163409423828125,0.09201793372631073,-0.3834456205368042,0.10537492483854294
1772619313736440300,6.1734404296875,0.03045816347002983,-0.45852893590927124,-0.02718977816402912
1772619313746471400,6.183471435546875,-0.056299157440662384,-0.6191670894622803,-0.22643537819385529
1772619313756502300,6.193502197265625,-0.16587091982364655,-0.8256960511207581,-0.4317419230937958
1772619313766533400,6.203533447265625,-0.28413933515548706,-1.0319850444793701,-0.5800887942314148
1772619313776563500,6.2135634765625,-0.3888486921787262,-1.1774932146072388,-0.6201752424240112
1772619313786594300,6.22359423828125,-0.4569690227508545,-1.2175838947296143,-0.5689305663108826
1772619313796625400,6.23362548828125,-0.4659915566444397,-1.1327766180038452,-0.4217464029788971
1772619313806656300,6.24365625,-0.39216238260269165,-0.9151176810264587,-0.19271928071975708
1772619313816687400,6.253687255859375,-0.2744663655757904,-0.6099716424942017,0.06509068608283997
1772619313826718200,6.26371826171875,-0.13651154935359955,-0.30107027292251587,0.3041287064552307
1772619313836749300,6.273749267578125,0.0032772361300885677,-0.0828053206205368,0.5035717487335205
1772619313846780400,6.283780517578125,0.1378478705883026,0.027657192200422287,0.6713238954544067
1772619313856811300,6.293811279296875,0.22756631672382355,0.04074263572692871,0.8020401000976562
1772619313866842400,6.30384228515625,0.26698094606399536,-0.06527325510978699,0.9036835432052612
1772619313876873200,6.313873291015625,0.2681516706943512,-0.223263680934906,0.9883288741111755
1772619313886904300,6.323904296875,0.2462327927350998,-0.337709903717041,1.0540475845336914
1772619313896935200,6.33393505859375,0.21076613664627075,-0.4044279456138611,1.1050628423690796
1772619313906966300,6.34396630859375,0.16990312933921814,-0.4192260503768921,1.1133050918579102
1772619313916997400,6.353997314453125,0.1290382593870163,-0.38822048902511597,1.0973351001739502
1772619313927027200,6.364027099609375,0.07618361711502075,-0.31719139218330383,1.0554863214492798
1772619313937058300,6.374058349609375,0.008626412600278854,-0.213680699467659,0.9943602085113525
1772619313947089400,6.38408935546875,-0.06808461248874664,-0.11705269664525986,0.9122679829597473
1772619313957120500,6.39412060546875,-0.14874163269996643,-0.03096841461956501,0.8029175400733948
1772619313967151400,6.4041513671875,-0.22838535904884338,0.055471546947956085,0.669183075428009
1772619313977182500,6.414182373046875,-0.2972344756126404,0.13923968374729156,0.5161226987838745
1772619313987213300,6.42421337890625,-0.3513179123401642,0.20932380855083466,0.352845698595047
1772619313997244400,6.434244384765625,-0.37240535020828247,0.2564857304096222,0.18540316820144653
1772619314007275300,6.444275146484375,-0.3712432384490967,0.29433473944664,0.024863963946700096
1772619314017306400,6.454306396484375,-0.33941659331321716,0.31447890400886536,-0.1206120103597641
1772619314027337200,6.464337158203125,-0.27821898460388184,0.33050331473350525,-0.23905137181282043
1772619314037368300,6.474368408203125,-0.1947597861289978,0.33306020498275757,-0.33180344104766846
1772619314047399200,6.484399169921875,-0.11378765106201172,0.3206697702407837,-0.4028366506099701
1772619314057430300,6.49443017578125,-0.03676450252532959,0.3005354702472687,-0.43853873014450073
1772619314067461400,6.50446142578125,0.02389662340283394,0.2782638370990753,-0.4408416450023651
1772619314077491200,6.5144912109375,0.0708867684006691,0.27548402547836304,-0.4135735332965851
1772619314087522300,6.524522216796875,0.09714894741773605,0.2924577593803406,-0.36004287004470825
1772619314097553200,6.53455322265625,0.10757016390562057,0.30408674478530884,-0.3124535083770752
1772619314107584300,6.544584228515625,0.11725196242332458,0.2799184024333954,-0.2765011191368103
1772619314117615000,6.554614990234375,0.10503897070884705,0.22503092885017395,-0.2575916051864624
1772619314127646200,6.564646240234375,0.09260377287864685,0.17558971047401428,-0.2438843995332718
1772619314137677300,6.57467724609375,0.06591570377349854,0.15699417889118195,-0.23957806825637817
1772619314147708400,6.58470849609375,0.04058533534407616,0.13725362718105316,-0.24879972636699677
1772619314157739500,6.594739501953125,0.022969858720898628,0.10171081125736237,-0.2526096701622009
1772619314167770400,6.604770263671875,0.012202436104416847,0.08251336216926575,-0.25489696860313416
1772619314177801500,6.614801513671875,0.008231396786868572,0.06398974359035492,-0.2538785934448242
1772619314187832300,6.624832275390625,0.021030668169260025,0.07715185731649399,-0.25152549147605896
1772619314197863400,6.634863525390625,0.05459661781787872,0.11537114530801773,-0.24700023233890533
1772619314207894300,6.644894287109375,0.1040612980723381,0.1433958113193512,-0.24401138722896576
1772619314217925400,6.65492529296875,0.15602250397205353,0.16517087817192078,-0.24778081476688385
1772619314227955500,6.66495556640625,0.2148055136203766,0.1759132444858551,-0.25464412569999695
1772619314237986300,6.674986328125,0.25876763463020325,0.19061921536922455,-0.2675945460796356
1772619314248017400,6.685017333984375,0.29417791962623596,0.18238642811775208,-0.27895331382751465
1772619314258048300,6.69504833984375,0.31501129269599915,0.17098703980445862,-0.28107425570487976
1772619314268079400,6.705079345703125,0.3225645422935486,0.17326056957244873,-0.27725687623023987
1772619314278110200,6.715110107421875,0.3229914605617523,0.17156760394573212,-0.26859813928604126
1772619314288141300,6.725141357421875,0.31486886739730835,0.17129668593406677,-0.2539316713809967
1772619314298172200,6.735172119140625,0.3121492564678192,0.15961818397045135,-0.24798747897148132
1772619314308203300,6.745203369140625,0.302877277135849,0.14675244688987732,-0.24291543662548065
1772619314318234000,6.755234130859375,0.29593947529792786,0.14630742371082306,-0.23551078140735626
1772619314328265500,6.765265380859375,0.28886446356773376,0.17154793441295624,-0.2250831574201584
1772619314338296300,6.77529638671875,0.28712621331214905,0.20035135746002197,-0.21524278819561005
1772619314348327400,6.785327392578125,0.28675487637519836,0.21415181457996368,-0.21481400728225708
1772619314358358300,6.795358154296875,0.291526734828949,0.21322156488895416,-0.2185637354850769
1772619314368389400,6.805389404296875,0.30023980140686035,0.20873792469501495,-0.21798855066299438
1772619314378419500,6.81541943359375,0.30898401141166687,0.19101405143737793,-0.21335598826408386
1772619314388450300,6.8254501953125,0.32339492440223694,0.1781195104122162,-0.1948818415403366
1772619314398481400,6.8354814453125,0.34110522270202637,0.202768936753273,-0.15587133169174194
1772619314408512300,6.84551220703125,0.3507910668849945,0.24519284069538116,-0.11036382615566254
1772619314418543600,6.855543701171875,0.3465169668197632,0.2653723955154419,-0.07431421428918839
1772619314428574500,6.865574462890625,0.3280814290046692,0.2579774260520935,-0.03318455442786217
1772619314438605600,6.87560546875,0.2949298620223999,0.2526274025440216,0.002695945091545582
1772619314448636400,6.885636474609375,0.2536216378211975,0.2478506714105606,0.0349145345389843
1772619314458667500,6.89566748046875,0.21768681704998016,0.24961821734905243,0.057036615908145905
1772619314468698600,6.90569873046875,0.18836809694766998,0.24479933083057404,0.0709889829158783
1772619314478729700,6.915729736328125,0.16245846450328827,0.22555853426456451,0.07787112891674042
1772619314488760800,6.9257607421875,0.1440359503030777,0.20564697682857513,0.08857296407222748
1772619314498791700,6.935791748046875,0.1414974331855774,0.1863372027873993,0.12795287370681763
1772619314508822800,6.94582275390625,0.15606623888015747,0.19936659932136536,0.19927090406417847
1772619314518853600,6.955853515625,0.1791268140077591,0.24211485683918,0.2789202034473419
1772619314528883700,6.9658837890625,0.21277450025081635,0.3006221652030945,0.3533344566822052
1772619314538914600,6.97591455078125,0.24804674088954926,0.39555588364601135,0.4063476026058197
1772619314548945700,6.985945556640625,0.2808980345726013,0.5138735175132751,0.42860740423202515
1772619314558976800,6.995976806640625,0.2950226366519928,0.6255766153335571,0.41115623712539673
1772619314569007600,7.006007568359375,0.2885281443595886,0.6965668201446533,0.34974291920661926
1772619314579038700,7.016038818359375,0.25219088792800903,0.7143354415893555,0.2798149585723877
1772619314589069600,7.026069580078125,0.18929395079612732,0.7089041471481323,0.1942145824432373
1772619314599100700,7.0361005859375,0.1038307175040245,0.6434889435768127,0.06166505813598633
1772619314609131500,7.046131591796875,0.012675313279032707,0.47221553325653076,-0.12813949584960938
1772619314619162600,7.05616259765625,-0.05531199276447296,0.22320890426635742,-0.332516074180603
1772619314629193500,7.066193359375,-0.08741526305675507,0.006296821404248476,-0.49188196659088135
1772619314639224600,7.076224609375,-0.08294408023357391,-0.1001071110367775,-0.5715759992599487
1772619314649255400,7.08625537109375,-0.02238158881664276,-0.08046125620603561,-0.5586614608764648
1772619314659286500,7.09628662109375,0.09118545055389404,0.05061846971511841,-0.4689188003540039
1772619314669317600,7.106317626953125,0.2247554510831833,0.24897508323192596,-0.31352469325065613
1772619314679347500,7.116347412109375,0.3707387447357178,0.4950895309448242,-0.12079489231109619
1772619314689378600,7.126378662109375,0.5006798505783081,0.7556576132774353,0.0680924579501152
1772619314699409700,7.13640966796875,0.6046450734138489,0.9653711915016174,0.21798209846019745
1772619314709440800,7.146440673828125,0.6797001957893372,1.1197638511657715,0.31056347489356995
1772619314719471600,7.1564716796875,0.724687397480011,1.1903141736984253,0.3322248160839081
1772619314729502700,7.166502685546875,0.7628870010375977,1.1511478424072266,0.31849271059036255
1772619314739533600,7.176533447265625,0.7744866609573364,1.0295181274414062,0.2915164828300476
1772619314749564700,7.186564697265625,0.775506854057312,0.8546923398971558,0.2608930766582489
1772619314759595500,7.196595458984375,0.7704604268074036,0.6335748434066772,0.2511634826660156
1772619314769626600,7.206626708984375,0.7531765699386597,0.40813031792640686,0.2596219778060913
1772619314779657700,7.21665771484375,0.7277937531471252,0.2456979900598526,0.2844037711620331
1772619314789688600,7.2266884765625,0.6991161704063416,0.16893097758293152,0.3000185191631317
1772619314799719700,7.2367197265625,0.6714914441108704,0.13671311736106873,0.28595834970474243
1772619314809750500,7.24675048828125,0.6436641216278076,0.12395870685577393,0.2424742579460144
1772619314819781600,7.25678173828125,0.6074097156524658,0.10457595437765121,0.18798305094242096
1772619314829811500,7.2668115234375,0.5664750337600708,0.063486248254776,0.13073472678661346
1772619314839842600,7.276842529296875,0.5099446773529053,-0.0008040550164878368,0.08864453434944153
1772619314849873700,7.286873779296875,0.4554888904094696,-0.06362336874008179,0.06230087950825691
1772619314859904500,7.296904541015625,0.3976748585700989,-0.11286415159702301,0.04833260178565979
1772619314869935600,7.306935546875,0.3428710103034973,-0.14630839228630066,0.04309576377272606
1772619314879966500,7.316966552734375,0.282635897397995,-0.13787363469600677,0.03643892705440521
1772619314889997800,7.326997802734375,0.22167019546031952,-0.07657177746295929,0.014529232867062092
1772619314900028700,7.337028564453125,0.16695208847522736,0.03168226405978203,-0.025273039937019348
1772619314910059800,7.347059814453125,0.1205986812710762,0.1664557158946991,-0.08059527724981308
1772619314920090600,7.357090576171875,0.07510097324848175,0.2947324812412262,-0.1557837724685669
1772619314930121700,7.367121826171875,0.016758207231760025,0.3626583516597748,-0.23569706082344055
1772619314940152600,7.377152587890625,-0.037150830030441284,0.3356485664844513,-0.29566478729248047
1772619314950183700,7.38718359375,-0.07554734498262405,0.25361791253089905,-0.3155803978443146
1772619314960214500,7.397214599609375,-0.08955876529216766,0.1960768699645996,-0.2920271158218384
1772619314970245600,7.40724560546875,-0.09673848003149033,0.1691402643918991,-0.24287600815296173
1772619314980275700,7.417275634765625,-0.08815138787031174,0.15268193185329437,-0.19866220653057098
1772619314990306600,7.427306640625,-0.06901463121175766,0.1193884015083313,-0.16738677024841309
1772619315000337700,7.437337646484375,-0.04742252081632614,0.08076431602239609,-0.1532440483570099
1772619315010368500,7.447368408203125,-0.05058909207582474,-0.001171603798866272,-0.14271526038646698
1772619315020399600,7.457399658203125,-0.072824627161026,-0.1140664592385292,-0.11425457894802094
1772619315030430500,7.467430419921875,-0.10359115898609161,-0.18600408732891083,-0.05952894315123558
1772619315040461600,7.477461669921875,-0.1335165649652481,-0.19642052054405212,0.007911349646747112
1772619315050492400,7.487492431640625,-0.16331635415554047,-0.18177956342697144,0.061866726726293564
1772619315060523500,7.4975234375,-0.1968410164117813,-0.1816733032464981,0.0921495258808136
1772619315070554400,7.507554443359375,-0.223939448595047,-0.18805576860904694,0.10538450628519058
1772619315080585700,7.517585693359375,-0.2446628361940384,-0.16399145126342773,0.10937072336673737
1772619315090616600,7.527616455078125,-0.2756103575229645,-0.13018469512462616,0.10008182376623154
1772619315100647700,7.537647705078125,-0.3049520254135132,-0.11604197323322296,0.07684388011693954
1772619315110678800,7.5476787109375,-0.34028786420822144,-0.1411093771457672,0.030439620837569237
1772619315120708600,7.55770849609375,-0.37351346015930176,-0.1921112984418869,-0.022273657843470573
1772619315130739700,7.56773974609375,-0.40739381313323975,-0.22621051967144012,-0.06563436985015869
1772619315140770600,7.5777705078125,-0.433674156665802,-0.19914588332176208,-0.10342676192522049
1772619315150801700,7.5878017578125,-0.4535028338432312,-0.1441657394170761,-0.13650070130825043
1772619315160832800,7.597832763671875,-0.45507144927978516,-0.1383078545331955,-0.1620902270078659
1772619315170863600,7.607863525390625,-0.4535413086414337,-0.19389718770980835,-0.16400568187236786
1772619315180894700,7.617894775390625,-0.44705331325531006,-0.24582457542419434,-0.11580221354961395
1772619315190925600,7.627925537109375,-0.43528997898101807,-0.27329471707344055,-0.03938279673457146
1772619315200956700,7.637956787109375,-0.4241134822368622,-0.2909812927246094,0.043368540704250336
1772619315210987500,7.647987548828125,-0.42302316427230835,-0.29585617780685425,0.09899011999368668
1772619315221018600,7.6580185546875,-0.4224761426448822,-0.2860261797904968,0.1305571049451828
1772619315231049500,7.668049560546875,-0.4274047017097473,-0.27087780833244324,0.1333627998828888
1772619315241080600,7.67808056640625,-0.4398704469203949,-0.2660934627056122,0.12040466070175171
1772619315251111400,7.688111328125,-0.4460477828979492,-0.2800053060054779,0.10769066959619522
1772619315261142500,7.698142578125,-0.451368510723114,-0.3133816421031952,0.09085336327552795
1772619315271172600,7.708172607421875,-0.4666668474674225,-0.3538030683994293,0.08143582940101624
1772619315281203500,7.718203369140625,-0.4881660044193268,-0.40941357612609863,0.08171173185110092
1772619315291234600,7.728234619140625,-0.4967080354690552,-0.4852217435836792,0.1035703495144844
1772619315301265700,7.738265625,-0.5005173683166504,-0.530426025390625,0.1390599012374878
1772619315311296800,7.748296875,-0.5059046149253845,-0.5328760147094727,0.16770002245903015
1772619315321327600,7.75832763671875,-0.5100551843643188,-0.5440865755081177,0.17770259082317352
1772619315331358700,7.768358642578125,-0.5090188384056091,-0.6246595978736877,0.1931823492050171
1772619315341389600,7.7783896484375,-0.49738696217536926,-0.7154984474182129,0.23236410319805145
1772619315351420700,7.788420654296875,-0.47269678115844727,-0.7345823049545288,0.2994231581687927
1772619315361451500,7.798451416015625,-0.43730974197387695,-0.7011114358901978,0.3584609031677246
1772619315371482600,7.808482666015625,-0.41209548711776733,-0.6609638333320618,0.37350183725357056
1772619315381513500,7.818513427734375,-0.3904421031475067,-0.6088175773620605,0.3358013331890106
1772619315391544600,7.828544677734375,-0.3750847578048706,-0.524512529373169,0.2530117630958557
1772619315401575700,7.83857568359375,-0.3606754541397095,-0.45253312587738037,0.1326427310705185
1772619315411606500,7.8486064453125,-0.3492022752761841,-0.4305817782878876,0.002980760531499982
1772619315421636600,7.85863671875,-0.32613396644592285,-0.4233478307723999,-0.11579222232103348
1772619315431667700,7.868667724609375,-0.2911338210105896,-0.4236800968647003,-0.20593556761741638
1772619315441698800,7.87869873046875,-0.244650736451149,-0.3999633193016052,-0.2671579420566559
1772619315451729700,7.888729736328125,-0.189432755112648,-0.35064631700515747,-0.2991771697998047
1772619315461760800,7.8987607421875,-0.1444072276353836,-0.3036593794822693,-0.29923707246780396
1772619315471791900,7.9087919921875,-0.1240992620587349,-0.25512924790382385,-0.2697259783744812
1772619315481822700,7.91882275390625,-0.12130481749773026,-0.24109704792499542,-0.21104776859283447
1772619315491853800,7.928853759765625,-0.1276368498802185,-0.29405030608177185,-0.13237227499485016
1772619315501884700,7.938884765625,-0.12913914024829865,-0.3975852131843567,-0.035583142191171646
1772619315511915800,7.948915771484375,-0.1319974660873413,-0.5391615629196167,0.07868392020463943
1772619315521946600,7.958946533203125,-0.13741646707057953,-0.6458193063735962,0.3197716176509857
1772619315531977700,7.968977783203125,-0.15135756134986877,-0.8481347560882568,0.3982953131198883
1772619315542008600,7.979008544921875,-0.19273510575294495,-0.9113430380821228,0.3942473232746124
1772619315552039700,7.989039794921875,-0.250413179397583,-0.9098218679428101,0.2969624996185303
1772619315562070500,7.999070556640625,-0.3086487948894501,-0.839279294013977,0.184226393699646
