time,seconds_elapsed,z,y,x
1772741616437388000,0.068387939453125,-0.05140285497903824,0.1097957149758935,-0.029430165689066052
1772741616447403000,0.078403076171875,-0.40256840873360633,0.24736405595848335,0.031783889208361504
1772741616457419000,0.0884189453125,-0.6466840390890837,0.28831953200744465,0.006557531884685159
1772741616467434000,0.09843408203125,-0.6935784767329692,0.2920534943713806,-0.033724428816884755
1772741616477450000,0.108449951171875,-0.5804857660382986,0.1966770028322935,-0.04420468710325658
1772741616487465000,0.11846484375,-0.3634533729195595,0.03535290680155158,0.030965412432327866
1772741616497481000,0.12848095703125,-0.2753004576921463,0.0006288542217575013,0.14332863980866967
1772741616507496000,0.138495849609375,-0.2148117944598198,0.020373273003008216,0.17541092744171619
1772741616517512000,0.148511962890625,-0.04808803134262561,0.005720843598525971,0.15222908155769108
1772741616527528000,0.15852783203125,0.14851999790668485,0.0162153130733408,0.1473104759864509
1772741616537543000,0.16854296875,0.3601432254582643,0.009662594361091032,0.24185075416341423
1772741616547559000,0.178558837890625,0.3002560352504253,0.050430388651113024,0.2843752330947667
1772741616557574000,0.188573974609375,0.01262275020778179,0.16463937632488085,0.2351131895367056
1772741616567590000,0.19858984375,-0.18974281965494155,0.25258626585248856,0.23255904807448385
1772741616577605000,0.208605224609375,-0.36287820338010784,0.1656870404805988,0.1511584566514939
1772741616587620900,0.218620849609375,-0.4020066831976175,0.09527942437278106,0.023129385044425726
1772741616597636900,0.228636962890625,-0.11522738463580608,0.0531929532662034,-0.015916457990929483
1772741616607651800,0.23865185546875,0.3065899144470691,-0.0404165286003612,-0.004585208898410201
1772741616617667800,0.248667724609375,0.7064449725687504,-0.1277646119846031,0.011404460459202527
1772741616627682800,0.258682861328125,0.9893798706620931,-0.21758365205964073,-0.02361541499570012
1772741616637698800,0.26869873046875,0.9449100298166274,-0.206800867162738,-0.0480676461417228
1772741616647713800,0.2787138671875,0.7300035428106785,-0.03325836394140497,-0.04861548928283155
1772741616657729800,0.288729736328125,0.3414730117797851,0.11692140213735401,-0.02709032456465065
1772741616667744800,0.298744873046875,0.1034621280401945,0.1105562327533029,-0.020024989288300276
1772741616677760800,0.3087607421875,0.15689152041077614,0.020643029855098576,-0.16366232971996067
1772741616687775700,0.318775634765625,0.1555459510207176,-0.15264672244787214,-0.3231114256590605
1772741616697791700,0.328791748046875,0.20967676965892312,-0.23660488939918575,-0.3782636232342571
1772741616707807700,0.338807861328125,0.2684633051484823,-0.20699151263032106,-0.41532713334597643
1772741616717822700,0.34882275390625,0.2660778713166714,-0.11038244708897545,-0.34861762283742426
1772741616727839000,0.3588388671875,0.21715806532502174,0.04954051343956962,-0.23804668570533394
1772741616737854000,0.36885400390625,0.06018646541535854,0.18744394986173138,-0.10742299449518322
1772741616747870000,0.378869873046875,-0.08630991770923137,0.2927406911842525,0.0034472178444266317
1772741616757885000,0.388885009765625,-0.15812836872935293,0.24396184629956258,0.009852847103029489
1772741616767901000,0.39890087890625,-0.126201198592782,0.044213765458855775,0.03138034990876913
1772741616777917000,0.4089169921875,-0.04916998136043548,-0.03724337845696136,0.06846840993985533
1772741616787932000,0.418931884765625,0.05170213018655777,0.1734893665282987,0.2500467739701271
1772741616797948000,0.428947998046875,0.2171808616787195,0.08103952129194512,0.21749226571545002
1772741616807963000,0.438962890625,0.31069092002511023,0.003079626641049981,0.12146708274297416
1772741616817979000,0.448978759765625,0.3516530450105667,-0.028377989755012094,0.12763941470235585
1772741616827993900,0.458993896484375,0.37591947126090525,-0.04167425531018525,0.14287066690810024
1772741616838009900,0.469009765625,0.30549568946957584,-0.07438185350103303,0.16122560409232972
1772741616848024800,0.47902490234375,0.09701251350939273,-0.09398337494656443,0.12260383168794214
1772741616858040800,0.489040771484375,-0.12363748558461665,-0.037500659419968725,0.05640307441912591
1772741616868057000,0.49905712890625,-0.32396248953044415,-0.0814828811452724,-0.060597018977627155
1772741616878071800,0.50907177734375,-0.3465688736140728,-0.05553375337184407,-0.10992058346457778
1772741616888088000,0.519088134765625,-0.14541034145355225,0.023208395964233203,-0.039149960996955634
1772741616898103000,0.52910302734375,0.17825521095693111,-0.01735325846155174,0.026371143444627522
1772741616908119000,0.539119140625,0.398920992141962,-0.10238724708398804,0.026664281172305345
1772741616918134000,0.549134033203125,0.4179898497492075,-0.09599844109602272,-0.008774769542738795
1772741616928150000,0.55914990234375,0.3422925114691257,-0.009667316201981156,0.042229514572769404
1772741616938165000,0.5691650390625,0.26936054624915123,0.11923949722084216,0.057431467618793246
1772741616948181000,0.579180908203125,0.25413608911037444,0.04793147537431214,0.027623262397572398
1772741616958197000,0.589197021484375,0.20583003110289572,-0.09471945240246131,-0.013621771182492375
1772741616968212000,0.5992119140625,0.2814911290258169,-0.11026004455201327,-0.047302214727178216
1772741616978228000,0.60922802734375,0.2474766312211752,-0.06017166057187132,-0.10031403927281499
1772741616988243000,0.619242919921875,0.282013107073307,-0.016677699570835102,-0.12383768433183431
1772741616998259000,0.629259033203125,0.24546412235498427,0.060224212743015954,-0.10266367113888263
1772741617008274000,0.63927392578125,0.15931202555596827,0.13690243355291895,-0.04333265350908041
1772741617018290000,0.6492900390625,0.04091302514672279,0.15552898161960765,0.013651947125047444
1772741617028305000,0.659304931640625,-0.14353694879710674,0.13579614367829634,0.022616613216698167
1772741617038321000,0.66932080078125,-0.25620178946852684,0.14659440927212125,-0.006733692169189453
1772741617048337000,0.6793369140625,-0.417653165140748,0.06640447228052652,-0.06535824203006922
1772741617058351900,0.689351806640625,-0.5267530068069696,-0.008818791347555815,-0.13930705614238978
1772741617068368000,0.699367919921875,-0.4789069675266742,-0.011967026245407759,-0.20382037178091703
1772741617078382800,0.7093828125,-0.3616834406375885,0.028518293274845927,-0.20401151043884455
1772741617088398800,0.71939892578125,-0.21963760718107223,0.01565380673306063,-0.0890152311451733
1772741617098413800,0.729413818359375,-0.1949742905676365,0.0508902658144012,-0.0000786181941628456
1772741617108429800,0.739429931640625,-0.25441081439852714,0.0900727591077797,0.07541311451122164
1772741617118444800,0.74944482421875,-0.31068156767487526,0.09302548969984054,0.07584471086151898
1772741617128460800,0.759460693359375,-0.2564975575447082,0.045509413026273246,0.051029783882945774
1772741617138475800,0.769475830078125,-0.1293137776553631,-0.037795623778551814,0.017418533116951584
1772741617148491800,0.77949169921875,0.058364510685205456,-0.08262956696236505,0.035288244067505
1772741617158507800,0.7895078125,0.22162790421545503,-0.08590025919610635,0.09217530261129141
1772741617168522800,0.799522705078125,0.30460780071914195,-0.033835168315516785,0.17585063403323292
1772741617178538800,0.809538818359375,0.2470008304029703,0.054025910658738574,0.2173766765117645
1772741617188553700,0.8195537109375,0.15103519559800624,0.07117031670915894,0.1992415195580572
1772741617198570000,0.829570068359375,0.13533376859724522,0.060128506416734305,0.13219400926679373
1772741617208584700,0.839584716796875,0.22573650857806205,0.018972426336823264,0.08622158183865249
1772741617218601000,0.84960107421875,0.28110008388161656,-0.05185006445699837,0.07130187980011105
1772741617228616000,0.859615966796875,0.25793606591522694,-0.04603640517559834,0.03278678264059126
1772741617238632000,0.8696318359375,0.18485913926661013,0.011812658809247659,0.005268368856981396
1772741617248648000,0.87964794921875,0.06148001235723495,0.06397467415060382,-0.027030191875249146
1772741617258663000,0.889662841796875,-0.08522036890685558,0.05981175948460586,-0.04031125986129045
1772741617268679000,0.899678955078125,-0.14209727138280867,0.03352414558798773,-0.044289515842497344
1772741617278694000,0.90969384765625,-0.029355273821949957,-0.0014913014286139514,-0.07275953126251697
1772741617288710000,0.9197099609375,0.08377543079555035,-0.04777323890556581,-0.06855206963531672
1772741617298724900,0.929724853515625,0.13725041587352751,-0.040634199072187766,-0.02272336152680218
1772741617308740900,0.939740966796875,0.10430500860512255,0.034760909424885175,0.009087050362303853
1772741617318755800,0.949755859375,0.06665887629985809,0.05524918710968923,0.03576945171318948
1772741617328771800,0.959771728515625,0.10292904407680034,0.06487982912966982,0.07419263280555606
1772741617338787800,0.969787841796875,0.024196283623576162,0.08749825984411873,0.058042146863043306
1772741617348802800,0.979802734375,-0.02380173134803772,0.09802279566363431,0.057309740935266015
1772741617358819000,0.989819091796875,0.06942483388185501,0.05277054030278232,0.011991904958337544
1772741617368833800,0.999833740234375,0.25670330924987794,-0.02091907945065759,-0.004763780335709452
1772741617378850000,1.00985009765625,0.3590343874335289,-0.0836786924228072,0.0032592940568923947
1772741617388865000,1.019864990234375,0.41541678439080715,-0.07350360022862441,0.006499737282842397
1772741617398881000,1.029881103515625,0.3218506119430065,-0.04130946798524819,0.023034619433060288
1772741617408896000,1.03989599609375,0.18741992966532706,-0.04269354732136708,0.027805194835737346
1772741617418912000,1.049912109375,0.08393500527143478,-0.06329776583630592,-0.008806845181435347
1772741617428928300,1.05992822265625,0.0404682039886713,-0.027756958080106413,-0.00993015012294054
1772741617438943500,1.069943603515625,0.04992226103246212,0.027486007068061733,-0.0060028206113725896
1772741617448959200,1.079959228515625,-0.0556786326020956,0.0345398916519247,-0.01363740714304149
1772741617458974500,1.089974365234375,-0.016382979524135588,0.08598929831958375,0.03081942809037864
1772741617468990200,1.099990234375,-0.06929039384722709,0.17480896122688427,0.03451156060658395
1772741617479005400,1.11000537109375,-0.1431640238314867,0.2538603226426057,0.06751731976009905
1772741617489021200,1.120021240234375,-0.060030982592701905,0.26080566653478887,0.11991444647349417
1772741617499036400,1.130036376953125,0.04422083452045917,0.2668441977803595,0.1630602721735835
1772741617509052400,1.140052490234375,0.17065116569399832,0.22973774357605725,0.1889086338531226
1772741617519067400,1.1500673828125,0.24892858359515666,0.1693041715318337,0.2245433532707393
1772741617529083400,1.16008349609375,0.24669337188899515,0.08560713973473758,0.18008965984247624
1772741617539099400,1.170099365234375,0.14695406376421452,0.007793848197010811,0.06119688456691801
1772741617549114400,1.1801142578125,0.04842939212620258,-0.051356084094708786,-0.04092325427979231
1772741617559130400,1.19013037109375,-0.17662381036281585,-0.05853965262298006,-0.14403642275184392
1772741617569145300,1.200145263671875,-0.2317033080279827,-0.017482364733936263,-0.11729863795191049
1772741617579161300,1.210161376953125,-0.09508125318586826,-0.001409627052617725,-0.07413198865950107
1772741617589176300,1.22017626953125,0.10533025999963283,-0.06642201707037165,-0.03692855862043798
1772741617599192300,1.2301923828125,0.35188217759132384,-0.1798966762873344,-0.02547777480147779
1772741617609207300,1.240207275390625,0.33404841473698615,-0.2576667839871719,-0.0764787709813565
1772741617619223300,1.250223388671875,0.30357085888683794,-0.28676614681929347,-0.14392061435244977
1772741617629239300,1.2602392578125,0.22507716788649557,-0.27753216226696964,-0.225197579395771
1772741617639254300,1.270254150390625,0.1378302615880966,-0.24773623200543224,-0.23379575026258825
1772741617649270300,1.280270263671875,0.1413689571082592,-0.11111240533133968,-0.15311382850296795
1772741617659285200,1.29028515625,0.1538917540729046,0.019968400262854992,-0.05150441565737128
1772741617669301500,1.300301513671875,0.13218962535262108,0.01310614067739807,0.005566548085957765
1772741617679316200,1.310316162109375,0.06018120471835136,-0.10542880673697218,-0.0017417291007936
1772741617689332500,1.32033251953125,-0.15157996999919413,-0.11501167779220267,0.011441650664433835
1772741617699347500,1.330347412109375,-0.3436357427716255,0.004382936925115063,0.029568258985504508
1772741617709363500,1.340363525390625,-0.3539677516937256,0.03992715591453016,0.0622121260240674
1772741617719378400,1.35037841796875,-0.2643891875773668,0.010113297270657493,0.12695954267941414
1772741617729394400,1.36039453125,-0.1229600247144699,0.027512395034777,0.11741671137362718
1772741617739410400,1.370410400390625,0.0022030630022287366,0.06210172445215285,0.11556786863654851
1772741617749425400,1.38042529296875,-0.02660451380908489,0.06845292010977864,0.10919964877888559
1772741617759441400,1.39044140625,-0.15343173534572124,0.11903205588208511,0.04172156505063176
1772741617769456400,1.400456298828125,-0.08548866445422172,0.11261840771380811,0.021053455553203818
1772741617779472400,1.410472412109375,0.13953297385275362,0.0038726401822641488,0.025877295513078567
1772741617789487400,1.4204873046875,0.29230303041934963,-0.07567648728829808,-0.0202492995634675
1772741617799503400,1.43050341796875,0.2862707645177841,-0.08649470882476307,-0.061323360490798944
1772741617809518300,1.440518310546875,0.3337327729165554,-0.07744378922176547,-0.07196414310112595
1772741617819534300,1.450534423828125,0.30757483383119105,-0.06315156229864806,-0.0966004986423999
1772741617829550600,1.460550537109375,0.185579270234704,0.0003885061272419989,-0.11406849692426621
1772741617839565600,1.470565673828125,0.08450199150443076,0.028161177799711,-0.1482920343697071
1772741617849581600,1.48058154296875,-0.06177694947719574,0.05562971542645245,-0.1881532854411751
1772741617859596500,1.490596435546875,-0.10121230328679084,0.04256171480235643,-0.16025018318891524
1772741617869612500,1.500612548828125,-0.03183598472177982,0.010137335733370854,-0.12235109903588891
1772741617879627500,1.51062744140625,-0.03584931201636791,-0.013191818800009787,-0.09425466616861522
1772741617889643500,1.5206435546875,-0.018084522745013237,-0.004476606557937339,-0.06820544815473258
1772741617899658500,1.530658447265625,0.046775195178389545,0.03279434489253908,-0.05088387260623276
1772741617909674500,1.540674560546875,0.06557517271637917,0.06356048102625646,-0.037362493058294054
1772741617919690500,1.5506904296875,0.07240180386602878,0.08979041676875203,0.02351348899118602
1772741617929705500,1.56070556640625,0.14483809452354907,0.13537921517416834,0.06836838363148272
1772741617939721500,1.570721435546875,0.2039092921733856,0.07778672090792096,0.0692660631235689
1772741617949736400,1.580736328125,0.15816636265218256,-0.026391546911839394,0.05381985299289226
1772741617959752400,1.59075244140625,0.05718026933670044,-0.03270280328472145,0.005803060255572199
1772741617969767400,1.600767333984375,-0.04686579607129097,-0.014566148493671788,-0.00934153658002615
1772741617979783400,1.610783447265625,0.07180617606043815,-0.036760124984662974,0.011077639657631515
1772741617989798400,1.62079833984375,0.11961129880845546,-0.02699783310876228,0.10976795018613338
1772741617999814400,1.630814453125,0.023358663755655287,0.051626078408816826,0.16826193246990442
1772741618009829400,1.640829345703125,0.021176059019565582,0.06997853137501515,0.14922653874084352
1772741618019845400,1.650845458984375,-0.05335924974381923,0.008364124648924916,0.08592720200195908
1772741618029861400,1.660861328125,-0.09566460603177547,-0.020274160010088235,0.01906242786645889
1772741618039876400,1.67087646484375,-0.03450958784520626,0.01028932969099842,0.0002442570846527815
1772741618049892400,1.680892333984375,0.13320260178744792,0.0003628236967138946,0.042878991457447405
1772741618059907300,1.6909072265625,0.31422318580448627,-0.023356663594814017,0.11160042631030082
1772741618069923300,1.70092333984375,0.4019587524026632,-0.005814942489610985,0.1475938960377127
1772741618079938300,1.710938232421875,0.294435950794816,0.008016096662543713,0.13449819455593823
1772741618089954300,1.720954345703125,0.12424012765288352,0.025943081625131887,0.09084047381095588
1772741618099969300,1.73096923828125,-0.044072950482368464,0.06875683495979756,0.05529876643903553
1772741618109985300,1.7409853515625,-0.04943301621079445,0.04838156179594807,0.07263320146910845
1772741618120001300,1.751001220703125,-0.05547931063771248,0.06219595120740123,0.09387845326736569
1772741618130016300,1.761016357421875,-0.09711772744953631,0.059792972585745154,0.049847296100109816
1772741618140032300,1.7710322265625,-0.0890495718061924,0.008171625150972977,-0.020775807655602694
1772741618150047200,1.781047119140625,-0.006962824749946594,-0.006443203056324273,-0.05610993669144809
1772741618160063500,1.7910634765625,0.1434685597360134,-0.04389744778499007,-0.09808891056925058
1772741618170078500,1.801078369140625,0.17182605469226836,-0.05175193327818997,-0.09114968589060007
1772741618180094500,1.811094482421875,0.17123977923691272,-0.015957602852070703,-0.06192461431957781
1772741618190109400,1.821109375,0.10497487069070338,-0.013752028232347219,-0.04385558140464127
1772741618200125400,1.83112548828125,-0.042264439755678174,-0.04779395290003158,-0.09827909937910735
1772741618210140400,1.841140380859375,-0.10326689772903919,-0.08482408133195712,-0.12575045915059743
1772741618220156400,1.851156494140625,-0.1343225457280874,-0.033930874641798434,-0.10497603973448276
1772741618230172400,1.86117236328125,-0.14254676871597766,0.013343922355491667,-0.0992779011581093
1772741618240187400,1.8711875,-0.037459085300564764,0.027911523020733145,-0.07733977172486484
1772741618250203400,1.881203369140625,0.062062780681252476,0.031591216180473565,-0.05348097642734646
1772741618260218400,1.89121826171875,0.034739889469742775,0.019502709846710785,-0.01487834711484611
1772741618270234400,1.901234375,0.06222936941981315,0.03102452220842242,0.00811199478507042
1772741618280249300,1.911249267578125,0.16211948419213293,0.02190734156933613,0.050364451842010015
1772741618290265300,1.921265380859375,0.19350714062452315,-0.0422684674768243,0.05530958009399473
1772741618300280300,1.9312802734375,0.20578560743927954,-0.03727906169169582,0.018904606956243512
1772741618310296300,1.94129638671875,0.21859540465176105,-0.04947763167065568,-0.01213080197237432
1772741618320311300,1.951311279296875,0.2341132917791605,-0.07848487750622443,-0.053373351334407924
1772741618330327600,1.96132763671875,0.19514555548131465,-0.029301406476553528,-0.03195983029715717
1772741618340343600,1.971343505859375,0.05263268903493881,0.010159922024514526,0.043837461226060984
1772741618350358500,1.981358642578125,-0.04925239894688129,0.05759296005712822,0.0802505446050316
1772741618360374500,1.99137451171875,-0.09940729969143867,-0.008272299913316964,0.05745711351670325
1772741618370389500,2.001389404296875,0.0028887071788311004,-0.06667619276084005,0.03286773892231285
1772741618380405500,2.011405517578125,0.1346674136430025,-0.08173015217091888,0.03892075535096228
1772741618390420500,2.02142041015625,0.24486966359317303,-0.06724482296165078,0.05745134136304259
1772741618400436500,2.0314365234375,0.35603520561754703,-0.09131101393215357,0.06611812048666178
1772741618410451500,2.041451416015625,0.4458914176315069,-0.13214657166218385,0.04459069074615836
1772741618420467500,2.051467529296875,0.30819267346858975,-0.13134499122202395,0.010956643626466393
1772741618430483500,2.0614833984375,0.05432604894936084,-0.006139872728195041,-0.014092165173217654
1772741618440498400,2.07149853515625,-0.14267887066304683,0.124344958000537,0.06877455327957868
1772741618450514400,2.081514404296875,-0.22054010897874832,0.2413750446767546,0.126820864861086
1772741618460529400,2.091529296875,-0.16753449497818945,0.26365771323135123,0.13957264827601612
1772741618470545400,2.10154541015625,-0.11588906341493128,0.14980251199789343,0.1020052802953869
1772741618480560400,2.111560302734375,-0.0902782368183136,0.050462213128060096,0.018730784759297965
1772741618490576400,2.121576416015625,-0.08849135340154171,-0.0023954620354808866,-0.03464073994420468
1772741618500591400,2.13159130859375,-0.015865093129873276,-0.0670906005143188,-0.025807006755843756
1772741618510607400,2.141607421875,0.09306699075400829,-0.0804446241387166,-0.02353570082299411
1772741618520622300,2.151622314453125,0.09513093754649161,-0.02223899380965158,-0.025069924652948973
1772741618530638300,2.161638427734375,0.12003449265658855,0.02463520476380363,-0.04135945373997092
1772741618540654300,2.171654296875,0.2040630214303732,0.019326723092142492,-0.007083747715875506
1772741618550669300,2.18166943359375,0.22385025644004344,0.03848937819637358,0.025839009329304097
1772741618560685300,2.191685302734375,0.19434300692677497,0.031801169136725364,0.030201223126798866
1772741618570700300,2.2017001953125,0.18719079708456993,0.00302048033233732,0.0356298240467906
1772741618580716300,2.21171630859375,0.16139935322403906,-0.006991502855159342,0.04569580244384706
1772741618590731300,2.221731201171875,0.10981880359053611,-0.025085743276588617,0.03393624493665993
1772741618600747300,2.231747314453125,0.05029927765130996,-0.03342833194714039,0.012666881610453129
1772741618610762200,2.24176220703125,0.007442717221379279,-0.017320589167810974,-0.042363077824562785
1772741618620778200,2.2517783203125,-0.08454816873371601,0.029192173948418346,-0.07579130017384886
1772741618630793200,2.261793212890625,-0.11232347988784312,0.01082167386887595,-0.10150719458013772
1772741618640809200,2.271809326171875,-0.061661214143037796,-0.029850984917022285,-0.10157412233650684
1772741618650825200,2.2818251953125,-0.015440145716071128,-0.019811456135474144,-0.04816562662348151
1772741618660840200,2.291840087890625,-0.007246902388334274,0.00994439784400165,0.024303762586042284
1772741618670856200,2.301856201171875,-0.007014262676239013,0.009771799489762633,-0.004462093975394964
1772741618680871200,2.31187109375,-0.05684416925013065,-0.011431056205183266,-0.05622114198096096
1772741618690887200,2.32188720703125,-0.08564823893010616,0.016798190995212643,-0.056862143298238514
1772741618700902100,2.331902099609375,-0.015197569131851196,0.0776437048411928,-0.0224115921638906
1772741618710918400,2.34191845703125,0.08514028940796851,0.05637512696627527,-0.025386077930033207
1772741618720933000,2.35193310546875,0.12313771936893463,0.025464750923123208,-0.0055921209186315535
1772741618730949400,2.361949462890625,0.18353811979591844,-0.01755783198978752,0.0020306290447711945
1772741618740965400,2.37196533203125,0.07008651266098022,-0.019690277441218495,-0.05202295963875949
1772741618750980400,2.38198046875,-0.08645078748464584,-0.012049498630780727,-0.09601356559991836
1772741618760996400,2.391996337890625,-0.014673837518692015,-0.055045376199856395,-0.08390475626364349
1772741618771011300,2.40201123046875,0.06366320161521434,-0.04787552110310644,-0.0322800752274692
1772741618781027300,2.41202734375,0.17554010677933693,0.0038855727290734647,0.021555267595499753
1772741618791042300,2.422042236328125,0.22719021451771257,0.012323182739317417,0.07266922263056039
1772741618801058300,2.432058349609375,0.2455325114160776,0.05496884036492556,0.08403554303646087
1772741618811073300,2.4420732421875,0.2365185993552208,0.05677066562250256,0.08964125408902764
1772741618821089300,2.45208935546875,0.12935878584086893,0.054106597512401634,0.043695641602575774
1772741618831104300,2.462104248046875,0.024681436792016027,0.06488580221273005,0.011643749107792973
1772741618841120300,2.472120361328125,-0.05194003059566021,0.011696904067136346,-0.0024873598363250493
1772741618851136300,2.48213623046875,-0.1846995647907257,0.003887289762124419,-0.04254997869879007
1772741618861151200,2.492151123046875,-0.06385784740447997,-0.011950476969406008,-0.012848814048618077
1772741618871167500,2.50216748046875,0.04444821353554725,-0.027019195557199418,0.030456074670702216
1772741618881182500,2.512182373046875,0.12718261084556579,-0.039914296432957054,0.04813537761569023
1772741618891198500,2.522198486328125,0.20110241805911064,-0.07001892731748521,0.014934388151019811
1772741618901213400,2.53221337890625,0.14191431603133678,-0.048606356128305196,-0.0003850537948310375
1772741618911229400,2.5422294921875,0.008664952492713927,-0.030901553415879607,0.018928718484193086
1772741618921244400,2.552244384765625,-0.0398451036542654,0.006579707183875143,0.0221321176353842
1772741618931260400,2.562260498046875,-0.011962824994325638,-0.012412651121057569,0.06449855646081268
1772741618941275400,2.572275390625,-0.03025134587883949,-0.035457134361006316,0.07497691505104304
1772741618951291400,2.58229150390625,-0.04765782323181629,-0.01335771341882646,0.0430558093290776
1772741618961307400,2.592307373046875,-0.03620820845663547,0.0055418885687366125,-0.002597396082058549
1772741618971322400,2.602322265625,0.046316930016875264,0.0026560309341177343,-0.009524053540080785
1772741618981338400,2.61233837890625,0.1536380715727806,-0.00572630522493273,0.035618352804705496
1772741618991353300,2.622353271484375,0.14936404751539228,0.073764251325652,0.09005947950109838
1772741619001369300,2.632369384765625,0.09161503838002681,0.10816332800108938,0.12968231870681046
1772741619011384300,2.64238427734375,0.038411855980753896,0.08230981522239744,0.08836611958667635
1772741619021400300,2.652400390625,0.04216565555632114,0.025426738733984527,0.05492131142877042
1772741619031415300,2.662415283203125,0.06277414382100105,-0.04884224724341184,0.009025237172469495
1772741619041431600,2.672431640625,0.10395721808075904,-0.06683766693286597,-0.009590689035505055
1772741619051447300,2.682447265625,0.15978256567716598,-0.0523356057845056,-0.039287104445323344
1772741619061462500,2.692462646484375,0.18429098398983476,-0.05939410946127027,-0.061365519132092594
1772741619071478300,2.702478271484375,0.17945874152779578,-0.04195902706831693,-0.07643588168770074
1772741619081493500,2.712493408203125,0.15322598364055157,0.041428390790335834,-0.0370670903082937
1772741619091509200,2.72250927734375,0.16098551172614098,0.061933382147923106,-0.0036592531599104403
1772741619101524500,2.7325244140625,0.1407493639051914,0.03421140861622989,0.019313187757134437
1772741619111540200,2.742540283203125,0.0370610258936882,0.024733714968524872,-0.017288988453149794
1772741619121555500,2.752555419921875,-0.021649521750211714,-0.014393888066150247,0.002270429150015116
1772741619131571200,2.7625712890625,-0.04803367080688476,-0.049702919193357224,-0.006481617104262113
1772741619141586200,2.772586181640625,-0.0475309819817543,-0.016753968260996042,0.015346256887540221
1772741619151602200,2.782602294921875,-0.06614391251504421,0.026220227199234065,0.06379983360692858
1772741619161618200,2.7926181640625,-0.045476387539505954,0.05129917540885508,0.06650127458535135
1772741619171633200,2.802633056640625,0.09270341813862323,-0.003430010981298983,0.05397708938121795
1772741619181649200,2.812649169921875,0.1188560965269804,-0.02806106929294765,0.0009857231017202138
1772741619191664000,2.8226640625,0.04995616330206394,-0.026389044427499172,-0.03997464831806719
1772741619201680400,2.832680419921875,-0.044722938823699945,0.0378177990777418,-0.04485613674931228
1772741619211695400,2.8426953125,-0.07251578563451766,0.07030063033569604,-0.0007579056952148676
1772741619221711400,2.85271142578125,-0.031762919485568995,0.038383397071249784,0.03376366484872997
1772741619231726300,2.862726318359375,0.010289923346042633,0.03836889362186193,0.06336041927635669
1772741619241742300,2.872742431640625,0.046480011624097824,0.05852434088941663,0.09099149965420365
1772741619251757300,2.88275732421875,0.13896949475109577,0.06599029285591096,0.08163162369988858
1772741619261773300,2.892773193359375,0.12215104641914366,0.028362609522789715,0.03781673963181674
1772741619271789300,2.902789306640625,0.12311375397145748,0.03269636441078037,0.0025123481471091506
1772741619281804300,2.91280419921875,0.09891571678221225,0.046734899700619274,-0.0007566635861992835
1772741619291820300,2.9228203125,0.027117139506340024,0.036258148545585574,0.000012274959683418274
1772741619301835300,2.932835205078125,-0.051074938198924065,0.048128546016104515,0.011902911500632763
1772741619311851300,2.942851318359375,-0.08834989910423754,0.006308635157532989,-0.03250489695928991
1772741619321866200,2.9528662109375,-0.04684416876137256,-0.04760313390251249,-0.055883580589666956
1772741619331882200,2.96288232421875,0.07129705749452114,-0.02611486712861806,-0.0659095923025161
1772741619341897200,2.972897216796875,0.19589783515334128,-0.004321406863071024,-0.03745170571170747
1772741619351913200,2.982913330078125,0.33364626367688177,0.003435198613069951,0.005319222261384129
1772741619361928200,2.99292822265625,0.3672475045055151,0.008277633675560355,0.015347645127028227
1772741619371944400,3.0029443359375,0.2274152554452419,0.041200171525031325,0.025172215983644126
1772741619381960400,3.01296044921875,-0.035633038917183876,0.07175981616806239,0.014701310047507285
1772741619391975400,3.022975341796875,-0.1672708756059408,0.05642130419556051,-0.028028628328070043
1772741619401991400,3.032991455078125,-0.16870763041079043,0.016536489585414527,-0.041804347963258624
1772741619412006400,3.04300634765625,-0.10525134954452514,-0.006847856600768864,-0.04752024139203131
1772741619422022400,3.0530224609375,0.03291910378336906,0.0030142332546412944,0.005248495112732053
1772741619432036900,3.063036865234375,0.18686755647957323,0.020987112318724393,0.040299569423496724
1772741619442052900,3.073052978515625,0.31802783878445623,0.04387914494331926,0.07624284333363175
1772741619452067800,3.08306787109375,0.28918811326920985,0.05918225680887699,0.10489033421240747
1772741619462083800,3.093083740234375,0.12007190205752849,0.0986446812884882,0.06190547122769057
1772741619472099800,3.103099853515625,-0.010149638092517852,0.07502353067174554,0.04600589130632579
1772741619482114800,3.11311474609375,-0.028394904357194897,-0.010614844451472162,0.027110928961262104
1772741619492130800,3.123130859375,-0.0632253947198391,-0.03229143687169999,-0.024907865959033368
1772741619502145800,3.133145751953125,-0.07328443191945552,-0.020243783138133586,-0.0417765101082623
1772741619512161800,3.143161865234375,0.043026071777939795,-0.02147975467387587,-0.04794854980669915
1772741619522176800,3.1531767578125,0.1435994926393032,-0.029160701097920537,-0.012654022128880024
1772741619532192800,3.16319287109375,0.06686228991746902,0.03592643237318843,0.003227291483432054
1772741619542207700,3.173207763671875,-0.0438449869453907,0.09626348524037748,-0.036302608741819856
1772741619552223700,3.1832236328125,-0.04894844756424427,0.06843889158442616,-0.08107230931669474
1772741619562238700,3.19323876953125,0.017922610181570053,0.0015921645622700453,-0.07406506090313196
1772741619572254700,3.203254638671875,0.1470236218690872,0.01005531087256968,-0.03568440377824008
1772741619582271000,3.21327099609375,0.269256501352787,-0.004366451581194997,0.002076514013111591
1772741619592286000,3.223285888671875,0.24199790754914283,0.0008068959360942245,-0.0018987462934106588
1772741619602302000,3.233302001953125,0.17946867839992045,0.009863441562280058,0.025644509670510886
1772741619612317000,3.24331689453125,0.10663491285741329,0.0537458379086107,0.03780395321547985
1772741619622333000,3.2533330078125,0.08046528333425522,0.09332545902710407,0.044756329636648294
1772741619632348000,3.263347900390625,0.08668108910918235,0.06363883435893804,0.09106303052045404
1772741619642364000,3.273364013671875,0.06948387059271335,0.05758322411440313,0.0909891615666449
1772741619652379000,3.28337890625,0.04098375229537487,0.03270951615329832,0.03865735517442226
1772741619662395000,3.293394775390625,-0.09063713325858115,0.03744217069838196,-0.003382701240852475
1772741619672409900,3.303409912109375,-0.11399813510179518,0.0237104728680104,-0.022504385013878345
1772741619682425900,3.31342578125,-0.09069850805699825,0.017221951098926363,-0.04336925919242203
1772741619692441600,3.323441650390625,-0.10177987404167652,0.02908054853379726,-0.07048420674167573
1772741619702456800,3.333456787109375,-0.027744916015863416,-0.02277257096339017,-0.05281301403790712
1772741619712472600,3.34347265625,0.04662789566218853,-0.034647169684991236,-0.08000555686801672
1772741619722487800,3.35348779296875,0.11278349861502647,-0.07471662014704197,-0.09753281105645001
1772741619732503800,3.36350390625,0.16406301947534083,-0.09174531369619071,-0.08308854450993239
1772741619742518800,3.373518798828125,0.11200842258930206,-0.07712561751753091,-0.044522886206954715
1772741619752534800,3.38353466796875,0.058065819999575614,-0.06702475047018379,-0.047867155133560296
1772741619762549800,3.3935498046875,-0.029785481932759282,-0.007102890807762742,-0.04762245965749025
1772741619772565800,3.403565673828125,0.033169863674044606,0.024892449194192885,-0.011532763013988733
1772741619782580700,3.413580810546875,0.19264789344668387,0.02209470823444426,0.05668262201286852
1772741619792596700,3.4235966796875,0.29909751286506653,0.017391462446935475,0.08425495794080197
1772741619802612700,3.43361279296875,0.2820791580468416,0.027781704362295566,0.06464665969461202
1772741619812627700,3.443627685546875,0.1984159554541111,0.02825666493028402,0.056105479712039226
1772741619822643700,3.453643798828125,0.09278466668128967,0.03568027559239417,0.05744410790465772
1772741619832658700,3.46365869140625,-0.01844283466339111,0.10533066185843198,0.08092237945199013
1772741619842674700,3.4736748046875,-0.06329962899982929,0.10730707649793475,0.0639355888158083
1772741619852689700,3.483689697265625,-0.06619359687566757,0.07134918954055756,0.040695217677578326
1772741619862705700,3.49370556640625,-0.0507248095870018,0.05463007339723408,0.026961583618447183
1772741619872720600,3.503720703125,0.0394400299847126,0.026893632948771118,-0.001084288105368614
1772741619882736600,3.513736572265625,0.11004676712751388,-0.02355265195779502,-0.03620996202230453
1772741619892751600,3.523751708984375,0.22348726834654806,-0.11831596176829189,-0.05000643218457698
1772741619902767600,3.533767578125,0.25435294673144815,-0.052655887247435744,-0.021338848365843294
1772741619912784000,3.543783935546875,0.24387130020558834,-0.005335661939531565,0.01042903955578804
1772741619922798800,3.553798828125,0.25240941144824025,-0.022819259649328887,0.05350625699907541
1772741619932814800,3.56381494140625,0.14638883109688758,-0.03810775846764445,0.025779315031319854
1772741619942829800,3.573829833984375,-0.08843173216879367,-0.01952883980181068,-0.01839731502123177
1772741619952845800,3.583845703125,-0.2586988669812679,-0.010069193267449737,-0.058690162442997094
1772741619962860800,3.59386083984375,-0.29215631542503834,-0.03521645747292786,-0.009870382759720086
1772741619972876800,3.603876708984375,-0.21268296573758125,-0.008415690439380705,0.008540230134502053
1772741619982891800,3.613891845703125,-0.02909808419048786,-0.016582228423282504,0.054908232751488685
1772741619992907800,3.62390771484375,0.08508592887222767,0.022700930499285458,0.11660780614353716
1772741620002922800,3.6339228515625,0.09252630800604819,0.0843199860010296,0.10360160957612097
1772741620012938800,3.643938720703125,0.11374386807978153,0.052759091893583535,0.07439560803174972
1772741620022954800,3.653954833984375,0.0826186619758606,-0.0006896992972120642,0.0032054449778050184
1772741620032969700,3.6639697265625,0.03467266945242881,-0.006037636196427047,-0.02589621940925717
1772741620042985700,3.67398583984375,0.038299627777934074,-0.025028533196635543,-0.05130860082432628
1772741620053000700,3.684000732421875,0.030464696368575093,-0.07678780039791017,-0.041139892705157395
1772741620063017000,3.694016845703125,0.037329321441054344,-0.015907544032111764,-0.00523139784745872
1772741620073031700,3.70403173828125,-0.026793898901343344,0.02884688590839505,-0.02306143437474966
1772741620083048000,3.7140478515625,-0.037592356291413304,0.000460822444781661,-0.04167977173551917
1772741620093063000,3.72406298828125,0.03757598967850208,0.004289879213646054,-0.040333033301681274
1772741620103079000,3.734078857421875,0.13251695761084556,-0.011129662105813622,-0.03263546453639865
1772741620113094000,3.744093994140625,0.20401918228864668,-0.011198160764761269,-0.009136661657691001
1772741620123110000,3.75410986328125,0.32233167345821856,-0.040109965135529634,0.016071283226460217
1772741620133126000,3.7641259765625,0.3612690146178007,-0.07208711189366877,0.039527562137693165
1772741620143140900,3.774140869140625,0.25957740338146684,-0.027570326633937655,0.05565210992135107
1772741620153156900,3.784156982421875,0.029154782813787458,0.02038593155518174,0.011056377673894167
1772741620163171800,3.794171875,-0.08392389935553074,0.0881328953526914,0.04642645480595529
1772741620173187800,3.804187744140625,-0.12425649426579474,0.14240754290837793,0.08722863998934625
1772741620183202800,3.814202880859375,-0.10788286709189414,0.14830299415513873,0.0790326932478696
1772741620193218800,3.82421875,-0.07572773341834545,0.08580894591715187,0.0792999658819288
1772741620203233800,3.83423388671875,-0.042160394859313964,0.034231903414987025,0.049534138497710226
1772741620213249800,3.844249755859375,-0.018352233770489692,-0.03305409180726856,0.03264554753899574
1772741620223264800,3.8542646484375,-0.04914952309429645,-0.03347549555711448,-0.011260156617686153
1772741620233280800,3.86428076171875,-0.025754618981480598,0.0013924407390877604,-0.01364449447095394
1772741620243295700,3.874295654296875,0.08449380819797515,0.023085911228880283,0.026797479097917673
1772741620253312000,3.88431201171875,0.11277882243990897,0.03485518641248345,0.03509557103961706
1772741620263327700,3.89432763671875,0.15340835447013376,0.004695939263887703,-0.031297493930906056
1772741620273342700,3.9043427734375,0.15687807640731333,-0.07902421768046915,-0.06904241043552756
1772741620283358700,3.914358642578125,0.1412076290667057,-0.09126739398613572,-0.09304667861834168
1772741620293373700,3.924373779296875,0.11327508152425289,-0.04663757680598646,-0.0601294745311141
1772741620303389700,3.9343896484375,0.03880640825629234,0.01699212439842522,-0.024158216635510325
1772741620313404700,3.94440478515625,-0.048580783295631404,0.1160031913138926,0.04155249209403991
1772741620323420700,3.954420654296875,-0.027711013746261594,0.11307316574398428,0.05742423416040837
1772741620333435600,3.964435546875,0.06229132874011993,0.029846454872377214,0.039880101902410384
1772741620343451600,3.97445166015625,0.11839315519034861,-0.04748900600355118,-0.008685118497908114
1772741620353466600,3.984466552734375,0.130427291855216,-0.04233403439316898,-0.024399624175950884
1772741620363482600,3.994482666015625,0.11925474045574665,-0.028508374669030306,-0.06779431007057428
1772741620373498600,4.00449853515625,0.1080108773857355,-0.03760609255582094,-0.05103387553617358
1772741620383513600,4.014513671875,0.018911036697030065,0.017019633459858595,-0.0191083859000355
1772741620393529600,4.024529541015625,-0.10112462500333785,0.08831369527969508,0.03540953235961496
1772741620403544600,4.034544677734375,-0.1543219621837139,0.10592760483827442,0.05694792188555002
1772741620413560800,4.044560791015625,-0.12812369108796118,0.048637774179875845,0.0490020043823868
1772741620423575800,4.054575927734375,-0.06292611951231956,-0.027756862181983886,0.04047163805477321
1772741620433592300,4.06459228515625,-0.017516367468237877,-0.049907063463330265,0.006667421999946236
1772741620443607300,4.074607177734375,-0.043314825591444964,-0.035303258973546324,-0.018894816214591263
1772741620453623300,4.084623291015625,-0.09694938514530659,-0.003937375981546938,-0.016752178162708877
1772741620463638300,4.09463818359375,-0.13404314426481723,0.02292809031866491,-0.036032559628784655
1772741620473654300,4.104654296875,-0.0962210708707571,0.054683228356577455,-0.025265812551230192
1772741620483670300,4.114670166015625,0.04236439299881458,0.050144817741960286,0.012149945064261555
1772741620493685200,4.124685302734375,0.18216507787704467,0.0422463926423341,0.0022718173895031214
1772741620503701200,4.134701171875,0.2877875988215208,0.001394632696174085,0.017608575796335936
1772741620513716200,4.14471630859375,0.340469972217083,0.008359905131533741,0.0570936139665544
1772741620523732200,4.154732177734375,0.31349545605182644,0.05934066224098205,0.06385806660018861
1772741620533747200,4.164747314453125,0.2617594235956669,0.05471435414720326,0.07657865115925669
1772741620543763200,4.17476318359375,0.2732996392637491,0.02981489069033414,0.05906937101893127
1772741620553778200,4.184778076171875,0.1650526150345802,0.04567826678715646,0.02340593696348369
1772741620563794400,4.19479443359375,0.13701076189875602,0.03369721201639622,-0.0030430940229445695
1772741620573809400,4.204809326171875,0.1768079347580671,-0.041944596684165295,0.003992942093685269
1772741620583825400,4.214825439453125,0.056415130183100695,-0.05094674524199217,0.0030537615474313497
1772741620593841400,4.22484130859375,-0.08495265788137912,0.04240677083581686,-0.03689962478689849
1772741620603856400,4.2348564453125,-0.09918225876390933,0.04275890874173492,-0.0258045956030488
1772741620613872400,4.244872314453125,-0.076731942024827,0.055425425026006996,-0.01706942741833627
1772741620623887400,4.254887451171875,0.03790916715562343,0.060300301053375,-0.03467566512711346
1772741620633903400,4.2649033203125,0.17290975827574728,-0.0014725933032110332,-0.03907704189121723
1772741620643918300,4.27491845703125,0.2782394337534904,-0.051617739838734265,-0.06556019434295594
1772741620653934300,4.284934326171875,0.27363749291598793,-0.09197795340828598,-0.0626496406584978
1772741620663949300,4.29494921875,0.21355331883132456,-0.03621500352360308,-0.03858955063521862
1772741620673965300,4.30496533203125,0.07535831558406353,0.01690605355016887,0.0021788784090429544
1772741620683980300,4.314980224609375,-0.05280687655806541,0.05269464835524559,0.020309139991924165
1772741620693996300,4.324996337890625,-0.2140127530366182,0.07601002095844596,-0.04314370680823922
1772741620704011300,4.33501123046875,-0.23665771556496618,0.003150755648501217,-0.0783515060506761
1772741620714027300,4.34502734375,-0.07334463767409324,-0.040591647705249485,-0.05672046980522573
1772741620724043300,4.355043212890625,0.08984276801049709,-0.020970563042722642,-0.060813657402992244
1772741620734058500,4.36505859375,0.26924714900255203,-0.014030388516001403,0.004130523933470249
1772741620744074200,4.37507421875,0.3788064248740673,-0.0072432125939056275,0.07810615298748017
1772741620754089500,4.38508935546875,0.29978783321678637,0.05168127006161958,0.12366086646020412
1772741620764105200,4.395105224609375,0.1649006393432617,0.08609495978429912,0.11494031132273376
1772741620774120400,4.405120361328125,0.03326630978584289,0.0547105547549203,0.055790495478734374
1772741620784136200,4.41513623046875,-0.0941127004146576,0.03550258093792945,0.005620031838864088
1772741620794151400,4.4251513671875,-0.20055705913603306,0.05123911578468978,0.013027604681625962
1772741620804167200,4.435167236328125,-0.1720510956197977,0.06181344556268304,-0.0023467823218554255
1772741620814182400,4.445182373046875,-0.0932628055870533,0.0554308683861047,-0.01838379795253277
1772741620824198100,4.4551982421875,-0.01570668769776821,0.02998495002761483,-0.006046659753099083
1772741620834213400,4.46521337890625,0.03021393647789955,0.05889690052885562,0.007629910356551408
1772741620844229000,4.47522900390625,0.09421440722346305,0.07244885787814855,0.014935045738145709
1772741620854245000,4.4852451171875,0.18212766847610473,0.03334028833750635,0.019437983180582524
1772741620864260000,4.495260009765625,0.23877836098074912,-0.034206367114931344,0.012964622448012232
1772741620874276000,4.505276123046875,0.1471761820822954,-0.04092475211713463,-0.028149405163526535
1772741620884291000,4.515291015625,0.04806172785758972,-0.034522812652960415,-0.07969890207163989
1772741620894307300,4.525307373046875,0.04077040180563926,-0.029224413983896372,-0.07677132418714464
1772741620904322300,4.535322265625,0.08275251748859881,-0.0348662923283875,-0.055528994998335836
1772741620914338300,4.54533837890625,0.06858662949204444,-0.03424089043904096,-0.03295439429245889
1772741620924353300,4.555353271484375,0.06066986501812935,-0.01838657443150878,-0.043200697692483664
1772741620934369300,4.565369384765625,0.06145312435030937,-0.021565204467624426,-0.05342142825983465
1772741620944384300,4.57538427734375,0.08901859214603901,-0.04540142260715365,-0.03453910620063543
1772741620954400300,4.585400146484375,0.1559428413838148,-0.014614545079506934,-0.0013347557350993156
1772741620964416300,4.595416259765625,0.18422376397252083,0.016136895808577537,0.05034055950976908
1772741620974431200,4.60543115234375,0.15500468375086784,0.04998206492830068,0.09053316142745316
1772741620984447200,4.615447265625,0.0730284113317728,0.05527147657331079,0.10269136286340654
1772741620994462200,4.625462158203125,0.048397243422269816,0.07440174551159143,0.11641418326757848
1772741621004478200,4.635478271484375,-0.005409750089049339,0.08484273123349993,0.12425232954733073
1772741621014493200,4.6454931640625,-0.0815419726550579,0.02755231605321169,0.0895573021326214
1772741621024509200,4.65550927734375,-0.09348317033946514,0.04666603571549058,0.057675578572973604
1772741621034524200,4.665524169921875,-0.07485679580271244,0.04396101454049348,0.05267440928481519
1772741621044540200,4.6755400390625,-0.008771335476636886,0.02766385013628751,-0.0022767127603292464
1772741621054555100,4.68555517578125,0.07283142745494842,0.02662029590010643,-0.02381619826480746
1772741621064571400,4.6955712890625,0.20205694230496882,0.013694617222994565,-0.01514211261756718
1772741621074586400,4.70558642578125,0.26223931606709955,0.0032746377564966678,-0.029173998970910903
1772741621084602400,4.715602294921875,0.2202314814209938,-0.02847991575952619,-0.05174143928363919
1772741621094618400,4.725618408203125,0.1225683950483799,-0.04442245803978294,-0.07677548890560865
1772741621104633300,4.73563330078125,0.060091772869229315,-0.03024411242045462,-0.08670951148606837
1772741621114649300,4.7456494140625,0.02645779881477356,-0.016721381165646015,-0.08481587975919246
1772741621124664300,4.755664306640625,0.035114568001031875,0.015787936240434647,-0.07702252246923744
1772741621134680300,4.765680419921875,-0.012386018842458725,-0.002105374781414866,-0.06239003987424075
1772741621144695300,4.7756953125,-0.027102526459097862,0.025836013654619454,-0.06015051731914282
1772741621154711300,4.785711181640625,-0.03782850313484668,0.04510507000908255,-0.07077982868738472
1772741621164726300,4.795726318359375,0.02350245614051819,0.0193250973906368,-0.028055662465468048
1772741621174742300,4.8057421875,0.1189730009049177,-0.00709828769788146,-0.01950001556612551
1772741621184757200,4.81575732421875,0.15369418567419052,-0.010700330777838826,-0.02353935408480465
1772741621194773200,4.825773193359375,0.1452630419373512,-0.006887019567377865,-0.005901406063511967
1772741621204788200,4.835788330078125,0.026973347121477125,0.012033807871304451,0.01951236359104514
1772741621214804200,4.84580419921875,-0.1128431198477745,0.0637506972355768,0.026796821510791775
1772741621224820500,4.855820556640625,-0.15935118852257726,0.053348801415041086,0.033065599581971764
1772741621234835500,4.86583544921875,-0.08808978686332702,0.008030600111931562,0.10140059240050613
1772741621244851500,4.8758515625,-0.01011222869157791,-0.003438267352990806,0.09476049679890275
1772741621254866400,4.885866455078125,0.08474047643542289,-0.039396410038694735,0.0805772192761302
1772741621264882400,4.89588232421875,0.1468926889657974,-0.0866118597978726,0.053257835195958614
1772741621274897400,4.9058974609375,0.15361761330664156,-0.08240220621358603,0.05686323927678168
1772741621284913400,4.915913330078125,0.09951368267536163,-0.05899988597929477,0.05301357811130583
1772741621294928400,4.925928466796875,-0.01730652410984039,0.024714206550456582,0.08037782424651085
1772741621304944400,4.9359443359375,-0.06669219404757022,0.1071055991090834,0.09243892198354005
1772741621314959400,4.94595947265625,-0.01557166314125061,0.0813400934074074,0.0807373052086681
1772741621324975400,4.955975341796875,0.09114742086827754,0.013122224162518977,0.07052110468596219
1772741621334990300,4.965990234375,0.09379238241910934,-0.025778109454922378,0.042467999503761525
1772741621345006300,4.97600634765625,0.09873334595263003,-0.021078663059696554,0.02058488819338381
1772741621355022000,4.98602197265625,0.10728080954551696,-0.012242317789141088,0.023465923522412776
1772741621365037300,4.996037353515625,0.0319371070086956,0.04344732939731329,0.04289572339653969
1772741621375053000,5.006052978515625,-0.0012456161469221114,0.08196383306263014,0.04022138962075114
1772741621385068300,5.016068359375,0.08981295739412307,0.0637142376827076,0.05235401822403073
1772741621395084300,5.026084228515625,0.16407821704447267,0.024343820601794866,0.01440444599278271
1772741621405099300,5.036099365234375,0.2418891864776611,-0.017248638176452367,-0.04844312839061021
1772741621415115300,5.046115234375,0.33406010517477985,-0.06344270899863913,-0.051435149813443416
1772741621425130200,5.056130126953125,0.323860198199749,-0.026035627879947423,-0.025338658591732382
1772741621435146200,5.066146240234375,0.14782909303307532,0.050465427998453376,0.001009542368724942
1772741621445161200,5.0761611328125,-0.011166706180572509,0.11897080894783138,-0.005554273126274347
1772741621455177200,5.08617724609375,-0.05479366646111011,0.10473346315026283,-0.01165865441597998
1772741621465192200,5.096192138671875,-0.05665127702653408,0.0651831777241081,-0.04162577652595937
1772741621475208200,5.106208251953125,-0.0318587810754776,0.043601716241426766,-0.05978526420332491
1772741621485223200,5.11622314453125,0.03501227667033672,0.004157156212069094,-0.08467888244129716
1772741621495239400,5.126239501953125,0.09410451710820197,-0.033928061630204315,-0.07006729650385678
1772741621505255400,5.13625537109375,0.09954641590118407,-0.015511420853994786,-0.03640475394204259
1772741621515270400,5.1462705078125,0.08925240090191364,0.04892104810066521,-0.02751702554412186
1772741621525286400,5.156286376953125,0.08814999261796475,0.06323971550613641,-0.02266118301078677
1772741621535301400,5.16630126953125,0.1427063431918621,0.018930325919389722,0.01661043160445988
1772741621545317400,5.1763173828125,0.20691490373015403,-0.044430677878856656,0.02733143984414637
1772741621555332400,5.186332275390625,0.2027501852661371,-0.07788575170245021,0.008534457980841398
1772741621565348400,5.196348388671875,0.12780395761430263,-0.06871705093868076,-0.0007255377955734729
1772741621575363300,5.20636328125,-0.039784313377737995,0.005416764351725578,-0.032677111721038814
1772741621585379300,5.21637939453125,-0.11400339579880236,0.0394265494486317,-0.05544160897582769
1772741621595394300,5.226394287109375,-0.18653671709001063,0.07382113261204212,-0.005356485531851649
1772741621605410300,5.236410400390625,-0.24911738416552542,0.1309813455414027,0.040287440594285726
1772741621615426300,5.24642626953125,-0.2191249814838171,0.14786895011942833,0.032741774455085394
1772741621625441300,5.256441162109375,-0.16961305481791494,0.04948923991005867,-0.006506386219337582
1772741621635457500,5.26645751953125,-0.11300210980176925,-0.02289747598469257,-0.06692782943435013
1772741621645472300,5.27647216796875,-0.001402268013358116,-0.04577544355131685,-0.05968984100483358
1772741621655488500,5.286488525390625,0.10493336963653564,-0.06239723680000752,-0.058282385359704494
1772741621665503500,5.29650341796875,0.18547347177267073,-0.054851935986988246,-0.04471870103999972
1772741621675519500,5.30651953125,0.25736907968223094,-0.055549562862329184,-0.011055135564878582
1772741621685534500,5.316534423828125,0.3196241680651903,-0.0347269021240063,0.007198533201962709
1772741621695550500,5.326550537109375,0.2664157249689102,-0.04412495466424152,0.03915741365104913
1772741621705565400,5.3365654296875,0.11334580867290496,-0.010719893994834273,0.03243577724583447
1772741621715581400,5.34658154296875,0.020527824243903158,-0.01126041234601289,-0.010904913439229131
1772741621725596400,5.356596435546875,0.004964344409108161,-0.044927484952472146,-0.03334580476284027
1772741621735612400,5.3666123046875,0.06731178725063801,-0.0630546412628144,0.0191981830753386
1772741621745627400,5.37662744140625,0.09299100290834904,-0.0023255020718090237,0.0532604655444622
1772741621755643400,5.386643310546875,0.1015063177973032,0.013101144841872156,0.06431640482693911
1772741621765659400,5.396659423828125,0.13718845655322073,-0.017865582764707504,0.11211970094405115
1772741621775674400,5.40667431640625,0.11867606378495693,-0.00736110335253179,0.08811375226080417
1772741621785690400,5.4166904296875,0.10938625739216803,0.02854006671523675,0.11141242945753037
1772741621795705300,5.426705322265625,0.17134674674272538,0.0664989730304107,0.15046017218902707
1772741621805721300,5.436721435546875,0.23503683636486528,0.07848072192091494,0.213167388253659
1772741621815736300,5.446736328125,0.17051029591858385,0.10533899129536002,0.21053740507625043
1772741621825752600,5.456752685546875,-0.013855506873130797,0.12065872550215571,0.12435622831322252
1772741621835767600,5.466767578125,-0.14399229134917257,0.07222633770126849,0.06150244338475167
1772741621845783600,5.476783447265625,-0.1471633226007223,0.017660086787864564,0.027661840842291712
1772741621855798500,5.486798583984375,-0.03665010700523853,0.006438179821334779,-0.016327596075087786
1772741621865814500,5.496814453125,0.077446227774024,-0.0012815642431378365,-0.0432617071647197
1772741621875829500,5.50682958984375,0.16394553057551384,-0.0018687530139461159,-0.06536123770475387
1772741621885845500,5.516845458984375,0.15307342342734337,0.03408964540008455,-0.036749914117902516
1772741621895860500,5.526860595703125,0.06318623175323008,0.08421663522440939,-0.035686303474381564
1772741621905876500,5.53687646484375,0.022731471768021583,0.04382986244149506,-0.03332600408382714
1772741621915892500,5.546892578125,0.019297405666112898,-0.003988265918567776,-0.05856617073714733
1772741621925907500,5.556907470703125,0.025201076751947403,-0.06977832349464297,-0.08115399625077843
1772741621935923500,5.56692333984375,0.051014732444286344,-0.09011928339693695,-0.11355448298752308
1772741621945938400,5.5769384765625,0.08248948263823985,-0.06664225395862013,-0.1351379537642002
1772741621955954400,5.586954345703125,0.08580430627465248,-0.06645451283417642,-0.12747238757237792
1772741621965969400,5.596969482421875,0.025181787529587746,-0.025841530079953372,-0.09485453175790608
1772741621975985400,5.6069853515625,-0.05924538517296314,0.059525261560268695,-0.07754574262574315
1772741621986000400,5.61700048828125,-0.14622867209911344,0.12734649617038665,-0.06459544096402824
1772741621996016400,5.627016357421875,-0.07971709531545638,0.14107706148959695,0.005158844067901373
1772741622006031600,5.637031494140625,0.01535071386694908,0.07530435690712184,0.05393807254508137
1772741622016047400,5.64704736328125,0.10142097760140895,-0.007889511140808462,0.06285685366839171
1772741622026062600,5.6570625,0.1296703360080719,-0.03904766966626048,0.014965294745936988
1772741622036078300,5.667078369140625,0.1220756430953741,-0.06463555377870797,0.003827303203195333
1772741622046093600,5.677093505859375,0.1595113475203514,-0.01894245474860072,0.03275865252465009
1772741622056109300,5.687109375,0.14339257189035415,0.03702485860176384,0.05235029189698398
1772741622066125300,5.697125244140625,0.10661094745993614,0.02105056947637349,-0.0011728431716561316
1772741622076140300,5.707140380859375,0.13750234480798243,-0.00041022476870566606,-0.033164529911801216
1772741622086156300,5.71715625,0.20565350549221037,0.004684175760857761,-0.011905249588191509
1772741622096171300,5.727171142578125,0.26179040325582026,-0.03244165899734944,-0.04009206415265798
1772741622106187300,5.737187255859375,0.25067630404531954,-0.06320986835714429,-0.06615363019146024
1772741622116202200,5.7472021484375,0.1941279028713703,-0.01442779033575207,-0.01817629268169403
1772741622126218200,5.75721826171875,0.0882516994267702,0.007376045193336903,-0.00806603675149381
1772741622136233200,5.767233154296875,0.059143678364157674,0.026455972183868286,-0.03252762024775147
1772741622146249200,5.777249267578125,0.05926701248288154,0.008615633458271621,-0.06699030021131039
1772741622156264200,5.78726416015625,0.052260933113098144,-0.007730557719431817,-0.09847915199585258
1772741622166280400,5.797280517578125,0.0397363825827837,-0.008885828701779246,-0.06846095728576183
1772741622176295200,5.807295166015625,0.08078735489547252,-0.0143523870119825,-0.0648320992641151
1772741622186311400,5.8173115234375,0.10337211166918277,0.008714636853337288,-0.009523030626773834
1772741622196326400,5.827326416015625,0.022058687072992324,0.07515548648834228,0.051846799354255194
1772741622206342400,5.83734228515625,-0.15921557944417,0.15426760164797304,0.059787163899466395
1772741622216358400,5.8473583984375,-0.265901345705986,0.1504516600890085,-0.013764175327867268
1772741622226373400,5.857373291015625,-0.15516484274864195,-0.022676928569190204,-0.051816550346463916
1772741622236389400,5.867389404296875,0.04081716355681419,-0.14700952027849853,-0.034922844821214674
1772741622246404400,5.877404296875,0.3356494201928377,-0.2190332480797544,-0.0021544015549123286
1772741622256420400,5.88742041015625,0.5511065268188715,-0.2276062114400789,0.049584626575931906
1772741622266435300,5.897435302734375,0.5630570768535137,-0.1513408640136942,0.11490209820419549
1772741622276451300,5.907451416015625,0.3561848432213068,0.01559800315890461,0.1517174057085067
1772741622286466300,5.91746630859375,0.02148410205543041,0.16203184244129806,0.1290811379432678
1772741622296482300,5.927482421875,-0.3168447664797306,0.26963757309224456,0.04666735088974237
1772741622306497300,5.937497314453125,-0.5180003760308027,0.2204678109275177,0.008178338019549846
1772741622316513300,5.94751318359375,-0.4459498698204756,0.09762556737381964,-0.010513137642666696
1772741622326528300,5.9575283203125,-0.19191724108457564,-0.01971084530521184,0.0019982611451297995
1772741622336544500,5.96754443359375,-0.01684825894832611,-0.07232760611865668,0.02500043961331248
1772741622346559200,5.977559326171875,0.07792845833301544,-0.08433649874441325,0.032353798050805925
1772741622356575500,5.987575439453125,0.13926760091483592,-0.07655453963130712,0.035315132074430586
1772741622366591500,5.997591552734375,0.10982055715620517,-0.048171179581433535,0.04560315572433173
1772741622376606500,6.0076064453125,0.07656886041760444,-0.035537506120838225,0.009951412106677889
1772741622386622500,6.01762255859375,0.10920622465014457,-0.07585260190702975,-0.014200447853282094
1772741622396637400,6.027637451171875,0.11150865637362002,-0.0779051870552823,-0.013191343875974416
1772741622406653400,6.0376533203125,0.03131926737129688,-0.07046188531201332,0.0034670185234397647
1772741622416668400,6.04766845703125,-0.10644026706814766,-0.020387064066343007,-0.014042334682121873
1772741622426684400,6.057684326171875,-0.21717735454738138,0.09301091318521648,0.03786839675381779
1772741622436699400,6.067699462890625,-0.16223989570140837,0.1181088218236342,0.07888407855741679
1772741622446715400,6.07771533203125,-0.017011925077438355,0.06238949188496917,0.1071270802885294
1772741622456730400,6.08773046875,0.1421791044473648,0.022394166105054316,0.0815223911717534
1772741622466746400,6.097746337890625,0.25253917530775066,0.009217289145849645,0.08204436921924352
1772741622476761300,6.10776123046875,0.24960955159664153,0.057053829945437604,0.10022292692326008
1772741622486777300,6.11777734375,0.10848083298504352,0.11865560551881789,0.12361834249272942
1772741622496792300,6.127792236328125,-0.09419219539165496,0.10436521435976027,0.10602854446209967
1772741622506808300,6.137808349609375,-0.21802958746254442,0.06111278648003936,0.03150149207040667
1772741622516823300,6.1478232421875,-0.3155418671876192,0.07377528417631983,0.049279140823334455
1772741622526839600,6.157839599609375,-0.4745663079738617,0.11455302903819829,0.14673092253282666
1772741622536854500,6.1678544921875,-0.532379029995203,0.12319178764373064,0.12565328238643705
1772741622546870500,6.17787060546875,-0.363155851277709,-0.01645516797751188,-0.019573957585170863
1772741622556886500,6.187886474609375,-0.12349427772164344,-0.19480963805783538,-0.11808986139483749
1772741622566901500,6.197901611328125,0.19329379013478754,-0.2696977605805732,-0.09908340149931609
1772741622576917500,6.20791748046875,0.5654547856450081,-0.2775203256987035,-0.016129735415428875
1772741622586932500,6.217932373046875,0.7644394808977842,-0.20309620395852251,0.12421733129918575
1772741622596948500,6.227948486328125,0.7588280707567929,-0.03730016841180622,0.20431809216998517
1772741622606963500,6.23796337890625,0.551599863293767,0.09128914916021749,0.20402714639939368
1772741622616979500,6.2479794921875,0.32762919534444807,0.16037139841578898,0.1397946204636246
1772741622626994400,6.257994384765625,0.21785890707075595,0.08248597550690173,0.02787920992001891
1772741622637010400,6.268010498046875,0.17442717710137368,0.013700736436527222,-0.0419797045301646
1772741622647025400,6.278025390625,0.2773041987299919,-0.07269702395293862,-0.08513736679852009
1772741622657041400,6.28804150390625,0.36279461674988267,-0.061788749512843785,-0.1306513098694384
1772741622667056400,6.298056396484375,0.48278000956773753,-0.08724453167822212,-0.14677293504364788
1772741622677072400,6.308072265625,0.5219511594831944,-0.17032629938749597,-0.143909946827963
1772741622687087400,6.31808740234375,0.46529637532532214,-0.11013188812769949,-0.17422325202710925
1772741622697103600,6.328103515625,0.16954700384438037,-0.0007353650698438286,-0.2478364775095135
1772741622707118600,6.33811865234375,-0.23288462676703928,0.24725915254559366,-0.2761915613129735
1772741622717134600,6.348134521484375,-0.4290349753767252,0.3493525495158508,-0.2047179051425308
1772741622727150300,6.358150390625,-0.48690614958703515,0.24685718414857982,-0.13354023624397812
1772741622737165600,6.36816552734375,-0.4055687595933676,0.18015742784906177,-0.0896011412743479
1772741622747181300,6.378181396484375,-0.37232466163933275,0.14717534183207898,-0.0400537049036473
1772741622757196500,6.388196533203125,-0.354000484919548,0.14704930429961532,0.024630364191904664
1772741622767212300,6.39821240234375,-0.2464431965202093,0.016857867026887834,0.0385901351571083
1772741622777227500,6.4082275390625,0.015205167916417121,-0.10601922864448278,0.043224005502834915
1772741622787243300,6.4182431640625,0.3629366555690765,-0.13890004624407737,0.009625833414122462
1772741622797258500,6.428258544921875,0.5848451302915811,-0.14272314819619059,0.05905190842747688
1772741622807274200,6.438274169921875,0.7021680259019136,-0.12807955968528986,0.12478753240257501
1772741622817289500,6.44828955078125,0.5766343513071537,-0.06933810544647276,0.1531573753837496
1772741622827305200,6.45830517578125,0.32522096515893933,-0.024300072791613638,0.10147117341868579
1772741622837320400,6.468320556640625,0.15400105966627597,-0.002789703783765435,0.08093005130179226
1772741622847336200,6.478336181640625,-0.09364391385912894,0.10417743670269847,0.06865757583640515
1772741622857351400,6.488351318359375,-0.24480595070719718,0.15621581310629845,0.029818726615235207
1772741622867367400,6.498367431640625,-0.3102782475709915,0.12881656872294842,0.03654335869513452
1772741622877382400,6.50838232421875,-0.37997020795643327,0.10828750237002968,0.05802599944584071
1772741622887398400,6.5183984375,-0.40010932514369485,0.09357252912335097,0.036513548078760505
1772741622897414400,6.528414306640625,-0.38440614457726474,0.015584047698788343,0.01853606590479612
1772741622907429400,6.538429443359375,-0.2905751837134361,0.0022614421259611844,0.018803630799800155
1772741622917445400,6.5484453125,-0.14104980815649032,0.003900806830823421,0.05819485320672393
1772741622927460400,6.55846044921875,-0.0047369653940200806,0.024264015097543595,0.09396795818172395
1772741622937476400,6.568476318359375,0.10920447108447551,-0.020518289230577646,0.05002097216658294
1772741622947491300,6.5784912109375,0.24692016638219355,-0.09322941477410494,0.04240793987959623
1772741622957507300,6.58850732421875,0.2308189264088869,-0.05028682002853602,0.05780395419299602
1772741622967522300,6.598522216796875,0.12489128503799438,0.08549107560701667,0.10914382693842052
1772741622977538300,6.608538330078125,-0.035734745725989336,0.13127083000726997,0.08033003958202899
1772741622987553300,6.61855322265625,-0.06450082148313523,0.06268781724441796,0.047837929039075966
1772741622997569300,6.6285693359375,0.06516483834981918,-0.018218907980713992,0.03502133675962686
1772741623007584300,6.638584228515625,0.22208558485507965,-0.059973918643221255,-0.000277501767128706
1772741623017600300,6.648600341796875,0.226195358261466,-0.07919553739307447,-0.03584675473310053
1772741623027615200,6.658615234375,0.09370061248242854,-0.0006432115406729281,-0.06970102047473192
1772741623037631500,6.668631591796875,0.003170446729660034,0.10958477563895284,-0.040870720374956725
1772741623047646200,6.678646240234375,0.03361526935398578,0.12874958616765214,0.02738061274811625
1772741623057662500,6.688662353515625,0.12197685889601707,0.08793284273594618,0.08117489290833473
1772741623067677400,6.698677490234375,0.22355624192953108,0.03169737996868789,0.02208499055802822
1772741623077693400,6.708693359375,0.3701648532569408,-0.04569379314985126,-0.0076464230999350544
1772741623087708400,6.71870849609375,0.4916711720317602,-0.05475981899043545,-0.01969867994338274
1772741623097724400,6.728724365234375,0.5638683932363987,-0.03742057992108166,-0.01384593532718718
1772741623107740400,6.738740478515625,0.5590110163331031,0.009597776363417505,-0.05368314793594181
1772741623117755400,6.74875537109375,0.4999216985046863,0.012287983561772853,-0.04371288499832153
1772741623127771400,6.758771484375,0.277561388361454,0.04420589267965406,-0.0839432616431266
1772741623137786400,6.768786376953125,0.036621465432643885,0.1211056290194392,-0.06818002145253121
1772741623147802400,6.77880224609375,0.03317921602427959,0.08588263220787049,-0.018790113731101152
1772741623157817300,6.7888173828125,0.007400047123432159,0.05979655278231948,0.018106734576821326
1772741623167833300,6.798833251953125,-0.11997837855517864,0.05418565409798175,0.06277670110426843
1772741623177848300,6.808848388671875,-0.2937637506216764,0.065355392485857,-0.0034771015260368584
1772741623187864300,6.8188642578125,-0.5351438185334205,-0.0015326529273763298,-0.07489807766117156
1772741623197879300,6.82887939453125,-0.6455547427982091,0.028428222104907034,-0.08023520090542734
1772741623207895300,6.838895263671875,-0.5248907200664281,0.02772664970681071,-0.040056116056442256
1772741623217910300,6.84891015625,-0.3067120795220136,0.015474157583527265,0.017176321858912706
1772741623227926500,6.858926513671875,-0.041542555221915245,-0.0033394466210156675,0.07041048391833901
1772741623237941500,6.86894140625,0.22398411195278167,-0.07078691601529717,0.11547419900372624
1772741623247957500,6.87895751953125,0.3313619521319866,-0.13713924711663275,0.12839673587568104
1772741623257972500,6.888972412109375,0.39502866087853905,-0.09502397004067897,0.14993841333724559
1772741623267988500,6.898988525390625,0.3607838614493608,-0.004839731648750603,0.16623714864403008
1772741623278003500,6.90900341796875,0.26563714181184767,0.037881365833245216,0.12624518386498093
1772741623288019500,6.91901953125,0.15997370433509348,0.06115333768613636,0.0475026326701045
1772741623298035500,6.929035400390625,0.09040741615593433,0.06133304163459688,-0.009350158277899026
1772741623308050400,6.939050537109375,-0.006668225717544555,0.03397635775133967,-0.04269713208451867
1772741623318066400,6.94906640625,-0.07468143923580646,0.051601519356295464,-0.05236746222749352
1772741623328081400,6.959081298828125,-0.05062076469063759,0.039793738793209195,-0.056357116385549307
1772741623338097400,6.969097412109375,0.03033025633394718,0.01876961893234402,-0.04023293392807245
1772741623348112400,6.9791123046875,0.043804654935002324,0.08047744869608432,-0.020466449445486066
1772741623358128400,6.98912841796875,0.08437865738570689,0.09785327518247067,-0.04729680789969861
1772741623368143400,6.999143310546875,0.22370237240195273,0.037489188177883624,-0.06413534917160868
1772741623378159400,7.009159423828125,0.29640637408494946,0.008921119210869074,-0.060626610398292535
1772741623388174300,7.01917431640625,0.35262627395689483,-0.00856700854357332,-0.03627404023446142
1772741623398190600,7.029190673828125,0.2753571563154459,-0.05097198928110301,-0.0190435770355165
1772741623408205600,7.03920556640625,0.14337386718988418,-0.010984919872879981,0.0023725012850016355
1772741623418221600,7.0492216796875,0.005721884778141975,0.011924246549606322,-0.021595161214470863
1772741623428236500,7.059236572265625,-0.09933949515223503,-0.04272033029701561,-0.11565474320240318
1772741623438252500,7.06925244140625,-0.13696224658191203,-0.06386972050536424,-0.12058277418911456
1772741623448267500,7.079267578125,-0.28856501293480397,-0.010798603520542382,-0.09830269945040344
1772741623458283500,7.089283447265625,-0.4393564629048109,0.02010656662452966,-0.07664375228472053
1772741623468298500,7.099298583984375,-0.27505905015170573,-0.001733728457428515,0.04462313171103596
1772741623478314500,7.109314453125,-0.1603822851359844,-0.009691993985511361,0.1167660654451698
1772741623488329500,7.11932958984375,-0.11256079577505587,-0.031651093141548334,0.11339235122837125
1772741623498345500,7.129345458984375,0.06854103678464889,-0.04879888302572071,0.11837379290275275
1772741623508360400,7.1393603515625,0.23583704683184623,-0.08345255551673471,0.10861826869435608
1772741623518376400,7.14937646484375,0.3813666307508945,-0.1557903177032247,0.08437726914621889
1772741623528392200,7.15939208984375,0.468109094658494,-0.12646529288906602,0.06283062324859201
1772741623538407400,7.169407470703125,0.43728491732776165,-0.026520415722206234,0.1180270983569324
1772741623548423200,7.179423095703125,0.3342711175769567,0.12604798079244792,0.15470657758712766
1772741623558438400,7.1894384765625,0.06554653114378452,0.2107019845208153,0.14525354345664382
1772741623568454400,7.199454345703125,-0.05178220968544483,0.1161031080244109,0.06202800162881612
1772741623578469600,7.2094697265625,-0.053073418539762496,-0.029629012729413807,0.01764569293633103
1772741623588485400,7.2194853515625,-0.18793547797203064,-0.02470595017876476,0.006238309867680073
1772741623598500600,7.22950048828125,-0.28574235672950743,0.061180883280187844,-0.04947166772074997
1772741623608516400,7.239516357421875,-0.1544143166422844,0.06115669868700206,-0.07901566904783248
1772741623618531600,7.249531494140625,0.07707856350541115,-0.007427263923920691,-0.06653758800774812
1772741623628547300,7.25954736328125,0.22354747410118578,-0.03297295286245644,-0.049654184680804604
1772741623638562600,7.2695625,0.26840426843762394,-0.04783222995065153,-0.048174175256118175
1772741623648578300,7.279578369140625,0.21857845351696012,-0.04556527139935642,-0.05857734971828758
1772741623658593500,7.289593505859375,0.20681319692134856,-0.00838197083286941,-0.07656316132918
1772741623668609300,7.299609375,0.14981120676100254,0.010273922059312462,-0.05338358046747744
1772741623678624500,7.30962451171875,0.061900868117809295,0.08511661627143621,-0.03593888999596238
1772741623688640300,7.31964013671875,0.0415489849627018,0.08606551449410617,-0.011011223357915878
1772741623698655500,7.329655517578125,0.03921148192584514,0.08466255236100405,-0.004167056551575661
1772741623708671200,7.339671142578125,0.03212415401339531,0.03478833172135055,-0.0065425535112619395
1772741623718686500,7.3496865234375,0.0189531222730875,-0.01272084028739482,0.0011802227605134249
1772741623728702200,7.3597021484375,0.0017827917635440825,0.007328735452890396,0.03608984277397394
1772741623738717400,7.369717529296875,-0.052827334824204444,0.057905916730128223,0.05038600608669221
1772741623748733200,7.379733154296875,-0.05003332019150257,0.11187405561991036,0.09177205557264387
1772741623758749400,7.38974951171875,0.0015729484051465988,0.09328326385319233,0.11613258984722197
1772741623768764400,7.399764404296875,0.08775368677675724,0.008711568113416434,0.10560140509121119
1772741623778780400,7.409780517578125,0.1519125629544258,-0.09720171593856065,0.07755604482404888
1772741623788795400,7.41979541015625,0.21596213353872298,-0.11873075311426072,0.10065459633879363
1772741623798811400,7.429811279296875,0.19527765742838382,-0.10754778991863131,0.11286087470017372
1772741623808826400,7.439826416015625,0.13227847267985343,-0.04976907976474613,0.1428331113766879
1772741623818842400,7.44984228515625,0.04636076915860176,0.0668567734921351,0.18492862430624663
1772741623828857300,7.459857421875,-0.0644628275603056,0.10672259114086627,0.18653788613379
1772741623838873300,7.469873291015625,-0.139133160880208,0.0687577848078683,0.0734091542776674
1772741623848888300,7.479888427734375,-0.15674714350402355,0.03623984570391476,0.04313618108890951
1772741623858904300,7.489904296875,-0.15863456468582152,0.043417920639738435,0.013597367393597959
1772741623868919300,7.499919189453125,-0.12737667211294174,0.030962453290261326,-0.04170702506862581
1772741623878935300,7.509935302734375,-0.09863105462193489,0.05456928312070668,-0.046934112067148086
1772741623888950300,7.5199501953125,-0.07305705290436744,0.05991356675811112,-0.06334339507631957
1772741623898966300,7.52996630859375,0.0016617957323789595,-0.015124576960876584,-0.09330313759744167
1772741623908981200,7.539981201171875,-0.007400631645321846,-0.08732289414405822,-0.15812793033793568
1772741623918997200,7.549997314453125,0.013226561319828033,-0.08793335419259965,-0.13250358667261897
1772741623929012200,7.56001220703125,0.1342670161485672,-0.0010263473730534314,-0.09302030206806958
1772741623939028500,7.570028564453125,0.2846457936644554,0.02628653390109539,-0.0476045586746186
1772741623949043500,7.58004345703125,0.5026555073827504,-0.018538805851154028,-0.02721965003274381
1772741623959059500,7.5900595703125,0.6290992825597524,-0.0666913537973538,-0.03715433020032942
1772741623969074400,7.600074462890625,0.7092384026795625,-0.10064177338983862,-0.06474690519869328
1772741623979090400,7.61009033203125,0.6523878036886454,-0.09146854258142412,-0.02800627036578953
1772741623989105400,7.62010546875,0.35562019507586956,0.06780877698734403,-0.04707739299535751
1772741623999121400,7.630121337890625,0.13765841215252875,0.1382270788859576,-0.06150039755813777
1772741624009136400,7.640136474609375,-0.1093617074728012,0.12249912920445204,-0.11560235542804002
1772741624019152400,7.65015234375,-0.2871072153419256,0.08695515681020916,-0.11640848417915403
1772741624029168400,7.66016845703125,-0.2901876457005739,0.05915284805130213,-0.11073365341313182
1772741624039183400,7.670183349609375,-0.20460136609077453,0.008025887404195964,-0.054202641765400766
1772741624049199400,7.680199462890625,-0.08177578141093253,-0.03213504073359072,0.006284194836020469
1772741624059214300,7.69021435546875,-0.012491232782602309,-0.018315262760967014,0.025882848471030593
1772741624069230300,7.700230224609375,0.017526304340362547,-0.059077663923241194,0.061903936857730144
1772741624079245300,7.710245361328125,-0.019193945291638374,-0.08982651099544017,0.09245762668401003
1772741624089261300,7.72026123046875,-0.01885550711750984,-0.041270094956085086,0.10312873136736452
1772741624099276300,7.7302763671875,0.0741477707505226,-0.01684069669637829,0.11681297332681714
1772741624109292500,7.74029248046875,0.10818038873374461,0.01810918226223439,0.1831624183513224
1772741624119307300,7.750307373046875,0.09246785581707954,0.04864073332194239,0.1758533374469727
1772741624129323500,7.760323486328125,-0.0036626141607761383,0.059845908349379896,0.13207162499614059
1772741624139338500,7.77033837890625,-0.06613163755536079,0.07691391099561005,0.08745499609112739
1772741624149354500,7.7803544921875,-0.020761632999777794,0.03731507371999323,0.06819938374012709
1772741624159369500,7.790369384765625,0.019556933385133743,-0.0226438300171867,0.019093699787557122
1772741624169385500,7.800385498046875,0.14473346510529517,-0.014511048172414302,0.016491846726089714
1772741624179400400,7.810400390625,0.22143968816697596,-0.011388349574618041,0.03670417528003454
1772741624189416400,7.82041650390625,0.07967676330506801,0.041018640945665534,0.025456074426323173
1772741624199431400,7.830431396484375,0.0029459903240203855,0.09805873462669551,-0.038920682285726066
1772741624209447400,7.840447509765625,0.0350438408523798,-0.03789725752212107,-0.09522760285399853
1772741624219462400,7.85046240234375,0.20444003804922103,-0.1295502167597413,-0.11553973852060735
1772741624229478400,7.860478515625,0.34431729529500005,-0.10919584938660264,-0.04714205572940409
1772741624239493400,7.870493408203125,0.26640345000922677,-0.0702712946433574,-0.010277209994941949
1772741624249509400,7.88050927734375,0.025751696372032163,0.06777710320744663,-0.028000717407837508
1772741624259524400,7.8905244140625,-0.15695581781864165,0.13896149410773068,-0.060416255583241575
1772741624269540400,7.900540283203125,-0.1728220799922943,0.10803100685831159,-0.056560822264105075
1772741624279555300,7.910555419921875,-0.05286883587837219,0.04990264301653951,-0.036571561876311894
1772741624289571300,7.9205712890625,0.033228315863013266,0.010135901828110217,0.021181904238462446
1772741624299586300,7.93058642578125,0.02126315278112888,0.02470784987490624,0.06720189713537693
1772741624309602600,7.9406025390625,-0.04474105900228023,0.06658866060785949,0.1158162173744291
1772741624319617500,7.950617431640625,-0.19452011705935,0.11513590696007013,0.056606926428154104
1772741624329633500,7.960633544921875,-0.1231084932744503,0.11269958319123834,0.02642791513316333
1772741624339649500,7.9706494140625,0.012321136912703513,0.04925210668593645,0.041600422888994217
1772741624349664500,7.98066455078125,0.1345072546452284,-0.03315057445168495,-0.001778480914607644
1772741624359680500,7.990680419921875,0.2343079375684261,-0.043872313343733545,0.021930822909623383
1772741624369695500,8.000695556640625,0.2192120752453804,0.011220628324896096,0.03595408756509423
1772741624379711500,8.01071142578125,0.1839274113744497,0.05338095011897385,0.0061635641310364
1772741624389726500,8.0207265625,0.24136896199584007,0.005715783830918372,-0.026210253794491288
