time,seconds_elapsed,z,y,x
1772741616437388000,0.068387939453125,0.007907411083579063,-0.11098194867372513,-0.03781596198678017
1772741616447403000,0.078403076171875,0.00842486321926117,-0.04251899942755699,0.02366843819618225
1772741616457419000,0.0884189453125,-0.0002780770882964134,0.05456479638814926,0.10083919763565063
1772741616467434000,0.09843408203125,-0.00549228023737669,0.1389302760362625,0.17939019203186035
1772741616477450000,0.108449951171875,-0.0014319426845759153,0.2013915628194809,0.2351280301809311
1772741616487465000,0.11846484375,0.010060396045446396,0.21065163612365723,0.2672334909439087
1772741616497481000,0.12848095703125,0.02012104168534279,0.20829808712005615,0.29037439823150635
1772741616507496000,0.138495849609375,0.029412012547254562,0.20050087571144104,0.30995500087738037
1772741616517512000,0.148511962890625,0.03483336791396141,0.19620931148529053,0.32047170400619507
1772741616527528000,0.15852783203125,0.03602246940135956,0.1839158982038498,0.3111701011657715
1772741616537543000,0.16854296875,0.03347921371459961,0.14530861377716064,0.27971792221069336
1772741616547559000,0.178558837890625,0.02607828564941883,0.09934458136558533,0.2567604184150696
1772741616557574000,0.188573974609375,0.026284005492925644,0.06465030461549759,0.2567112147808075
1772741616567590000,0.19858984375,0.025929538533091545,0.04394662752747536,0.2737772762775421
1772741616577605000,0.208605224609375,0.02905760332942009,0.0565691776573658,0.3084087371826172
1772741616587620900,0.218620849609375,0.04182453081011772,0.07930432260036469,0.34835776686668396
1772741616597636900,0.228636962890625,0.05854594707489014,0.08700015395879745,0.356272429227829
1772741616607651800,0.23865185546875,0.07960595935583115,0.0906100645661354,0.32701146602630615
1772741616617667800,0.248667724609375,0.0879010483622551,0.06413392722606659,0.25810691714286804
1772741616627682800,0.258682861328125,0.07321903854608536,0.0016689511248841882,0.16446352005004883
1772741616637698800,0.26869873046875,0.046609535813331604,-0.06934862583875656,0.0786271020770073
1772741616647713800,0.2787138671875,0.021044788882136345,-0.12383556365966797,0.02196781523525715
1772741616657729800,0.288729736328125,0.020241741091012955,-0.12487997114658356,0.0057319640181958675
1772741616667744800,0.298744873046875,0.03182542696595192,-0.09713089466094971,0.0096135213971138
1772741616677760800,0.3087607421875,0.0338977575302124,-0.0683605894446373,0.0078061590902507305
1772741616687775700,0.318775634765625,0.031256433576345444,-0.02629569172859192,0.006590959150344133
1772741616697791700,0.328791748046875,0.028332939371466637,0.018277304247021675,0.0024172314442694187
1772741616707807700,0.338807861328125,0.01571887545287609,0.0413418747484684,-0.011104969307780266
1772741616717822700,0.34882275390625,-0.004053824581205845,0.05457228794693947,-0.027725443243980408
1772741616727839000,0.3588388671875,-0.02270127832889557,0.07091131061315536,-0.040345899760723114
1772741616737854000,0.36885400390625,-0.036629773676395416,0.0854378491640091,-0.040257129818201065
1772741616747870000,0.378869873046875,-0.04780173301696777,0.10965637117624283,-0.027913913130760193
1772741616757885000,0.388885009765625,-0.05397520586848259,0.13051451742649078,-0.008650735020637512
1772741616767901000,0.39890087890625,-0.050757575780153275,0.1284439116716385,0.005914891138672829
1772741616777917000,0.4089169921875,-0.014329980127513409,0.12053476274013519,0.018036723136901855
1772741616787932000,0.418931884765625,0.021342262625694275,0.106651172041893,0.014257164672017097
1772741616797948000,0.428947998046875,0.026935577392578125,0.07696124911308289,-0.0047687022015452385
1772741616807963000,0.438962890625,0.0196294616907835,0.0667397677898407,-0.026481453329324722
1772741616817979000,0.448978759765625,0.004173744935542345,0.056107066571712494,-0.05454001575708389
1772741616827993900,0.458993896484375,-0.005933749955147505,0.0355575829744339,-0.08705747872591019
1772741616838009900,0.469009765625,-0.009682375937700272,0.01778087019920349,-0.1111789271235466
1772741616848024800,0.47902490234375,-0.008657857775688171,0.009330926463007927,-0.10950405895709991
1772741616858040800,0.489040771484375,-0.013370852917432785,0.017724284902215004,-0.08895944803953171
1772741616868057000,0.49905712890625,-0.025642964988946915,0.051784250885248184,-0.04733157902956009
1772741616878071800,0.50907177734375,-0.030727656558156013,0.09221920371055603,-0.00477727223187685
1772741616888088000,0.519088134765625,-0.02445724420249462,0.11644437909126282,0.015723207965493202
1772741616898103000,0.52910302734375,-0.006073914933949709,0.12237779051065445,-0.0003006639308296144
1772741616908119000,0.539119140625,0.0039206622168421745,0.09879229962825775,-0.03801288828253746
1772741616918134000,0.549134033203125,-0.0009483841713517904,0.0649212896823883,-0.07399401068687439
1772741616928150000,0.55914990234375,-0.012846322730183601,0.04442454129457474,-0.09907779097557068
1772741616938165000,0.5691650390625,-0.020819058641791344,0.03457136079668999,-0.11912734061479568
1772741616948181000,0.579180908203125,-0.02387024275958538,0.03192631155252457,-0.1394997239112854
1772741616958197000,0.589197021484375,-0.025944005697965622,0.027045167982578278,-0.16380135715007782
1772741616968212000,0.5992119140625,-0.02766360715031624,0.019990988075733185,-0.18740148842334747
1772741616978228000,0.60922802734375,-0.027891168370842934,0.030713330954313278,-0.1996316909790039
1772741616988243000,0.619242919921875,-0.034939490258693695,0.03781677782535553,-0.2133917212486267
1772741616998259000,0.629259033203125,-0.04415888339281082,0.03997257724404335,-0.22248563170433044
1772741617008274000,0.63927392578125,-0.04900370538234711,0.03264542296528816,-0.2313568890094757
1772741617018290000,0.6492900390625,-0.04523411765694618,0.031222311779856682,-0.22264768183231354
1772741617028305000,0.659304931640625,-0.0395091213285923,0.02790667675435543,-0.20255732536315918
1772741617038321000,0.66932080078125,-0.03565022349357605,0.02380925603210926,-0.17277349531650543
1772741617048337000,0.6793369140625,-0.03666089102625847,0.02868710085749626,-0.12827074527740479
1772741617058351900,0.689351806640625,-0.04608055576682091,0.04436922073364258,-0.0764562338590622
1772741617068368000,0.699367919921875,-0.05255603417754173,0.0513770654797554,-0.028072722256183624
1772741617078382800,0.7093828125,-0.05754091963171959,0.05567928031086922,0.007208197843283415
1772741617088398800,0.71939892578125,-0.06039023399353027,0.03970750421285629,0.026776572689414024
1772741617098413800,0.729413818359375,-0.0601891428232193,0.02932625636458397,0.049321115016937256
1772741617108429800,0.739429931640625,-0.059983283281326294,0.02908257767558098,0.07863613218069077
1772741617118444800,0.74944482421875,-0.05755310133099556,0.02808164618909359,0.10912971943616867
1772741617128460800,0.759460693359375,-0.05485532060265541,0.029382599517703056,0.13489127159118652
1772741617138475800,0.769475830078125,-0.04825345054268837,0.021048855036497116,0.14405293762683868
1772741617148491800,0.77949169921875,-0.04235827550292015,0.002696479670703411,0.14207394421100616
1772741617158507800,0.7895078125,-0.034842997789382935,-0.024069439619779587,0.1268778294324875
1772741617168522800,0.799522705078125,-0.02634511888027191,-0.060170188546180725,0.1020294651389122
1772741617178538800,0.809538818359375,-0.019475657492876053,-0.07997418940067291,0.08299168199300766
1772741617188553700,0.8195537109375,-0.01759280264377594,-0.07264330983161926,0.07631247490644455
1772741617198570000,0.829570068359375,-0.0165777076035738,-0.06256676465272903,0.06549009680747986
1772741617208584700,0.839584716796875,-0.006771150045096874,-0.06566108763217926,0.04668445140123367
1772741617218601000,0.84960107421875,0.0031569856218993664,-0.06606756895780563,0.027756134048104286
1772741617228616000,0.859615966796875,0.01279496494680643,-0.057327866554260254,0.013820611871778965
1772741617238632000,0.8696318359375,0.015469050034880638,-0.04325517639517784,0.007601445075124502
1772741617248648000,0.87964794921875,0.017499178647994995,-0.022424466907978058,0.011763167567551136
1772741617258663000,0.889662841796875,0.018802734091877937,0.006031646393239498,0.03083004057407379
1772741617268679000,0.899678955078125,0.023536236956715584,0.03092714212834835,0.05126234516501427
1772741617278694000,0.90969384765625,0.02230786345899105,0.02842584252357483,0.05474304407835007
1772741617288710000,0.9197099609375,0.020477740094065666,0.015778489410877228,0.05086761340498924
1772741617298724900,0.929724853515625,0.020608682185411453,0.001852520159445703,0.04290290176868439
1772741617308740900,0.939740966796875,0.014666903764009476,-0.004771559964865446,0.04261315241456032
1772741617318755800,0.949755859375,0.00895262323319912,-0.020641449838876724,0.03709571436047554
1772741617328771800,0.959771728515625,0.0021610306575894356,-0.0436658076941967,0.029943527653813362
1772741617338787800,0.969787841796875,0.0029240264557302,-0.043565139174461365,0.03551352769136429
1772741617348802800,0.979802734375,0.0019011059775948524,-0.0265645869076252,0.042471036314964294
1772741617358819000,0.989819091796875,0.004797188099473715,-0.011703543365001678,0.039942629635334015
1772741617368833800,0.999833740234375,0.004509034100919962,-0.003808602225035429,0.02318708226084709
1772741617378850000,1.00985009765625,0.007991548627614975,-0.0018337832298129797,-0.006616777740418911
1772741617388865000,1.019864990234375,0.01006988063454628,-0.007565438747406006,-0.03442470729351044
1772741617398881000,1.029881103515625,0.011897014454007149,-0.00987562071532011,-0.049647439271211624
1772741617408896000,1.03989599609375,0.008816536515951157,-0.012316142208874226,-0.0561295710504055
1772741617418912000,1.049912109375,-0.0008348408155143261,-0.016511594876646996,-0.05856921523809433
1772741617428928300,1.05992822265625,-0.005685522221028805,-0.051707666367292404,-0.0687563419342041
1772741617438943500,1.069943603515625,-0.007526914589107037,-0.06421244889497757,-0.07700273394584656
1772741617448959200,1.079959228515625,-0.012583192437887192,-0.0503176711499691,-0.0676790103316307
1772741617458974500,1.089974365234375,-0.010591352358460426,-0.04564832150936127,-0.05949349328875542
1772741617468990200,1.099990234375,0.011662287637591362,-0.013159086927771568,-0.03981539607048035
1772741617479005400,1.11000537109375,0.03511590510606766,0.02461915835738182,-0.016840893775224686
1772741617489021200,1.120021240234375,0.05355510115623474,0.03609152510762215,-0.0020779259502887726
1772741617499036400,1.130036376953125,0.07067857682704926,0.027985334396362305,0.00263528386130929
1772741617509052400,1.140052490234375,0.09505502134561539,0.010533107444643974,-0.009090081788599491
1772741617519067400,1.1500673828125,0.1179221048951149,-0.006906541995704174,-0.027234677225351334
1772741617529083400,1.16008349609375,0.13324406743049622,-0.02628157287836075,-0.042532939463853836
1772741617539099400,1.170099365234375,0.13661792874336243,-0.03220994770526886,-0.05097052454948425
1772741617549114400,1.1801142578125,0.12507446110248566,-0.018286144360899925,-0.04066382348537445
1772741617559130400,1.19013037109375,0.10446113348007202,0.019890978932380676,-0.006864395923912525
1772741617569145300,1.200145263671875,0.08320511877536774,0.05372563749551773,0.029505329206585884
1772741617579161300,1.210161376953125,0.07509849220514297,0.06403075158596039,0.04690370336174965
1772741617589176300,1.22017626953125,0.0713716670870781,0.021234821528196335,0.027094844728708267
1772741617599192300,1.2301923828125,0.07007667422294617,-0.029857996851205826,-0.02173926681280136
1772741617609207300,1.240207275390625,0.05433100461959839,-0.05718762055039406,-0.06790489703416824
1772741617619223300,1.250223388671875,0.03674861043691635,-0.08382532745599747,-0.10470256954431534
1772741617629239300,1.2602392578125,0.009857074357569218,-0.08341626822948456,-0.11684605479240417
1772741617639254300,1.270254150390625,-0.01646813005208969,-0.06286870688199997,-0.11366096138954163
1772741617649270300,1.280270263671875,-0.018301982432603836,-0.048585906624794006,-0.1053985059261322
1772741617659285200,1.29028515625,-0.0002625696361064911,-0.02212982438504696,-0.10249145328998566
1772741617669301500,1.300301513671875,0.012009542435407639,0.001408258220180869,-0.10369067639112473
1772741617679316200,1.310316162109375,0.010799014009535313,0.017215797677636147,-0.0993594378232956
1772741617689332500,1.32033251953125,-0.0008592400699853897,0.043022092431783676,-0.07176642119884491
1772741617699347500,1.330347412109375,-0.0015270581934601068,0.07127601653337479,-0.02919936738908291
1772741617709363500,1.340363525390625,0.00692714611068368,0.08959589898586273,0.008763195015490055
1772741617719378400,1.35037841796875,0.011258368380367756,0.08801564574241638,0.03302517533302307
1772741617729394400,1.36039453125,0.014442444778978825,0.06884460896253586,0.0417342446744442
1772741617739410400,1.370410400390625,0.01688697375357151,0.018600482493638992,0.03235730528831482
1772741617749425400,1.38042529296875,0.017204156145453453,-0.002373509109020233,0.034967999905347824
1772741617759441400,1.39044140625,0.011940689757466316,0.009390485472977161,0.054335951805114746
1772741617769456400,1.400456298828125,0.009115610271692276,0.015118412673473358,0.06268922984600067
1772741617779472400,1.410472412109375,0.009489824995398521,0.0010389629751443863,0.04784169793128967
1772741617789487400,1.4204873046875,0.016491807997226715,-0.008399546146392822,0.026089267805218697
1772741617799503400,1.43050341796875,0.021954869851469994,-0.008913349360227585,0.008477644994854927
1772741617809518300,1.440518310546875,0.01862884871661663,-0.026359183713793755,-0.015640739351511
1772741617819534300,1.450534423828125,0.014360599219799042,-0.03886352479457855,-0.03420883044600487
1772741617829550600,1.460550537109375,0.004954047966748476,-0.04487241432070732,-0.04552007466554642
1772741617839565600,1.470565673828125,-0.0064304294064641,-0.04048285633325577,-0.04388630390167236
1772741617849581600,1.48058154296875,-0.01524522714316845,-0.013759097084403038,-0.027761129662394524
1772741617859596500,1.490596435546875,-0.023881040513515472,-0.004191685933619738,-0.012497516348958015
1772741617869612500,1.500612548828125,-0.023783035576343536,-0.009707890450954437,-0.004621484316885471
1772741617879627500,1.51062744140625,-0.0252581387758255,-0.020960792899131775,-0.002218694891780615
1772741617889643500,1.5206435546875,-0.03209687024354935,-0.028200330212712288,0.0004756252747029066
1772741617899658500,1.530658447265625,-0.03766723722219467,-0.03158446401357651,-0.00044165027793496847
1772741617909674500,1.540674560546875,-0.037503186613321304,-0.01866653561592102,0.005010905675590038
1772741617919690500,1.5506904296875,-0.028731269761919975,0.0022102510556578636,0.00984001625329256
1772741617929705500,1.56070556640625,-0.02184448018670082,-0.0001523178070783615,0.002354265656322241
1772741617939721500,1.570721435546875,-0.01660577394068241,-0.00581325963139534,-0.010188767686486244
1772741617949736400,1.580736328125,-0.020040186122059822,-0.017515456303954124,-0.019885336980223656
1772741617959752400,1.59075244140625,-0.022136688232421875,-0.010531347244977951,-0.009890252724289894
1772741617969767400,1.600767333984375,-0.02233828976750374,-0.004169320687651634,-0.0029117059893906116
1772741617979783400,1.610783447265625,-0.025330454111099243,-0.03444419056177139,-0.018334953114390373
1772741617989798400,1.62079833984375,-0.021553559228777885,-0.05590420961380005,-0.029303181916475296
1772741617999814400,1.630814453125,-0.013893527910113335,-0.062212444841861725,-0.031918108463287354
1772741618009829400,1.640829345703125,-0.009259361773729324,-0.06627323478460312,-0.028481299057602882
1772741618019845400,1.650845458984375,-0.0051915692165493965,-0.045398276299238205,-0.01705234870314598
1772741618029861400,1.660861328125,-0.009791913442313671,-0.02208203449845314,0.004749087616801262
1772741618039876400,1.67087646484375,-0.012249112129211426,0.005905841011554003,0.0184251107275486
1772741618049892400,1.680892333984375,-0.009335082024335861,0.015197076834738255,0.014083893038332462
1772741618059907300,1.6909072265625,0.0022799097932875156,0.008544312790036201,-0.009671101346611977
1772741618069923300,1.70092333984375,0.010519996285438538,0.01160614937543869,-0.03888864442706108
1772741618079938300,1.710938232421875,0.018077678978443146,0.01573505997657776,-0.05567595735192299
1772741618089954300,1.720954345703125,0.019763991236686707,0.025103794410824776,-0.056498873978853226
1772741618099969300,1.73096923828125,0.015554353594779968,0.03495151177048683,-0.04067527502775192
1772741618109985300,1.7409853515625,0.012442715466022491,0.020582424476742744,-0.03272866830229759
1772741618120001300,1.751001220703125,0.012999463826417923,0.016564182937145233,-0.023176366463303566
1772741618130016300,1.761016357421875,0.014531845226883888,0.016535421833395958,-0.006106036249548197
1772741618140032300,1.7710322265625,0.021221887320280075,0.018324360251426697,0.0040171192958951
1772741618150047200,1.781047119140625,0.027882186695933342,0.000030041905120015144,-0.0005856221541762352
1772741618160063500,1.7910634765625,0.032816510647535324,-0.021517854183912277,-0.02158840373158455
1772741618170078500,1.801078369140625,0.031081993132829666,-0.02724391594529152,-0.03479289263486862
1772741618180094500,1.811094482421875,0.02111271768808365,-0.03187568485736847,-0.04483460634946823
1772741618190109400,1.821109375,0.015602903440594673,-0.019510630518198013,-0.0387498140335083
1772741618200125400,1.83112548828125,0.010433465242385864,-0.0081290602684021,-0.0216908510774374
1772741618210140400,1.841140380859375,0.007452588062733412,-0.014117710292339325,-0.00842031929641962
1772741618220156400,1.851156494140625,0.009772426448762417,-0.00679484149441123,0.00994504988193512
1772741618230172400,1.86117236328125,0.00669354572892189,-0.00048288307152688503,0.028669467195868492
1772741618240187400,1.8711875,-0.0008839506190270185,0.0004538781940937042,0.03581587225198746
1772741618250203400,1.881203369140625,-0.009292082861065865,-0.010612621903419495,0.0351807102560997
1772741618260218400,1.89121826171875,-0.012948188930749893,-0.02248225174844265,0.03833881765604019
1772741618270234400,1.901234375,-0.012484531849622726,-0.04090999811887741,0.031154679134488106
1772741618280249300,1.911249267578125,-0.010846814140677452,-0.059605054557323456,0.013045206665992737
1772741618290265300,1.921265380859375,-0.007128508761525154,-0.06195315718650818,-0.00216117687523365
1772741618300280300,1.9312802734375,-0.008320987224578857,-0.04626602679491043,-0.010421126149594784
1772741618310296300,1.94129638671875,-0.01158655434846878,-0.03838733211159706,-0.024009637534618378
1772741618320311300,1.951311279296875,-0.01873413659632206,-0.035991121083498,-0.041389886289834976
1772741618330327600,1.96132763671875,-0.02752922661602497,-0.03749314695596695,-0.049449943006038666
1772741618340343600,1.971343505859375,-0.030183061957359314,-0.03284073248505592,-0.04360651224851608
1772741618350358500,1.981358642578125,-0.02654891088604927,-0.02396335080265999,-0.031037990003824234
1772741618360374500,1.99137451171875,-0.02660231851041317,-0.014845692552626133,-0.015432879328727722
1772741618370389500,2.001389404296875,-0.032167527824640274,-0.033419642597436905,-0.02066412754356861
1772741618380405500,2.011405517578125,-0.027175409719347954,-0.04084732010960579,-0.02777167782187462
1772741618390420500,2.02142041015625,-0.025371119379997253,-0.03791757673025131,-0.046407945454120636
1772741618400436500,2.0314365234375,-0.025906722992658615,-0.05175458639860153,-0.07820267975330353
1772741618410451500,2.041451416015625,-0.03652714192867279,-0.06691808998584747,-0.11544645577669144
1772741618420467500,2.051467529296875,-0.050648365169763565,-0.060697782784700394,-0.1341269314289093
1772741618430483500,2.0614833984375,-0.05055222660303116,-0.03781696781516075,-0.12241888046264648
1772741618440498400,2.07149853515625,-0.038645949214696884,-0.00003239675424993038,-0.09182881563901901
1772741618450514400,2.081514404296875,-0.017657047137618065,0.02382952719926834,-0.0587848536670208
1772741618460529400,2.091529296875,0.0038480982184410095,0.042494211345911026,-0.03125961869955063
1772741618470545400,2.10154541015625,0.011149154044687748,0.044286251068115234,-0.01664179563522339
1772741618480560400,2.111560302734375,0.014376433566212654,0.038779664784669876,-0.007881833240389824
1772741618490576400,2.121576416015625,0.013525020331144333,0.03415695205330849,-0.00007823912892490625
1772741618500591400,2.13159130859375,0.011400435119867325,0.011689100414514542,-0.0005129464552737772
1772741618510607400,2.141607421875,0.010142888873815536,-0.005217445082962513,-0.009900589473545551
1772741618520622300,2.151622314453125,0.012673858553171158,0.005176158621907234,-0.007564356550574303
1772741618530638300,2.161638427734375,0.01178409531712532,0.014486037194728851,-0.01166748907417059
1772741618540654300,2.171654296875,0.007338947616517544,0.01568056270480156,-0.026054633781313896
1772741618550669300,2.18166943359375,0.005670476704835892,0.012936973944306374,-0.03968042880296707
1772741618560685300,2.191685302734375,0.005143443122506142,0.0069078560918569565,-0.055182844400405884
1772741618570700300,2.2017001953125,0.006313902325928211,0.0014949814649298787,-0.06824830919504166
1772741618580716300,2.21171630859375,0.007502776104956865,-0.003834259230643511,-0.07853589206933975
1772741618590731300,2.221731201171875,0.01148313656449318,-0.0062835682183504105,-0.08506622910499573
1772741618600747300,2.231747314453125,0.008602090179920197,-0.0028198719955980778,-0.08304430544376373
1772741618610762200,2.24176220703125,0.005618018098175526,0.004226319491863251,-0.07336904108524323
1772741618620778200,2.2517783203125,-0.00010124780237674713,0.01495665404945612,-0.05495717376470566
1772741618630793200,2.261793212890625,-0.00907849706709385,0.026826629415154457,-0.03755874186754227
1772741618640809200,2.271809326171875,-0.014362531714141369,0.01485597062855959,-0.03110767900943756
1772741618650825200,2.2818251953125,-0.011435717344284058,-0.0004047413822263479,-0.026449810713529587
1772741618660840200,2.291840087890625,-0.005225025117397308,-0.02524701878428459,-0.031194373965263367
1772741618670856200,2.301856201171875,-0.0037669443991035223,-0.040080826729536057,-0.03140689432621002
1772741618680871200,2.31187109375,-0.00806938111782074,-0.04510745778679848,-0.02156534045934677
1772741618690887200,2.32188720703125,-0.01216745376586914,-0.03653420880436897,-0.0044113872572779655
1772741618700902100,2.331902099609375,-0.018598146736621857,-0.04374762251973152,0.0034183617681264877
1772741618710918400,2.34191845703125,-0.019734783098101616,-0.042577166110277176,0.005671662278473377
1772741618720933000,2.35193310546875,-0.025623319670557976,-0.03639637678861618,-0.0013659019023180008
1772741618730949400,2.361949462890625,-0.027012424543499947,-0.04078872874379158,-0.012357566505670547
1772741618740965400,2.37196533203125,-0.029552262276411057,-0.020658422261476517,-0.007796399295330048
1772741618750980400,2.38198046875,-0.03372224047780037,0.014212209731340408,0.008635570295155048
1772741618760996400,2.391996337890625,-0.044164080172777176,0.03420384228229523,0.017994588240981102
1772741618771011300,2.40201123046875,-0.051975131034851074,0.043152328580617905,0.0156091945245862
1772741618781027300,2.41202734375,-0.05284084752202034,0.0428900420665741,0.004101673141121864
1772741618791042300,2.422042236328125,-0.048718806356191635,0.037464115768671036,-0.011451453901827335
1772741618801058300,2.432058349609375,-0.04225771129131317,0.03328748047351837,-0.0274027232080698
1772741618811073300,2.4420732421875,-0.04206782951951027,0.018988169729709625,-0.044216323643922806
1772741618821089300,2.45208935546875,-0.039241354912519455,0.014096774160861969,-0.049857672303915024
1772741618831104300,2.462104248046875,-0.043033428490161896,0.002615087665617466,-0.050457149744033813
1772741618841120300,2.472120361328125,-0.04612052068114281,-0.0027397056110203266,-0.040525637567043304
1772741618851136300,2.48213623046875,-0.048828158527612686,0.01394819375127554,-0.017537493258714676
1772741618861151200,2.492151123046875,-0.04982822388410568,0.014504099264740944,-0.007035295013338327
1772741618871167500,2.50216748046875,-0.04572748765349388,0.019032273441553116,-0.005824621766805649
1772741618881182500,2.512182373046875,-0.037201717495918274,0.01737748645246029,-0.011789911426603794
1772741618891198500,2.522198486328125,-0.03134409710764885,0.00031834165565669537,-0.023965884000062943
1772741618901213400,2.53221337890625,-0.030623404309153557,-0.00044317147694528103,-0.02549467422068119
1772741618911229400,2.5422294921875,-0.028875306248664856,0.0008407386485487223,-0.013862252235412598
1772741618921244400,2.552244384765625,-0.03072257712483406,-0.002775748958811164,-0.006186381448060274
1772741618931260400,2.562260498046875,-0.023513130843639374,-0.015648139640688896,-0.004345604218542576
1772741618941275400,2.572275390625,-0.016548536717891693,-0.02640257030725479,-0.0008500212570652366
1772741618951291400,2.58229150390625,-0.010835524648427963,-0.02277454547584057,0.008443345315754414
1772741618961307400,2.592307373046875,-0.004133884329348803,-0.004552102647721767,0.015447751618921757
1772741618971322400,2.602322265625,-0.006046566646546125,0.004907712340354919,0.016621140763163567
1772741618981338400,2.61233837890625,-0.004243114031851292,-0.007675342261791229,0.006507121957838535
1772741618991353300,2.622353271484375,0.0014877421781420708,-0.016324490308761597,0.0009373871143907309
1772741619001369300,2.632369384765625,0.009346053935587406,-0.016344936564564705,0.0020668862853199244
1772741619011384300,2.64238427734375,0.014258254319429398,-0.0057181245647370815,0.005687986500561237
1772741619021400300,2.652400390625,0.016732187941670418,-0.0014948234893381596,0.007903789170086384
1772741619031415300,2.662415283203125,0.016000084578990936,-0.014226596802473068,0.0018008893821388483
1772741619041431600,2.672431640625,0.01534425187855959,-0.014117886312305927,-0.004657993093132973
1772741619051447300,2.682447265625,0.010038969106972218,-0.013312811963260174,-0.013140161521732807
1772741619061462500,2.692462646484375,0.0053685191087424755,-0.015138845890760422,-0.022018026560544968
1772741619071478300,2.702478271484375,0.0011380878277122974,-0.01248074509203434,-0.028030645102262497
1772741619081493500,2.712493408203125,-0.00225202483125031,-0.00935894250869751,-0.033863794058561325
1772741619091509200,2.72250927734375,-0.007978353649377823,-0.007088863756507635,-0.03712776303291321
1772741619101524500,2.7325244140625,-0.0038721393793821335,-0.004875168204307556,-0.0442848727107048
1772741619111540200,2.742540283203125,-0.0028508170507848263,0.008101350627839565,-0.0432283990085125
1772741619121555500,2.752555419921875,-0.003794781630858779,0.010482949204742908,-0.03477528318762779
1772741619131571200,2.7625712890625,-0.009787427261471748,0.0031422118190675974,-0.030143780633807182
1772741619141586200,2.772586181640625,-0.011671267449855804,-0.0034727775491774082,-0.021609948948025703
1772741619151602200,2.782602294921875,-0.008443515747785568,0.0038743512704968452,-0.007415034808218479
1772741619161618200,2.7926181640625,-0.003783805761486292,-0.00023984513245522976,0.003198301186785102
1772741619171633200,2.802633056640625,-0.0010199772659689188,-0.01803455501794815,-0.005262561142444611
1772741619181649200,2.812649169921875,-0.00002097897231578827,-0.01839737966656685,-0.009907668456435204
1772741619191664000,2.8226640625,-0.002685471437871456,-0.021189704537391663,-0.006248751655220985
1772741619201680400,2.832680419921875,-0.005889951251447201,-0.004705621860921383,0.006943640299141407
1772741619211695400,2.8426953125,-0.010529709979891777,0.0002467930316925049,0.018111607059836388
1772741619221711400,2.85271142578125,-0.013740788213908672,-0.00661329785361886,0.02098294533789158
1772741619231726300,2.862726318359375,-0.0054162791930139065,-0.010766232386231422,0.025004051625728607
1772741619241742300,2.872742431640625,0.005199204199016094,-0.017256280407309532,0.0203279759734869
1772741619251757300,2.88275732421875,0.011764694936573505,-0.026453772559762,0.011905730701982975
1772741619261773300,2.892773193359375,0.014545628800988197,-0.02948842942714691,0.0075372569262981415
1772741619271789300,2.902789306640625,0.014462804421782494,-0.028353121131658554,0.003961430862545967
1772741619281804300,2.91280419921875,0.011266721412539482,-0.03297971189022064,0.0049013663083314896
1772741619291820300,2.9228203125,0.005428273230791092,-0.0357869528234005,0.010842080228030682
1772741619301835300,2.932835205078125,0.0008742832578718662,-0.029858747497200966,0.02235782891511917
1772741619311851300,2.942851318359375,-0.0032304469496011734,-0.027680814266204834,0.03208662196993828
1772741619321866200,2.9528662109375,-0.008415021002292633,-0.0236334390938282,0.03557184711098671
1772741619331882200,2.96288232421875,-0.012757837772369385,-0.020112473517656326,0.03167484700679779
1772741619341897200,2.972897216796875,-0.011153566651046276,-0.010681428015232086,0.018760137259960175
1772741619351913200,2.982913330078125,-0.0085026565939188,-0.012235648930072784,-0.006820854730904102
1772741619361928200,2.99292822265625,-0.00441546319052577,-0.02320505678653717,-0.034218523651361465
1772741619371944400,3.0029443359375,-0.0006971575785428286,-0.02688661217689514,-0.0440107025206089
1772741619381960400,3.01296044921875,-0.000025895889848470688,-0.011218623258173466,-0.027566609904170036
1772741619391975400,3.022975341796875,-0.005066993180662394,0.000917402096092701,-0.006025630980730057
1772741619401991400,3.032991455078125,-0.009000178426504135,0.007730844430625439,0.014637511223554611
1772741619412006400,3.04300634765625,-0.01258239708840847,0.013031600043177605,0.027463294565677643
1772741619422022400,3.0530224609375,-0.01351507380604744,0.012944097630679607,0.02501651644706726
1772741619432036900,3.063036865234375,-0.013255149126052856,0.0004549373406916857,0.006682249717414379
1772741619442052900,3.073052978515625,-0.009047438390552998,-0.011057551018893719,-0.0182935930788517
1772741619452067800,3.08306787109375,-0.004422060213983059,-0.025090279057621956,-0.035319983959198
1772741619462083800,3.093083740234375,0.0007591415196657181,-0.01717681810259819,-0.037360068410634995
1772741619472099800,3.103099853515625,0.0003277091309428215,-0.003019453026354313,-0.025251740589737892
1772741619482114800,3.11311474609375,-0.002929380163550377,-0.01064517255872488,-0.018353143706917763
1772741619492130800,3.123130859375,-0.0027869013138115406,-0.003332398599013686,-0.00706586753949523
1772741619502145800,3.133145751953125,-0.004178297705948353,-0.004010118544101715,0.0020960201509296894
1772741619512161800,3.143161865234375,-0.00650936271995306,-0.018870025873184204,-0.0059216925874352455
1772741619522176800,3.1531767578125,-0.01107357069849968,-0.03500176966190338,-0.018753789365291595
1772741619532192800,3.16319287109375,-0.013345513492822647,-0.04499261826276779,-0.016600623726844788
1772741619542207700,3.173207763671875,-0.020266924053430557,-0.03779574856162071,-0.008432760834693909
1772741619552223700,3.1832236328125,-0.02455621212720871,-0.028962045907974243,0.004326443653553724
1772741619562238700,3.19323876953125,-0.02383992448449135,-0.0155516117811203,0.011451573111116886
1772741619572254700,3.203254638671875,-0.024597326293587685,-0.0016216805670410395,0.0047209663316607475
1772741619582271000,3.21327099609375,-0.021720048040151596,0.0004808849189430475,-0.01214270293712616
1772741619592286000,3.223285888671875,-0.01945582777261734,0.01164885051548481,-0.025581546127796173
1772741619602302000,3.233302001953125,-0.01924896612763405,0.01592385396361351,-0.036647994071245193
1772741619612317000,3.24331689453125,-0.02250787615776062,0.02006613463163376,-0.03630497679114342
1772741619622333000,3.2533330078125,-0.023946864530444145,0.012759044766426086,-0.04134892672300339
1772741619632348000,3.263347900390625,-0.024172967299818993,0.007970414124429226,-0.04312765225768089
1772741619642364000,3.273364013671875,-0.021039538085460663,-0.002891843905672431,-0.04836108535528183
1772741619652379000,3.28337890625,-0.017273029312491417,-0.004831157624721527,-0.04198094829916954
1772741619662395000,3.293394775390625,-0.01637270674109459,0.013744221068918705,-0.022150298580527306
1772741619672409900,3.303409912109375,-0.01974666491150856,0.0243835486471653,-0.006077855359762907
1772741619682425900,3.31342578125,-0.021363291889429092,0.032373376190662384,0.010945569723844528
1772741619692441600,3.323441650390625,-0.019996825605630875,0.04656030237674713,0.028677163645625114
1772741619702456800,3.333456787109375,-0.019934935495257378,0.04913776367902756,0.036339957267045975
1772741619712472600,3.34347265625,-0.01591942086815834,0.054588720202445984,0.03938368335366249
1772741619722487800,3.35348779296875,-0.023386171087622643,0.0526304729282856,0.034223753958940506
1772741619732503800,3.36350390625,-0.029304513707756996,0.049847472459077835,0.026801524683833122
1772741619742518800,3.373518798828125,-0.03595556691288948,0.039221424609422684,0.017907099798321724
1772741619752534800,3.38353466796875,-0.03921873867511749,0.03600405901670456,0.02027891017496586
1772741619762549800,3.3935498046875,-0.04067757725715637,0.040361013263463974,0.028104398399591446
1772741619772565800,3.403565673828125,-0.041882120072841644,0.03295289725065231,0.023753326386213303
1772741619782580700,3.413580810546875,-0.0384146049618721,0.017985843122005463,0.005462124012410641
1772741619792596700,3.4235966796875,-0.032608114182949066,0.003058558562770486,-0.02254341170191765
1772741619802612700,3.43361279296875,-0.027578921988606453,-0.0005907351151108742,-0.044974952936172485
1772741619812627700,3.443627685546875,-0.02827746979892254,0.0019025164656341076,-0.05319027230143547
1772741619822643700,3.453643798828125,-0.030824197456240654,0.010758484713733196,-0.04991607740521431
1772741619832658700,3.46365869140625,-0.03175097703933716,0.018003348261117935,-0.03982323035597801
1772741619842674700,3.4736748046875,-0.02831270359456539,0.017086759209632874,-0.028103560209274292
1772741619852689700,3.483689697265625,-0.023643914610147476,0.027609974145889282,-0.01635102927684784
1772741619862705700,3.49370556640625,-0.023771274834871292,0.029121287167072296,-0.008473425172269344
1772741619872720600,3.503720703125,-0.01979704014956951,0.034826308488845825,-0.005404398310929537
1772741619882736600,3.513736572265625,-0.01968226209282875,0.0366339273750782,-0.014345351606607437
1772741619892751600,3.523751708984375,-0.020550984889268875,0.023975921794772148,-0.03144710510969162
1772741619902767600,3.533767578125,-0.0190755482763052,0.02372841164469719,-0.04764234274625778
1772741619912784000,3.543783935546875,-0.013713806867599487,0.022507086396217346,-0.06457418203353882
1772741619922798800,3.553798828125,-0.005999632179737091,0.014062232337892056,-0.08218324929475784
1772741619932814800,3.56381494140625,-0.006000164896249771,0.010912512429058552,-0.08475799113512039
1772741619942829800,3.573829833984375,-0.0034127889666706324,0.020357992500066757,-0.06470552086830139
1772741619952845800,3.583845703125,-0.0058607663959264755,0.031724099069833755,-0.031850095838308334
1772741619962860800,3.59386083984375,-0.009264674969017506,0.03418612852692604,-0.000745228084269911
1772741619972876800,3.603876708984375,-0.008069448173046112,0.026892265304923058,0.021549956873059273
1772741619982891800,3.613891845703125,-0.006964548956602812,-0.011919601820409298,0.01337346713989973
1772741619992907800,3.62390771484375,-0.003278733929619193,-0.02767512947320938,0.007469239644706249
1772741620002922800,3.6339228515625,0.0019343891181051731,-0.024818629026412964,0.0037301876582205296
1772741620012938800,3.643938720703125,-0.0006137231830507517,-0.02039991319179535,-0.0005867964355275035
1772741620022954800,3.653954833984375,0.0012174313887953758,-0.013307660818099976,0.00038451480213552713
1772741620032969700,3.6639697265625,-0.0011756850872188807,-0.00288085313513875,0.0032833656296133995
1772741620042985700,3.67398583984375,-0.001995128346607089,0.0034530761186033487,0.007698936853557825
1772741620053000700,3.684000732421875,-0.0010116230696439743,0.006814784370362759,0.01369797345250845
1772741620063017000,3.694016845703125,0.001993016339838505,0.008057179860770702,0.019670404493808746
1772741620073031700,3.70403173828125,0.007782462053000927,0.01921156421303749,0.02980612963438034
1772741620083048000,3.7140478515625,0.007975632324814796,0.013300192542374134,0.03711528331041336
1772741620093063000,3.72406298828125,0.005127913784235716,0.001115431310608983,0.031480833888053894
1772741620103079000,3.734078857421875,0.005116320215165615,-0.006692223716527224,0.021741896867752075
1772741620113094000,3.744093994140625,0.010883928276598454,-0.012840930372476578,0.0037048389203846455
1772741620123110000,3.75410986328125,0.01839526556432247,-0.024874616414308548,-0.024653304368257523
1772741620133126000,3.7641259765625,0.024269133806228638,-0.03723275288939476,-0.055287379771471024
1772741620143140900,3.774140869140625,0.029319459572434425,-0.02855994552373886,-0.06684134155511856
1772741620153156900,3.784156982421875,0.0249625276774168,-0.013738656416535378,-0.05643929913640022
1772741620163171800,3.794171875,0.019173098728060722,0.00041871843859553337,-0.04046741873025894
1772741620173187800,3.804187744140625,0.022356640547513962,0.010617293417453766,-0.01728673279285431
1772741620183202800,3.814202880859375,0.02771344780921936,0.012340293265879154,-0.005374702159315348
1772741620193218800,3.82421875,0.03190260007977486,0.018139857798814774,0.009628482162952423
1772741620203233800,3.83423388671875,0.03178324177861214,0.015255491249263287,0.01615564525127411
1772741620213249800,3.844249755859375,0.02866468019783497,0.007103555370122194,0.019845986738801003
1772741620223264800,3.8542646484375,0.025462334975600243,0.011417930014431477,0.03061695396900177
1772741620233280800,3.86428076171875,0.02249504067003727,0.004268941003829241,0.03417227417230606
1772741620243295700,3.874295654296875,0.02454780600965023,-0.005807661451399326,0.02923637256026268
1772741620253312000,3.88431201171875,0.027173947542905807,-0.01621236652135849,0.01991158351302147
1772741620263327700,3.89432763671875,0.027782784774899483,-0.016944583505392075,0.010014608502388
1772741620273342700,3.9043427734375,0.022731035947799683,-0.01775338687002659,0.004090406931936741
1772741620283358700,3.914358642578125,0.018344422802329063,-0.01188889890909195,0.0000063963234424591064
1772741620293373700,3.924373779296875,0.011448699980974197,-0.01255761831998825,-0.002840522676706314
1772741620303389700,3.9343896484375,0.0038173659704625607,-0.007231586612761021,0.0020963912829756737
1772741620313404700,3.94440478515625,0.004744944628328085,-0.0004652931820601225,0.013441457413136959
1772741620323420700,3.954420654296875,0.007099071983247995,0.0017432129243388772,0.016432374715805054
1772741620333435600,3.964435546875,0.012962287291884422,-0.0009793364442884922,0.012997695244848728
1772741620343451600,3.97445166015625,0.010705813765525818,-0.009506100788712502,0.0040307254530489445
1772741620353466600,3.984466552734375,0.012820363976061344,-0.010108508169651031,0.00004637008532881737
1772741620363482600,3.994482666015625,0.009036216884851456,-0.01243427861481905,-0.004182223696261644
1772741620373498600,4.00449853515625,0.0020672576501965523,-0.020899932831525803,-0.00868775974959135
1772741620383513600,4.014513671875,-0.0035806456580758095,-0.021750614047050476,-0.0042299204505980015
1772741620393529600,4.024529541015625,-0.0008280023466795683,-0.021446749567985535,0.010119191370904446
1772741620403544600,4.034544677734375,0.0045878407545387745,-0.015590304508805275,0.03114817664027214
1772741620413560800,4.044560791015625,0.014485746622085571,-0.0202039647847414,0.04715963453054428
1772741620423575800,4.054575927734375,0.02001076377928257,-0.03839573636651039,0.051125962287187576
1772741620433592300,4.06459228515625,0.023959700018167496,-0.06162010133266449,0.05601925402879715
1772741620443607300,4.074607177734375,0.027326785027980804,-0.07325968891382217,0.06590642035007477
1772741620453623300,4.084623291015625,0.02369263395667076,-0.07316061854362488,0.08018948882818222
1772741620463638300,4.09463818359375,0.02291295863687992,-0.06718456745147705,0.09691669791936874
1772741620473654300,4.104654296875,0.021864205598831177,-0.06063718721270561,0.10890624672174454
1772741620483670300,4.114670166015625,0.0222425889223814,-0.05452379584312439,0.10814660787582397
1772741620493685200,4.124685302734375,0.02554384432733059,-0.04963156580924988,0.09556743502616882
1772741620503701200,4.134701171875,0.027034852653741837,-0.05412809178233147,0.07328052818775177
1772741620513716200,4.14471630859375,0.03203467279672623,-0.05324525386095047,0.04976242408156395
1772741620523732200,4.154732177734375,0.03943469002842903,-0.05037974938750267,0.03234713152050972
1772741620533747200,4.164747314453125,0.044276051223278046,-0.05959108844399452,0.012633882462978363
1772741620543763200,4.17476318359375,0.0495050773024559,-0.06517711281776428,-0.004380895756185055
1772741620553778200,4.184778076171875,0.05423831567168236,-0.041488032788038254,-0.004826442338526249
1772741620563794400,4.19479443359375,0.051008861511945724,-0.03468264266848564,-0.015694350004196167
1772741620573809400,4.204809326171875,0.03982171788811684,-0.04774092137813568,-0.027256198227405548
1772741620583825400,4.214825439453125,0.03529767692089081,-0.04520712047815323,-0.022962486371397972
1772741620593841400,4.22484130859375,0.029332997277379036,-0.03325805068016052,-0.010537509806454182
1772741620603856400,4.2348564453125,0.021838795393705368,-0.02625410445034504,0.002827615709975362
1772741620613872400,4.244872314453125,0.02004542201757431,-0.011193661950528622,0.019924843683838844
1772741620623887400,4.254887451171875,0.02206931635737419,-0.001352537190541625,0.02187153324484825
1772741620633903400,4.2649033203125,0.02385523170232773,-0.00318585685454309,0.010173599235713482
1772741620643918300,4.27491845703125,0.025024093687534332,-0.001279033487662673,-0.007547607179731131
1772741620653934300,4.284934326171875,0.02158142626285553,-0.011740462854504585,-0.027676045894622803
1772741620663949300,4.29494921875,0.019061099737882614,-0.0119558647274971,-0.03874323517084122
1772741620673965300,4.30496533203125,0.013178710825741291,-0.011424032971262932,-0.04021250084042549
1772741620683980300,4.314980224609375,0.008106142282485962,-0.010200333781540394,-0.029236070811748505
1772741620693996300,4.324996337890625,0.005030458327382803,0.011715617962181568,0.0037562332581728697
1772741620704011300,4.33501123046875,-0.0036222212947905064,0.027378300204873085,0.03048883005976677
1772741620714027300,4.34502734375,-0.00802708975970745,0.02644059993326664,0.03885968029499054
1772741620724043300,4.355043212890625,-0.010935094207525253,0.02791154757142067,0.03550446778535843
1772741620734058500,4.36505859375,-0.006294269114732742,0.014807197265326977,0.01156078651547432
1772741620744074200,4.37507421875,-0.0015264120884239674,-0.00416196696460247,-0.01864478550851345
1772741620754089500,4.38508935546875,0.0025397022254765034,-0.008330346085131168,-0.03665361553430557
1772741620764105200,4.395105224609375,0.0037185768596827984,-0.00955225806683302,-0.04189186543226242
1772741620774120400,4.405120361328125,0.0062754773534834385,-0.013115035369992256,-0.03798447549343109
1772741620784136200,4.41513623046875,0.008598553016781807,-0.005636611953377724,-0.021759433671832085
1772741620794151400,4.4251513671875,0.009726401418447495,0.0013704311568289995,0.004955268930643797
1772741620804167200,4.435167236328125,0.006140903569757938,0.001559607102535665,0.024727987125515938
1772741620814182400,4.445182373046875,0.007117218337953091,-0.007193937432020903,0.03863421827554703
1772741620824198100,4.4551982421875,0.006148231215775013,-0.014941535890102386,0.046109870076179504
1772741620834213400,4.46521337890625,0.008635357953608036,-0.021507559344172478,0.04516417905688286
1772741620844229000,4.47522900390625,0.008372420445084572,-0.017666123807430267,0.036383550614118576
1772741620854245000,4.4852451171875,0.0071644107811152935,-0.01972820982336998,0.020132144913077354
1772741620864260000,4.495260009765625,0.008236554451286793,-0.03332580253481865,0.0025440421886742115
1772741620874276000,4.505276123046875,0.009548960253596306,-0.02905435860157013,-0.007146135903894901
1772741620884291000,4.515291015625,0.008150923065841198,-0.01202977355569601,-0.003947093151509762
1772741620894307300,4.525307373046875,0.004163904115557671,-0.008421456441283226,-0.003564130514860153
1772741620904322300,4.535322265625,0.002306325826793909,-0.0063928053714334965,-0.00033467489993199706
1772741620914338300,4.54533837890625,-0.003518007230013609,-0.014841683208942413,0.0027210358530282974
1772741620924353300,4.555353271484375,-0.013028886169195175,-0.01681704819202423,0.008933871984481812
1772741620934369300,4.565369384765625,-0.01871100626885891,-0.015135528519749641,0.014467920176684856
1772741620944384300,4.57538427734375,-0.021675683557987213,-0.014945135451853275,0.01243534218519926
1772741620954400300,4.585400146484375,-0.02285413071513176,-0.012259604409337044,0.0016380882589146495
1772741620964416300,4.595416259765625,-0.017977632582187653,-0.013674547895789146,-0.014622880145907402
1772741620974431200,4.60543115234375,-0.007406747899949551,-0.006482416298240423,-0.027023090049624443
1772741620984447200,4.615447265625,0.005458899773657322,-0.0007594579365104437,-0.03054903633892536
1772741620994462200,4.625462158203125,0.015916867181658745,0.002883213572204113,-0.034055620431900024
1772741621004478200,4.635478271484375,0.022499684244394302,0.0011873198673129082,-0.029324542731046677
1772741621014493200,4.6454931640625,0.024984678253531456,-0.008875434286892414,-0.01777494326233864
1772741621024509200,4.65550927734375,0.029154259711503983,-0.009271376766264439,0.0012003727024421096
1772741621034524200,4.665524169921875,0.02691107988357544,-0.012988883070647717,0.015255737118422985
1772741621044540200,4.6755400390625,0.02371930330991745,-0.010049408301711082,0.025957809761166573
1772741621054555100,4.68555517578125,0.022378403693437576,0.0005763375665992498,0.02690722607076168
1772741621064571400,4.6955712890625,0.01773003675043583,0.0004832183476537466,0.011671362444758415
1772741621074586400,4.70558642578125,0.018134836107492447,0.003251840593293309,-0.004875656217336655
1772741621084602400,4.715602294921875,0.015848487615585327,0.009500270709395409,-0.017921576276421547
1772741621094618400,4.725618408203125,0.010801797732710838,0.014469729736447334,-0.02197490632534027
1772741621104633300,4.73563330078125,0.0061648814007639885,0.01448007021099329,-0.023388221859931946
1772741621114649300,4.7456494140625,0.00005585653707385063,0.007601391524076462,-0.02203187346458435
1772741621124664300,4.755664306640625,-0.008256235159933567,0.0020011141896247864,-0.017519574612379074
1772741621134680300,4.765680419921875,-0.01804361864924431,-0.0017012122552841902,-0.018123313784599304
1772741621144695300,4.7756953125,-0.024484708905220032,0.0016485261730849743,-0.009095781482756138
1772741621154711300,4.785711181640625,-0.030773233622312546,0.014776845462620258,-0.0038714585825800896
1772741621164726300,4.795726318359375,-0.03338196873664856,0.016091564670205116,-0.003605247475206852
1772741621174742300,4.8057421875,-0.03284827247262001,0.020419200882315636,-0.009527585469186306
1772741621184757200,4.81575732421875,-0.03236207365989685,0.020377207547426224,-0.020299967378377914
1772741621194773200,4.825773193359375,-0.03044140338897705,0.017497530207037926,-0.022603601217269897
1772741621204788200,4.835788330078125,-0.02956274151802063,0.013404160737991333,-0.016415027901530266
1772741621214804200,4.84580419921875,-0.0334956981241703,0.013223331421613693,0.004784800112247467
1772741621224820500,4.855820556640625,-0.037833839654922485,0.014178279787302017,0.02584289386868477
1772741621234835500,4.86583544921875,-0.035009294748306274,0.005278795026242733,0.03831714019179344
1772741621244851500,4.8758515625,-0.03179483488202095,0.004206484649330378,0.040591638535261154
1772741621254866400,4.885866455078125,-0.026581697165966034,-0.0011624481994658709,0.03387141972780228
1772741621264882400,4.89588232421875,-0.02029266580939293,-0.004408986307680607,0.024247126653790474
1772741621274897400,4.9058974609375,-0.015978612005710602,-0.00876005832105875,0.012585677206516266
1772741621284913400,4.915913330078125,-0.012409601360559464,-0.015284482389688492,0.01010582223534584
1772741621294928400,4.925928466796875,-0.00829288735985756,-0.013812286779284477,0.017585841938853264
1772741621304944400,4.9359443359375,-0.0019332142546772957,-0.004423290025442839,0.02998450957238674
1772741621314959400,4.94595947265625,0.005127358715981245,-0.0026512225158512592,0.03413264825940132
1772741621324975400,4.955975341796875,0.013013001531362534,-0.014576180838048458,0.027706867083907127
1772741621334990300,4.965990234375,0.019994212314486504,-0.012431270442903042,0.02466713637113571
1772741621345006300,4.97600634765625,0.023519104346632957,-0.006597517989575863,0.024262920022010803
1772741621355022000,4.98602197265625,0.024593157693743706,-0.004557803273200989,0.022360624745488167
1772741621365037300,4.996037353515625,0.027396390214562416,0.0043282294645905495,0.029513422399759293
1772741621375053000,5.006052978515625,0.02916286699473858,0.012656200677156448,0.032609082758426666
1772741621385068300,5.016068359375,0.03190586343407631,0.013981359079480171,0.029179168865084648
1772741621395084300,5.026084228515625,0.03437408059835434,0.01105268020182848,0.02252286486327648
1772741621405099300,5.036099365234375,0.029834792017936707,0.008676114492118359,0.004528953228145838
1772741621415115300,5.046115234375,0.0256352536380291,-0.004813328851014376,-0.022984163835644722
1772741621425130200,5.056130126953125,0.018804706633090973,-0.007821674458682537,-0.044004227966070175
1772741621435146200,5.066146240234375,0.01514445710927248,-0.0033350472804158926,-0.047437310218811035
1772741621445161200,5.0761611328125,0.006962717976421118,0.012313831597566605,-0.038320884108543396
1772741621455177200,5.08617724609375,0.0011700764298439026,0.02313052862882614,-0.027595270425081253
1772741621465192200,5.096192138671875,0.0002950136549770832,0.041244443506002426,-0.017336532473564148
1772741621475208200,5.106208251953125,-0.001341498689725995,0.048515405505895615,-0.008038639090955257
1772741621485223200,5.11622314453125,-0.007222296670079231,0.049629002809524536,-0.007317909970879555
1772741621495239400,5.126239501953125,-0.013578196987509727,0.046615369617938995,-0.0064361365512013435
1772741621505255400,5.13625537109375,-0.02625383995473385,0.03643620386719704,-0.00906630139797926
1772741621515270400,5.1462705078125,-0.030580943450331688,0.04248318076133728,-0.010309731587767601
1772741621525286400,5.156286376953125,-0.043131791055202484,0.04929492995142937,-0.012218259274959564
1772741621535301400,5.16630126953125,-0.04492223262786865,0.04665573686361313,-0.02309008315205574
1772741621545317400,5.1763173828125,-0.041878651827573776,0.04324828088283539,-0.03763487935066223
1772741621555332400,5.186332275390625,-0.034112606197595596,0.029085591435432434,-0.055706292390823364
1772741621565348400,5.196348388671875,-0.03181447088718414,0.02193012647330761,-0.06110436096787453
1772741621575363300,5.20636328125,-0.029710037633776665,0.019864577800035477,-0.050986211746931076
1772741621585379300,5.21637939453125,-0.0348290354013443,0.013802356086671352,-0.035157475620508194
1772741621595394300,5.226394287109375,-0.035578448325395584,0.012991423718631268,-0.013190658763051033
1772741621605410300,5.236410400390625,-0.033713750541210175,0.010669124312698841,0.019260970875620842
1772741621615426300,5.24642626953125,-0.034796591848134995,0.010459800250828266,0.046059295535087585
1772741621625441300,5.256441162109375,-0.04010694846510887,0.011432250030338764,0.062340348958969116
1772741621635457500,5.26645751953125,-0.04551476240158081,0.017140736803412437,0.07345158606767654
1772741621645472300,5.27647216796875,-0.04691902548074722,0.01886567287147045,0.07587596774101257
1772741621655488500,5.286488525390625,-0.04710038751363754,0.016404379159212112,0.06889742612838745
1772741621665503500,5.29650341796875,-0.046590983867645264,0.013337451964616776,0.05527026578783989
1772741621675519500,5.30651953125,-0.04698140174150467,0.0037817643024027348,0.034367647022008896
1772741621685534500,5.316534423828125,-0.04311880096793175,-0.01876324974000454,0.00728590739890933
1772741621695550500,5.326550537109375,-0.0414508655667305,-0.030767181888222694,-0.009111176244914532
1772741621705565400,5.3365654296875,-0.034564025700092316,-0.02622653730213642,-0.006281670648604631
1772741621715581400,5.34658154296875,-0.03589374199509621,-0.012521376833319664,0.005155008286237717
1772741621725596400,5.356596435546875,-0.03738720715045929,0.003752681892365217,0.013408754020929337
1772741621735612400,5.3666123046875,-0.03626415506005287,0.008438513614237309,0.009467542171478271
1772741621745627400,5.37662744140625,-0.027758825570344925,0.009088721126317978,0.005210028029978275
1772741621755643400,5.386643310546875,-0.021899070590734482,0.01692880131304264,-0.0030601522885262966
1772741621765659400,5.396659423828125,-0.010213181376457214,0.0029085592832416296,-0.015369042754173279
1772741621775674400,5.40667431640625,-0.0006537646986544132,-0.01031829696148634,-0.023960668593645096
1772741621785690400,5.4166904296875,0.01658274605870247,-0.008521728217601776,-0.028460610657930374
1772741621795705300,5.426705322265625,0.02735896036028862,-0.003481429535895586,-0.03372035548090935
1772741621805721300,5.436721435546875,0.026518478989601135,-0.014946595765650272,-0.0486103780567646
1772741621815736300,5.446736328125,0.030772613361477852,-0.020282506942749023,-0.05677483230829239
1772741621825752600,5.456752685546875,0.03384046256542206,-0.009763211011886597,-0.04436330497264862
1772741621835767600,5.466767578125,0.03453049063682556,0.009608356282114983,-0.02040630765259266
1772741621845783600,5.476783447265625,0.03320539742708206,0.022946182638406754,-0.003566712373867631
1772741621855798500,5.486798583984375,0.03463684767484665,0.023373886942863464,0.003272551577538252
1772741621865814500,5.496814453125,0.03169988840818405,0.025172173976898193,-0.004033456556499004
1772741621875829500,5.50682958984375,0.030853271484375,0.015750709921121597,-0.0179295651614666
1772741621885845500,5.516845458984375,0.02962152287364006,0.011013593524694443,-0.025518376380205154
1772741621895860500,5.526860595703125,0.028117898851633072,0.01475906278938055,-0.022166522219777107
1772741621905876500,5.53687646484375,0.026880087330937386,0.01749933324754238,-0.015211251564323902
1772741621915892500,5.546892578125,0.024094954133033752,0.023536453023552895,-0.003945548087358475
1772741621925907500,5.556907470703125,0.022731803357601166,0.024936005473136902,0.001509192050434649
1772741621935923500,5.56692333984375,0.018177799880504608,0.0259405504912138,0.0012527297949418426
1772741621945938400,5.5769384765625,0.01291598565876484,0.023354385048151016,-0.0015084089245647192
1772741621955954400,5.586954345703125,0.009010992012917995,0.02006697840988636,-0.004268508870154619
1772741621965969400,5.596969482421875,0.006082505919039249,0.015759415924549103,-0.004776583053171635
1772741621975985400,5.6069853515625,0.000391331035643816,0.01635010540485382,0.004117309581488371
1772741621986000400,5.61700048828125,-0.006494258530437946,0.03203732520341873,0.024345798417925835
1772741621996016400,5.627016357421875,-0.006948860362172127,0.02678770199418068,0.036495406180620193
1772741622006031600,5.637031494140625,-0.005453266203403473,0.02148040197789669,0.03898266702890396
1772741622016047400,5.64704736328125,0.004972211085259914,-0.0060971640050411224,0.031359367072582245
1772741622026062600,5.6570625,0.006250092759728432,-0.015751207247376442,0.023978574201464653
1772741622036078300,5.667078369140625,0.000060906633734703064,-0.02578972652554512,0.018086330965161324
1772741622046093600,5.677093505859375,-0.008071274496614933,-0.043084535747766495,0.006229724269360304
1772741622056109300,5.687109375,-0.007950367406010628,-0.046866755932569504,-0.00007317913696169853
1772741622066125300,5.697125244140625,-0.008183902129530907,-0.043824613094329834,-0.00571060786023736
1772741622076140300,5.707140380859375,-0.010787940584123135,-0.036063097417354584,-0.010083517991006374
1772741622086156300,5.71715625,-0.017659585922956467,-0.042309489101171494,-0.026406487450003624
1772741622096171300,5.727171142578125,-0.023192834109067917,-0.06028289347887039,-0.04758021607995033
1772741622106187300,5.737187255859375,-0.030092190951108932,-0.06985997408628464,-0.06691114604473114
1772741622116202200,5.7472021484375,-0.02989724650979042,-0.0690290704369545,-0.07787404954433441
1772741622126218200,5.75721826171875,-0.025583844631910324,-0.052364397794008255,-0.08035669475793839
1772741622136233200,5.767233154296875,-0.024449869990348816,-0.032446350902318954,-0.08101849257946014
1772741622146249200,5.777249267578125,-0.026716306805610657,-0.011087173596024513,-0.075111523270607
1772741622156264200,5.78726416015625,-0.032126784324645996,0.008331798017024994,-0.06869063526391983
1772741622166280400,5.797280517578125,-0.03490801900625229,0.015689130872488022,-0.060215555131435394
1772741622176295200,5.807295166015625,-0.04518941789865494,0.010942578315734863,-0.06005336716771126
1772741622186311400,5.8173115234375,-0.05113907903432846,0.003397096646949649,-0.058170169591903687
1772741622196326400,5.827326416015625,-0.05022641643881798,0.0010604392737150192,-0.05023688077926636
1772741622206342400,5.83734228515625,-0.04303821548819542,0.020865334197878838,-0.026133114472031593
1772741622216358400,5.8473583984375,-0.038556646555662155,0.05221100524067879,0.004219464026391506
1772741622226373400,5.857373291015625,-0.037614140659570694,0.0689963847398758,0.019999999552965164
1772741622236389400,5.867389404296875,-0.028862465173006058,0.0646173506975174,0.01673070341348648
1772741622246404400,5.877404296875,-0.020880788564682007,0.044869303703308105,-0.016797080636024475
1772741622256420400,5.88742041015625,-0.016166727989912033,0.017009176313877106,-0.06333448737859726
1772741622266435300,5.897435302734375,-0.012922223657369614,-0.011226600036025047,-0.10995781421661377
1772741622276451300,5.907451416015625,-0.01663520187139511,-0.027101436629891396,-0.13296671211719513
1772741622286466300,5.91746630859375,-0.01741185039281845,-0.03950728103518486,-0.12760843336582184
1772741622296482300,5.927482421875,-0.01620703749358654,-0.014324694871902466,-0.08971645683050156
1772741622306497300,5.937497314453125,-0.020245492458343506,0.032123077660799026,-0.03358088433742523
1772741622316513300,5.94751318359375,-0.02515130117535591,0.05695519223809242,0.008170557208359241
1772741622326528300,5.9575283203125,-0.019223127514123917,0.044106628745794296,0.024633260443806648
1772741622336544500,5.96754443359375,-0.008132925257086754,0.025839203968644142,0.026666318997740746
1772741622346559200,5.977559326171875,-0.0004539564251899719,-0.0012070508673787117,0.017159875482320786
1772741622356575500,5.987575439453125,0.0033817943185567856,-0.016547391191124916,0.013989647850394249
1772741622366591500,5.997591552734375,0.004279788583517075,-0.026104694232344627,0.017986034974455833
1772741622376606500,6.0076064453125,0.003216921351850033,-0.031980425119400024,0.01567121595144272
1772741622386622500,6.01762255859375,-0.0002735503949224949,-0.04506579786539078,0.01072602067142725
1772741622396637400,6.027637451171875,0.002474831882864237,-0.04862964153289795,0.006646591238677502
1772741622406653400,6.0376533203125,0.0006167632527649403,-0.053301338106393814,0.009920635260641575
1772741622416668400,6.04766845703125,0.0009288857690989971,-0.044554453343153,0.027152884751558304
1772741622426684400,6.057684326171875,0.002096469048410654,-0.028691720217466354,0.051996439695358276
1772741622436699400,6.067699462890625,0.005144722759723663,-0.021899858489632607,0.0677327960729599
1772741622446715400,6.07771533203125,0.012753095477819443,-0.026253465563058853,0.07076408714056015
1772741622456730400,6.08773046875,0.01778354123234749,-0.037327688187360764,0.05770314484834671
1772741622466746400,6.097746337890625,0.01803521066904068,-0.05055854097008705,0.036309972405433655
1772741622476761300,6.10776123046875,0.019854415208101273,-0.05486886575818062,0.023077789694070816
1772741622486777300,6.11777734375,0.019960129633545876,-0.0647401511669159,0.02322748303413391
1772741622496792300,6.127792236328125,0.018037594854831696,-0.07149764895439148,0.04185682535171509
1772741622506808300,6.137808349609375,0.015085889026522636,-0.08524161577224731,0.06957101821899414
1772741622516823300,6.1478232421875,0.017784204334020615,-0.09477093815803528,0.10195771604776382
1772741622526839600,6.157839599609375,0.03199825808405876,-0.08585482090711594,0.15055787563323975
1772741622536854500,6.1678544921875,0.04948963224887848,-0.0841410830616951,0.1978076845407486
1772741622546870500,6.17787060546875,0.05432327836751938,-0.09594686329364777,0.2262323647737503
1772741622556886500,6.187886474609375,0.05149100720882416,-0.09338303655385971,0.23661337792873383
1772741622566901500,6.197901611328125,0.04758818447589874,-0.10213018208742142,0.21911701560020447
1772741622576917500,6.20791748046875,0.053028494119644165,-0.12358779460191727,0.17022031545639038
1772741622586932500,6.217932373046875,0.06347403675317764,-0.15365150570869446,0.09940968453884125
1772741622596948500,6.227948486328125,0.07043181359767914,-0.17378953099250793,0.03162584453821182
1772741622606963500,6.23796337890625,0.07761791348457336,-0.16188129782676697,-0.0031258477829396725
1772741622616979500,6.2479794921875,0.0748056173324585,-0.13557006418704987,-0.019109874963760376
1772741622626994400,6.257994384765625,0.06601596623659134,-0.11516567319631577,-0.029631948098540306
1772741622637010400,6.268010498046875,0.05790690705180168,-0.09579863399267197,-0.040738124400377274
1772741622647025400,6.278025390625,0.0558578222990036,-0.0833747386932373,-0.05876538157463074
1772741622657041400,6.28804150390625,0.04899485409259796,-0.06484206765890121,-0.08109359443187714
1772741622667056400,6.298056396484375,0.0352630689740181,-0.05267114192247391,-0.11638156324625015
1772741622677072400,6.308072265625,0.02398298680782318,-0.04466408118605614,-0.15408046543598175
1772741622687087400,6.31808740234375,0.009608308784663677,-0.04179958626627922,-0.18149450421333313
1772741622697103600,6.328103515625,-0.008137132972478867,-0.01989668607711792,-0.17811523377895355
1772741622707118600,6.33811865234375,-0.0248758215457201,0.04977603256702423,-0.13339228928089142
1772741622717134600,6.348134521484375,-0.04310303181409836,0.1205974742770195,-0.0802001804113388
1772741622727150300,6.358150390625,-0.05040428414940834,0.13288907706737518,-0.0417473241686821
1772741622737165600,6.36816552734375,-0.045252665877342224,0.14122290909290314,-0.007069772109389305
1772741622747181300,6.378181396484375,-0.0415838323533535,0.12699605524539948,0.02414356730878353
1772741622757196500,6.388196533203125,-0.03353309631347656,0.10854487866163254,0.056303367018699646
1772741622767212300,6.39821240234375,-0.025830890983343124,0.09361855685710907,0.08064965903759003
1772741622777227500,6.4082275390625,-0.02123534120619297,0.06409475207328796,0.07653694599866867
1772741622787243300,6.4182431640625,-0.02314895950257778,0.03550951927900314,0.04162266477942467
1772741622797258500,6.428258544921875,-0.025953534990549088,0.010973550379276276,-0.013072004541754723
1772741622807274200,6.438274169921875,-0.02270764857530594,-0.008869785815477371,-0.07323851436376572
1772741622817289500,6.44828955078125,-0.017507558688521385,-0.01175319030880928,-0.11232253909111023
1772741622827305200,6.45830517578125,-0.02310146763920784,-0.02281379885971546,-0.13948942720890045
1772741622837320400,6.468320556640625,-0.02605917677283287,-0.02155066281557083,-0.14606237411499023
1772741622847336200,6.478336181640625,-0.024966394528746605,0.005472873337566853,-0.12109903246164322
1772741622857351400,6.488351318359375,-0.020103462040424347,0.034534353762865067,-0.07940725237131119
1772741622867367400,6.498367431640625,-0.01423686370253563,0.04881139472126961,-0.036330290138721466
1772741622877382400,6.50838232421875,-0.01574980467557907,0.053377650678157806,0.008220397867262363
1772741622887398400,6.5183984375,-0.01928512379527092,0.04967040941119194,0.04959702119231224
1772741622897414400,6.528414306640625,-0.02240847982466221,0.040420982986688614,0.0857105478644371
1772741622907429400,6.538429443359375,-0.021328363567590714,0.03153052181005478,0.1093282401561737
1772741622917445400,6.5484453125,-0.011973476968705654,0.008675805293023586,0.1184903159737587
1772741622927460400,6.55846044921875,-0.0036030341871082783,-0.003992664627730846,0.11635950952768326
1772741622937476400,6.568476318359375,0.005358503200113773,-0.027355778962373734,0.1003379300236702
1772741622947491300,6.5784912109375,0.012329265475273132,-0.0483657531440258,0.07596118748188019
1772741622957507300,6.58850732421875,0.017650794237852097,-0.06655754148960114,0.05732305720448494
1772741622967522300,6.598522216796875,0.026193108409643173,-0.07403144240379333,0.05582335963845253
1772741622977538300,6.608538330078125,0.03219614177942276,-0.06075745448470116,0.06994130462408066
1772741622987553300,6.61855322265625,0.033158402889966965,-0.04819316044449806,0.0823303610086441
1772741622997569300,6.6285693359375,0.0318547859787941,-0.040680382400751114,0.08171570301055908
1772741623007584300,6.638584228515625,0.03233305364847183,-0.03849248215556145,0.0672423467040062
1772741623017600300,6.648600341796875,0.031221183016896248,-0.03771110996603966,0.057092513889074326
1772741623027615200,6.658615234375,0.02541191875934601,-0.030597329139709473,0.06029382348060608
1772741623037631500,6.668631591796875,0.016190988942980766,-0.003326559206470847,0.06872832030057907
1772741623047646200,6.678646240234375,0.008605267852544785,0.0072290231473743916,0.06677983701229095
1772741623057662500,6.688662353515625,0.009407678619027138,0.003645207267254591,0.05732136219739914
1772741623067677400,6.698677490234375,0.012748528271913528,-0.004879745654761791,0.03700365498661995
1772741623077693400,6.708693359375,0.01733022928237915,-0.011289441026747227,0.004609227180480957
1772741623087708400,6.71870849609375,0.02553490363061428,-0.008805500343441963,-0.033475328236818314
1772741623097724400,6.728724365234375,0.029214859008789062,-0.00630798889324069,-0.07838527858257294
1772741623107740400,6.738740478515625,0.027488136664032936,-0.010017084889113903,-0.12536241114139557
1772741623117755400,6.74875537109375,0.0191351305693388,-0.01977251097559929,-0.16221576929092407
1772741623127771400,6.758771484375,0.01026802510023117,0.00497725885361433,-0.17047271132469177
1772741623137786400,6.768786376953125,0.00008542882278561592,0.031269583851099014,-0.16209226846694946
1772741623147802400,6.77880224609375,-0.005269681569188833,0.0399944894015789,-0.15462626516819
1772741623157817300,6.7888173828125,-0.0062728943303227425,0.04793337360024452,-0.14810657501220703
1772741623167833300,6.798833251953125,-0.0023599807173013687,0.03763275593519211,-0.12956032156944275
1772741623177848300,6.808848388671875,-0.007496419362723827,0.0373467355966568,-0.0953083485364914
1772741623187864300,6.8188642578125,-0.01610933244228363,0.06271202862262726,-0.03168414160609245
1772741623197879300,6.82887939453125,-0.022200513631105423,0.08064495772123337,0.03303360193967819
1772741623207895300,6.838895263671875,-0.023575184866786003,0.08228841423988342,0.08430510014295578
1772741623217910300,6.84891015625,-0.023267855867743492,0.0748952180147171,0.10833213478326797
1772741623227926500,6.858926513671875,-0.017810480669140816,0.050230756402015686,0.10492956638336182
1772741623237941500,6.86894140625,-0.0069386581890285015,0.01716281846165657,0.08327114582061768
1772741623247957500,6.87895751953125,0.00042777275666594505,-0.014694374054670334,0.046939801424741745
1772741623257972500,6.888972412109375,0.007830029353499413,-0.048218246549367905,0.013920068740844727
1772741623267988500,6.898988525390625,0.015924639999866486,-0.0618097297847271,-0.01549854688346386
1772741623278003500,6.90900341796875,0.01762213744223118,-0.05717715993523598,-0.03200508654117584
1772741623288019500,6.91901953125,0.017356595024466515,-0.03939324617385864,-0.034699030220508575
1772741623298035500,6.929035400390625,0.01155676320195198,-0.020624354481697083,-0.032757848501205444
1772741623308050400,6.939050537109375,0.00755478348582983,-0.012193861417472363,-0.018932119011878967
1772741623318066400,6.94906640625,0.006063147448003292,0.00604213448241353,-0.001622903859242797
1772741623328081400,6.959081298828125,0.00044590095058083534,0.012640977278351784,0.008633606135845184
1772741623338097400,6.969097412109375,-0.00514993304386735,0.010437477380037308,0.007632523775100708
1772741623348112400,6.9791123046875,-0.006942765787243843,0.015440501272678375,0.007994959130883217
1772741623358128400,6.98912841796875,-0.0028244531713426113,0.010740021243691444,0.0009863172890618443
1772741623368143400,6.999143310546875,-0.002560456283390522,-0.002289062598720193,-0.01975923404097557
1772741623378159400,7.009159423828125,-0.00020888494327664375,-0.008135765790939331,-0.043855249881744385
1772741623388174300,7.01917431640625,0.000707568135112524,-0.017654405906796455,-0.06803779304027557
1772741623398190600,7.029190673828125,0.007095959037542343,-0.023774616420269012,-0.08098848164081573
1772741623408205600,7.03920556640625,0.009881348349153996,-0.02756521850824356,-0.08833367377519608
1772741623418221600,7.0492216796875,0.013172748498618603,-0.017135214060544968,-0.07940329611301422
1772741623428236500,7.059236572265625,0.007227914407849312,0.0078241266310215,-0.06166348233819008
1772741623438252500,7.06925244140625,0.0004927800036966801,0.01653878763318062,-0.03995126113295555
1772741623448267500,7.079267578125,-0.009720089845359325,0.029299497604370117,0.0004626583540812135
1772741623458283500,7.089283447265625,-0.02024143934249878,0.04190770536661148,0.043819718062877655
1772741623468298500,7.099298583984375,-0.020614929497241974,0.028208617120981216,0.0656471773982048
1772741623478314500,7.109314453125,-0.01459831465035677,0.017383133992552757,0.08385281264781952
1772741623488329500,7.11932958984375,-0.006114436313509941,0.016653744503855705,0.09752236306667328
1772741623498345500,7.129345458984375,0.004367232788354158,0.005170460790395737,0.09722089767456055
1772741623508360400,7.1393603515625,0.009899254888296127,-0.007647925987839699,0.07619483023881912
1772741623518376400,7.14937646484375,0.009656108915805817,-0.0196372102946043,0.04350452870130539
1772741623528392200,7.15939208984375,0.010241487994790077,-0.031749412417411804,0.0025205370038747787
1772741623538407400,7.169407470703125,0.01326204463839531,-0.04229606315493584,-0.03630302473902702
1772741623548423200,7.179423095703125,0.017635375261306763,-0.04718567803502083,-0.057431820780038834
1772741623558438400,7.1894384765625,0.025034168735146523,-0.02378581278026104,-0.04978588595986366
1772741623568454400,7.199454345703125,0.023668579757213593,-0.008773143403232098,-0.03812849149107933
1772741623578469600,7.2094697265625,0.019758792594075203,-0.015518397092819214,-0.023785769939422607
1772741623588485400,7.2194853515625,0.021465526893734932,-0.009891578927636147,0.003852329682558775
1772741623598500600,7.22950048828125,0.017565326765179634,0.006430402398109436,0.03636899217963219
1772741623608516400,7.239516357421875,0.012272714637219906,0.006757653318345547,0.04942559450864792
1772741623618531600,7.249531494140625,0.00730512011796236,-0.00901331938803196,0.04007204249501228
1772741623628547300,7.25954736328125,0.008220573887228966,-0.016575027257204056,0.01776437647640705
1772741623638562600,7.2695625,0.009275984950363636,-0.023899251595139503,0.0006908504292368889
1772741623648578300,7.279578369140625,0.00865708664059639,-0.027117017656564713,-0.012291084043681622
1772741623658593500,7.289593505859375,0.005856773350387812,-0.03289900720119476,-0.024246811866760254
1772741623668609300,7.299609375,0.0038747023791074753,-0.030107418075203896,-0.027087286114692688
1772741623678624500,7.30962451171875,0.0072206975892186165,-0.021791432052850723,-0.024497361853718758
1772741623688640300,7.31964013671875,0.00888872891664505,-0.016709936782717705,-0.02218264527618885
1772741623698655500,7.329655517578125,0.010246673598885536,-0.013864083215594292,-0.01989738643169403
1772741623708671200,7.339671142578125,0.010166632011532784,-0.008162726648151875,-0.016375301405787468
1772741623718686500,7.3496865234375,0.009820155799388885,-0.007677498273551464,-0.013695361092686653
1772741623728702200,7.3597021484375,0.007509476970881224,-0.0023088937159627676,-0.007010083179920912
1772741623738717400,7.369717529296875,0.010119641199707985,0.003958855755627155,0.008504960685968399
1772741623748733200,7.379733154296875,0.014926886186003685,0.00627912487834692,0.016859672963619232
1772741623758749400,7.38974951171875,0.022032465785741806,0.007820828817784786,0.018967298790812492
1772741623768764400,7.399764404296875,0.029862582683563232,0.007679743226617575,0.014693868346512318
1772741623778780400,7.409780517578125,0.03394521027803421,0.004403522238135338,0.004834047053009272
1772741623788795400,7.41979541015625,0.038371890783309937,-0.003419390646740794,-0.008641705848276615
1772741623798811400,7.429811279296875,0.038910117000341415,-0.02146337181329727,-0.024004416540265083
1772741623808826400,7.439826416015625,0.0384516678750515,-0.04023951664566994,-0.03547843173146248
1772741623818842400,7.44984228515625,0.04007832705974579,-0.05077631399035454,-0.035216379910707474
1772741623828857300,7.459857421875,0.04702601581811905,-0.05473894253373146,-0.0266142338514328
1772741623838873300,7.469873291015625,0.0512457937002182,-0.046575821936130524,-0.00330837769433856
1772741623848888300,7.479888427734375,0.05495961010456085,-0.03760826587677002,0.021193886175751686
1772741623858904300,7.489904296875,0.05579184740781784,-0.03232934698462486,0.043446194380521774
1772741623868919300,7.499919189453125,0.05554736405611038,-0.03751692920923233,0.06067313998937607
1772741623878935300,7.509935302734375,0.05215609446167946,-0.03436907008290291,0.07763800770044327
1772741623888950300,7.5199501953125,0.04563557729125023,-0.02326597459614277,0.08425290137529373
1772741623898966300,7.52996630859375,0.03551982715725899,-0.022599652409553528,0.08340361714363098
1772741623908981200,7.539981201171875,0.022607875987887383,-0.017840255051851273,0.08480662107467651
1772741623918997200,7.549997314453125,0.009196996688842773,-0.014641798101365566,0.08350380510091782
1772741623929012200,7.56001220703125,0.0035106264986097813,-0.009517056867480278,0.07509909570217133
1772741623939028500,7.570028564453125,0.007415886037051678,-0.006285577081143856,0.05551926791667938
1772741623949043500,7.58004345703125,0.014592573046684265,-0.016660185530781746,0.013246644288301468
1772741623959059500,7.5900595703125,0.017431501299142838,-0.029114991426467896,-0.04058116674423218
1772741623969074400,7.600074462890625,0.01260779332369566,-0.04867282882332802,-0.10410851985216141
1772741623979090400,7.61009033203125,0.004473432898521423,-0.053224705159664154,-0.15145952999591827
1772741623989105400,7.62010546875,-0.0007094908505678177,-0.033517513424158096,-0.1705186516046524
1772741623999121400,7.630121337890625,-0.008358089253306389,-0.004414224997162819,-0.16252996027469635
1772741624009136400,7.640136474609375,-0.014527346007525921,0.032672956585884094,-0.13391251862049103
1772741624019152400,7.65015234375,-0.02296610362827778,0.07446940243244171,-0.09410305321216583
1772741624029168400,7.66016845703125,-0.03347177803516388,0.09294385462999344,-0.05869565159082413
1772741624039183400,7.670183349609375,-0.03822445496916771,0.09647253900766373,-0.03679407760500908
1772741624049199400,7.680199462890625,-0.03973846137523651,0.08463425934314728,-0.027097508311271667
1772741624059214300,7.69021435546875,-0.03875495493412018,0.0685809850692749,-0.025649281218647957
1772741624069230300,7.700230224609375,-0.03749539703130722,0.04973055422306061,-0.02303386479616165
1772741624079245300,7.710245361328125,-0.033737145364284515,0.03837670013308525,-0.018067335709929466
1772741624089261300,7.72026123046875,-0.02995430678129196,0.03518613055348396,-0.016786150634288788
1772741624099276300,7.7302763671875,-0.023250598460435867,0.020134741440415382,-0.019736401736736298
1772741624109292500,7.74029248046875,-0.013700943440198898,0.009456450119614601,-0.02727751061320305
1772741624119307300,7.750307373046875,-0.0035907847341150045,-0.009307916276156902,-0.03333833068609238
1772741624129323500,7.760323486328125,0.0034827543422579765,-0.0009446882177144289,-0.029212232679128647
1772741624139338500,7.77033837890625,0.003773038275539875,0.0071380059234797955,-0.01959635689854622
1772741624149354500,7.7803544921875,-0.0003476142883300781,0.010708792135119438,-0.011082718148827553
1772741624159369500,7.790369384765625,-0.0018176792655140162,0.028364485129714012,-0.0003736150683835149
1772741624169385500,7.800385498046875,-0.0009695547632873058,0.018040554597973824,-0.012912208214402199
1772741624179400400,7.810400390625,0.0003188825212419033,0.014782178215682507,-0.024260737001895905
1772741624189416400,7.82041650390625,0.009099270217120647,0.027802087366580963,-0.02217899076640606
1772741624199431400,7.830431396484375,0.01143273152410984,0.04649081826210022,-0.011845393106341362
1772741624209447400,7.840447509765625,0.005112985149025917,0.05551756173372269,-0.011960981413722038
1772741624219462400,7.85046240234375,0.00392734631896019,0.04175674170255661,-0.029798300936818123
1772741624229478400,7.860478515625,0.009182209149003029,0.017504224553704262,-0.06128796935081482
1772741624239493400,7.870493408203125,0.0049818712286651134,-0.001693969825282693,-0.08022703975439072
1772741624249509400,7.88050927734375,0.00443172175437212,0.01143517903983593,-0.07010992616415024
1772741624259524400,7.8905244140625,0.003024773672223091,0.04087669029831886,-0.04046521708369255
1772741624269540400,7.900540283203125,-0.00678740069270134,0.06239516660571098,-0.011349585838615894
1772741624279555300,7.910555419921875,-0.01623230054974556,0.050436507910490036,-0.007792933844029903
1772741624289571300,7.9205712890625,-0.016201891005039215,0.029035886749625206,-0.00805678777396679
1772741624299586300,7.93058642578125,-0.013531005941331387,0.008375084027647972,-0.010521809570491314
1772741624309602600,7.9406025390625,-0.004473595414310694,-0.00012998771853744984,0.003253923961892724
1772741624319617500,7.950617431640625,0.0024559497833251953,0.015439383685588837,0.029751578345894814
1772741624329633500,7.960633544921875,0.00379845779389143,0.01486043632030487,0.040561310946941376
1772741624339649500,7.9706494140625,0.007481875829398632,0.007473359350115061,0.039282459765672684
1772741624349664500,7.98066455078125,0.005716158542782068,-0.016621766611933708,0.017945915460586548
1772741624359680500,7.990680419921875,0.004757154267281294,-0.04381929710507393,-0.007127481047064066
1772741624369695500,8.000695556640625,0.0036919559352099895,-0.051336027681827545,-0.02233652025461197
1772741624379711500,8.01071142578125,0.0043819802813231945,-0.03673817962408066,-0.029427187517285347
1772741624389726500,8.0207265625,0.002411820460110903,-0.026151303201913834,-0.04348194971680641
