time,seconds_elapsed,z,y,x
1772619037294770400,0.0797705078125,-0.13327800511121748,0.06462795499414205,-0.02164294587895274
1772619037304800500,0.089800537109375,-0.12349895389676094,0.09660963179692625,-0.00921820246130228
1772619037314831600,0.09983154296875,-0.04990004920065403,0.12127119484469294,0.04627250635325909
1772619037324862500,0.109862548828125,-0.014973112726211548,0.12999313822165132,0.11147924761604518
1772619037334892500,0.119892578125,-0.013764905980229378,0.12759455264732242,0.0846149503596127
1772619037344923400,0.12992333984375,-0.016469488763809204,0.1313913145817816,0.043760194738768035
1772619037354954500,0.13995458984375,-0.013355156135559081,0.10400617178902029,0.06010733576454222
1772619037364984600,0.149984619140625,0.03107610626518726,0.0850692699983716,0.07994308609105646
1772619037375015400,0.160015380859375,0.02967442277371883,0.052737756844609976,0.09545099981371313
1772619037385046500,0.170046630859375,-0.04012976581454277,0.016966770761460064,0.10736625933926552
1772619037395077400,0.180077392578125,-0.07972586314380169,-0.016206746174395083,0.0860745015181601
1772619037405107500,0.190107421875,-0.12041735449433326,-0.03319675168097019,0.04639558474365622
1772619037415138600,0.200138671875,-0.13750526741743088,-0.07031769106835127,0.024594233432598412
1772619037425169400,0.21016943359375,-0.11132277841269969,-0.09074804628714919,0.041607583282142875
1772619037435199500,0.220199462890625,-0.04464052123725414,-0.10636749409288167,0.03313818989414721
1772619037445230600,0.230230712890625,0.016048633003234863,-0.12223097978755831,0.045671910111606116
1772619037455261400,0.240261474609375,0.023649755656719205,-0.11682736717835068,0.06297668065577745
1772619037465292500,0.25029248046875,-0.007714519900083541,-0.08265446394160389,0.09191643247939646
1772619037475322400,0.260322265625,-0.0529816486030817,-0.04593582174479961,0.0904638955835253
1772619037485353500,0.270353515625,-0.06756079357564448,-0.017892507304251192,0.08376783201098442
1772619037495384600,0.280384521484375,-0.03230886293053627,0.002941314148902893,0.10720401798225938
1772619037505414400,0.290414306640625,0.01577332319319248,0.032826310933381314,0.12653817546218632
1772619037515445500,0.300445556640625,0.06483516800403595,0.0703989396110177,0.15749248197861015
1772619037525476400,0.310476318359375,0.08292202883660793,0.12954130280092357,0.2079159705314785
1772619037535507700,0.3205078125,0.11071019947230815,0.14932123128697275,0.1918650725059211
1772619037545537500,0.33053759765625,0.09354279157221317,0.1752212500885129,0.17666447116676717
1772619037555568400,0.340568359375,0.07881167090833187,0.15076733844205736,0.10465816942434758
1772619037565599700,0.350599853515625,0.033491350713372225,0.06251183962300419,0.009308511093258857
1772619037575629600,0.360629638671875,-0.03466507066786289,-0.004448357710987329,-0.12412136011142283
1772619037585660400,0.370660400390625,-0.02586567814052105,-0.027300094857811926,-0.1826999884713441
1772619037595691500,0.38069140625,0.05373918897211551,-0.059642421666532754,-0.2061688711358234
1772619037605722600,0.39072265625,0.12505787377655506,-0.0861973972454667,-0.1825486703671515
1772619037615752400,0.40075244140625,0.1711971091389656,-0.06095949561446905,-0.117072501045838
1772619037625783600,0.410783447265625,0.18522914162278173,-0.04582490871623158,-0.0533772603245452
1772619037635814700,0.420814697265625,0.14138298563361168,-0.013387450969964266,0.02699855462796986
1772619037645844500,0.430844482421875,0.05996317805349827,0.03442512443214655,0.08405691461805254
1772619037655875300,0.440875244140625,-0.02169160732626915,0.07365311910137534,0.1275499463206157
1772619037665906700,0.45090673828125,-0.08550503106713295,0.06979892789125441,0.18696206636261195
1772619037675936500,0.4609365234375,-0.13310557115375996,0.057012219293415545,0.18540047960169612
1772619037685967400,0.47096728515625,-0.13725392300486564,0.06728051532953977,0.15053389501236378
1772619037695998700,0.480998779296875,-0.14212883556485176,0.03550035244822502,0.10778192746806889
1772619037706029600,0.491029541015625,-0.15663842243254184,0.014120733680576085,0.07097199025861918
1772619037716059400,0.501059326171875,-0.1584562855094671,0.019937018743902444,0.055286710675060746
1772619037726090800,0.5110908203125,-0.16448972045481203,0.014722791226953268,0.06633607408627867
1772619037736121600,0.52112158203125,-0.15675883394181728,0.02060249691531062,0.07733520514760166
1772619037746151400,0.5311513671875,-0.18088088328540325,0.008082184168696403,0.06948145943991839
1772619037756182800,0.541182861328125,-0.1906692868500948,0.022811697397381064,0.10466627966556698
1772619037766213600,0.551213623046875,-0.14775018257796763,0.05223872128129005,0.12501352317817507
1772619037776244700,0.56124462890625,-0.08579963009953498,0.07431056009680033,0.16194810968060044
1772619037786274600,0.571274658203125,-0.04233925855755806,0.10322875767573714,0.18380674413684756
1772619037796305700,0.5813056640625,0.00850888514816761,0.10396467073485255,0.1793359553983435
1772619037806336800,0.591336669921875,0.07390928581953048,0.08283288924843073,0.19273020143527536
1772619037816366600,0.60136669921875,0.1388116738408804,0.047211686899513,0.15108356478437782
1772619037826397700,0.611397705078125,0.15166238758563994,0.040784722591936586,0.11438830346316098
1772619037836428500,0.621428466796875,0.16903671623468397,0.0188093298882246,0.0656240533594042
1772619037846459600,0.631459716796875,0.1634638845384121,0.005939473051577806,0.018520904868282378
1772619037856489700,0.64148974609375,0.15697744512856004,0.005927782613784074,-0.012795878284983336
1772619037866520600,0.6515205078125,0.11225801343619823,0.011560820064693689,-0.024919227603264153
1772619037876551700,0.6615517578125,0.06409048711657524,-0.0037007542140781876,-0.07559957699403166
1772619037886581800,0.671581787109375,0.0009393266767263412,-0.02990428600683808,-0.1284586221307516
1772619037896612600,0.681612548828125,-0.060333180409669875,-0.03937383288070559,-0.14076865312755107
1772619037906643700,0.691643798828125,-0.07869652009606361,-0.059328679542243475,-0.11736330068595707
1772619037916674600,0.701674560546875,-0.10938041217327117,-0.03245528566390276,-0.08885295325554907
1772619037926704600,0.71170458984375,-0.12773673759698867,-0.014813538250327109,-0.0731810080775991
1772619037936735700,0.72173583984375,-0.1730348459601402,0.0002862695954740047,-0.039414091825857756
1772619037946766600,0.7317666015625,-0.21200784295499323,0.044604427010565995,-0.03558112606685608
1772619037956796700,0.741796630859375,-0.2379518470287323,0.06694499976485967,-0.04593830596283078
1772619037966827500,0.75182763671875,-0.19409926129877567,0.04428527805879712,-0.05795541842766106
1772619037976858600,0.761858642578125,-0.11162146909832954,0.019050445167720316,-0.06352799439560622
1772619037986888700,0.771888671875,-0.06992752270698548,0.005620470230281353,-0.07613952908962965
1772619037996919600,0.78191943359375,-0.025876199534535408,0.005891103865206242,-0.056398325178772205
1772619038006950700,0.79195068359375,0.009932195949554443,0.0011798574343323707,-0.052628341653384265
1772619038016981500,0.8019814453125,0.07296937462091445,0.008852437888830899,-0.017224033458158372
1772619038027011600,0.812011474609375,0.049583238336443895,0.009305150092393159,0.033201537453942
1772619038037042700,0.822042724609375,0.012659575086832046,0.03725494103059172,0.06422624232545494
1772619038047073500,0.832073486328125,0.008007949888706206,0.05730842576101422,0.097247929700464
1772619038057104600,0.842104736328125,0.030950434058904647,0.03569222175851464,0.11324388266839086
1772619038067134700,0.852134765625,0.0904524243414402,-0.005667378111928701,0.08638170430380851
1772619038077165600,0.86216552734375,0.11829554003477095,-0.03187909321114421,0.07092245202846825
1772619038087196700,0.87219677734375,0.12017127077877521,-0.0451148607507348,0.03364986574333161
1772619038097226500,0.8822265625,0.12911445569097996,-0.04767302080094814,0.030148543091490863
1772619038107257600,0.892257568359375,0.07768062105178833,-0.01895677553489804,0.04189710428062826
1772619038117288700,0.902288818359375,0.036437925559282304,0.0018874211817979812,0.04840703416392207
1772619038127318500,0.912318603515625,-0.012822072172164916,-0.013575813148915768,0.06431684321835637
1772619038137349600,0.922349609375,-0.04374620274603366,0.005014467161148786,0.11316084402743726
1772619038147380500,0.93238037109375,-0.04678337848484516,0.039702480313181875,0.07820610623061656
1772619038157410800,0.942410888671875,-0.004542904126644134,0.029204174913465976,0.055589456481300294
1772619038167441000,0.95244091796875,0.03736439275443554,0.013700462441891431,0.05848473953139036
1772619038177472000,0.962471923828125,0.02680851194858551,0.01622340504825115,0.025537761360406874
1772619038187502800,0.9725029296875,-0.00447509958744049,0.08087824804931878,-0.002471358549594879
1772619038197533000,0.982532958984375,-0.03433890745341778,0.1103587556861341,0.03305467632915825
1772619038207563800,0.992563720703125,-0.017911504265666008,0.1360303725592792,0.04921188427340239
1772619038217595000,1.002594970703125,0.024455811342597007,0.17549144533202052,0.05132734205741435
1772619038227625700,1.012625732421875,0.07383095988631248,0.1609649073295295,0.04434742004219442
1772619038237655800,1.02265576171875,0.12469488568305968,0.1235702655673027,-0.023452881377749143
1772619038247687000,1.03268701171875,0.14514847564697264,0.10787950609102845,-0.032854660245031114
1772619038257717800,1.0427177734375,0.13218728726506232,0.10156652355194092,-0.0358782458499074
1772619038267747800,1.052747802734375,0.12365092958807944,0.10122107111513615,-0.02288173042628914
1772619038277779000,1.062779052734375,0.07583060927093029,0.12443871896490453,-0.009920615109615028
1772619038287809800,1.072809814453125,0.01208908172249794,0.11530804865658283,-0.006514167666994035
1772619038297839900,1.08283984375,-0.06250760183930397,0.11148045319244265,-0.011246749146841466
1772619038307871000,1.09287109375,-0.05673427913486957,0.079969608771801,-0.026476905374042688
1772619038317901800,1.10290185546875,-0.041456045982241625,0.03234130389541388,-0.003411488943919539
1772619038327933000,1.112932861328125,-0.023337036445736883,-0.016208353609591723,-0.003909830387495458
1772619038337962800,1.122962646484375,-0.007660159364342689,-0.050841860095411535,0.01541011590398848
1772619038347993900,1.132993896484375,-0.028696517652273178,-0.08348448502495884,0.041258678512927145
1772619038358025000,1.14302490234375,-0.07969312991797924,-0.0927571941524744,0.020571992179192602
1772619038368054800,1.1530546875,-0.14839315665662287,-0.11831117599532008,0.006855345787480473
1772619038378086000,1.1630859375,-0.2054348943054676,-0.10930661628469825,-0.029308219809830185
1772619038388116700,1.17311669921875,-0.21298282546699046,-0.09554770165383815,-0.013001319462899117
1772619038398147800,1.18314794921875,-0.18052841658592222,-0.0891110927350819,0.006564473082125186
1772619038408178000,1.193177978515625,-0.10871756435036659,-0.07057239648178219,0.014142634985130279
1772619038418208800,1.203208740234375,-0.03910159181058406,-0.05361380902677774,0.03031041912231594
1772619038428240000,1.213239990234375,-0.003954290583729743,-0.03201835555136204,0.05997468582820147
1772619038438270000,1.22327001953125,-0.02485211718380451,-0.0076550447978079314,0.06942406669687479
1772619038448300800,1.23330078125,-0.044804187366366384,0.058832566588371986,0.08895418514031916
1772619038458332000,1.243331787109375,-0.05068272401094436,0.09141016345769166,0.14549915224816648
1772619038468362800,1.25336279296875,0.025669863307476042,0.1145490469828248,0.14903496169149874
1772619038478392800,1.263392822265625,0.09653612816929817,0.11237988625019787,0.15527696135360747
1772619038488424000,1.273423828125,0.16707681433856486,0.1091004261881113,0.14801212144978343
1772619038498454800,1.283454833984375,0.21218203047811984,0.0948459831252694,0.12004574470296502
1772619038508484900,1.29348486328125,0.2160878057450056,0.07513166722133756,0.11021154750147834
1772619038518515700,1.303515625,0.179641112357378,0.039560295363515616,0.09868115910766646
1772619038528546800,1.313546875,0.15416940197050572,0.02416150457113981,0.05749172817235812
1772619038538577000,1.323576904296875,0.05102466931641102,0.015203122089803218,0.06709503922741859
1772619038548607700,1.333607666015625,0.006080781218409538,0.025234102238714695,0.06573293882766738
1772619038558638800,1.343638916015625,0.022474866658449173,0.013528759136795996,0.07930601203022525
1772619038568669700,1.353669677734375,0.0656610974341631,-0.03020341508388519,0.09379265641374512
1772619038578699800,1.36369970703125,0.07005494847893715,-0.062034431369602676,0.10015342361731454
1772619038588731000,1.37373095703125,0.06914017172157765,-0.07385273332670331,0.05912561298450455
1772619038598761700,1.38376171875,0.03169511494636536,-0.11324293282032012,-0.0012415610263124108
1772619038608791800,1.393791748046875,-0.04657704225778579,-0.1208781038738787,-0.018437044243421404
1772619038618823000,1.403822998046875,-0.10471592749357223,-0.10989391465336083,-0.038666561394184826
1772619038628853800,1.413853759765625,-0.13114917638897894,-0.09012143882140516,-0.06788989766584709
1772619038638884900,1.423884765625,-0.10143091447353363,-0.07962897864058613,-0.0658292936079204
1772619038648914700,1.433914794921875,-0.07345160517990589,-0.05690978183224797,-0.034563747451547534
1772619038658945800,1.44394580078125,-0.02189151381254196,0.0065166884176433085,0.03088491280833259
1772619038668977000,1.453976806640625,-0.016126958936452863,0.03950666548013687,0.07605038950145245
1772619038679006700,1.4640068359375,-0.0265519068390131,0.07344809804856776,0.055289067028928544
1772619038689037800,1.474037841796875,-0.017265023055672644,0.08972060293555259,0.0714011571898125
1772619038699068700,1.484068603515625,-0.010462941825389862,0.08739771294593811,0.09482265704860911
1772619038709098800,1.4940986328125,0.02168459306359291,0.12341478274464607,0.07983903206153772
1772619038719129900,1.5041298828125,0.04115969338417053,0.1260626669049263,0.0807229570229072
1772619038729160700,1.51416064453125,0.07725216650664805,0.11095336057841777,0.06998455925700255
1772619038739191800,1.52419189453125,0.1098930378705263,0.09397533777058124,0.08499264283189549
1772619038749222000,1.534221923828125,0.11375146686434745,0.06521276914477347,0.07721905882149004
1772619038759252700,1.544252685546875,0.06548690991103649,0.04965250418037176,0.0621211872044485
1772619038769283800,1.554283935546875,0.015291677156090736,0.04248232029005885,0.05077829333990812
1772619038779314000,1.56431396484375,-0.02747077524960041,0.030237317353487014,0.04358556882422417
1772619038789344800,1.5743447265625,-0.08147066098451614,0.011286971559375523,0.03645610053678974
1772619038799376000,1.5843759765625,-0.11031272458732128,0.027720804487913846,0.03971332136760466
1772619038809406700,1.59440673828125,-0.1117319437354803,0.03621230010986328,0.0575989148738794
1772619038819436800,1.604436767578125,-0.13882161071300506,0.04331161072105169,0.0806601209197659
1772619038829467600,1.614467529296875,-0.13609832322895526,0.04092003940939903,0.05933973979237489
1772619038839498800,1.624498779296875,-0.10400748696327208,0.0384159476339817,0.019548466950887813
1772619038849528800,1.63452880859375,-0.09507423892319201,0.026238749236613512,0.05252905513052828
1772619038859559700,1.6445595703125,-0.1482563785344362,-0.0040963294029235835,0.07020902479579672
1772619038869590800,1.6545908203125,-0.12589374007880688,-0.008885171114653348,-0.0038023331587202845
1772619038879620900,1.664620849609375,-0.04413958597779274,-0.004646218370646238,-0.03540669194855727
1772619038889651700,1.674651611328125,0.04102291526198387,-0.01879252488389611,-0.022419355345238
1772619038899682800,1.684682861328125,0.1119493858784437,-0.006882160729169845,0.01970904607377015
1772619038909713700,1.694713623046875,0.11990882045030593,-0.0032087329134345053,0.07912740406030788
1772619038919743700,1.70474365234375,0.1248468613743782,0.004609247361123562,0.07379641829589381
1772619038929774800,1.71477490234375,0.11531564744114875,0.0031055647999048233,0.041974471232621
1772619038939805700,1.7248056640625,0.10313830291330814,-0.029810762504488227,0.012223540023434907
1772619038949835800,1.734835693359375,0.05200198991596698,-0.03427767878547311,-0.04301618057158775
1772619038959867000,1.744866943359375,0.0019493805021047592,-0.01746770602092147,-0.09175426418762654
1772619038969897700,1.754897705078125,-0.015386954224109649,0.013012772438675164,-0.06326516047464684
1772619038979928800,1.7649287109375,-0.05037409645318985,0.042033699739724394,0.0015825930163264274
1772619038989958700,1.774958740234375,-0.10231354252696037,0.07268719667866826,0.07489895444400609
1772619038999989800,1.78498974609375,-0.1244195758730173,0.09974924499690532,0.11912327782949432
1772619039010020600,1.7950205078125,-0.12247019537091254,0.09544102640897036,0.14143424089681356
1772619039020050700,1.80505078125,-0.09792729026675223,0.08164587142094969,0.1632324504027143
1772619039030081800,1.815081787109375,-0.08269523434340953,0.07467457110360265,0.143317488226993
1772619039040112600,1.825112548828125,-0.04670271446406841,0.041454876938462254,0.10887353123021311
1772619039050143700,1.835143798828125,0.0016729016482830046,0.015467325983941554,0.039712700313096864
1772619039060173800,1.845173828125,0.0071107087880373,0.01033931544572115,0.009929355538496746
1772619039070204700,1.85520458984375,-0.01625789183974266,0.0070027183689177035,-0.015203523948602377
1772619039080235800,1.86523583984375,-0.03231003197431564,0.0575358047761023,0.003857689208304509
1772619039090265900,1.875265869140625,-0.03745265555977821,0.07322787942662835,0.01448450722536072
1772619039100296700,1.885296630859375,-0.05364566546976566,0.08744812795892358,0.0202968832985498
1772619039110327800,1.895327880859375,-0.0454962612837553,0.08249255137816071,0.03538893709615804
1772619039120357600,1.905357666015625,-0.01940671125948429,0.0667595601953566,0.05101061339159496
1772619039130388700,1.915388671875,0.00025368250012397763,0.0413134226411581,0.013186311507830395
1772619039140419800,1.925419921875,0.013764905980229378,0.004722936868667602,-0.00755670812302269
1772619039150450700,1.93545068359375,0.0071329206198453895,-0.027675504041463135,-0.006646589274471626
1772619039160480800,1.945480712890625,0.030404490613937376,-0.02720481778979301,-0.0184744719106704
1772619039170511600,1.95551171875,0.08201660442948341,-0.011890782671421766,-0.004000604810332879
1772619039180542700,1.965542724609375,0.09220131383538245,-0.024767946031689643,0.015176836871076375
1772619039190572800,1.97557275390625,0.11039280408620834,-0.0179303550966084,-0.006331394978612661
1772619039200603600,1.985603759765625,0.07428162626326083,-0.01832549189403653,-0.01987224641200155
1772619039210634800,1.995634765625,0.047480128577351566,-0.03385316976308823,-0.02977061315719038
1772619039220664800,2.005664794921875,0.01930383540689945,-0.04000131712928414,-0.03591450447337702
1772619039230695700,2.01569580078125,-0.00487725064754486,-0.018630173929035664,-0.011970990034472197
1772619039240726800,2.025726806640625,-0.016354922473430632,0.004571107307821512,0.0049357759017497295
1772619039250757600,2.035757568359375,0.012013093876838684,0.0006534954726696014,0.0229135320703499
1772619039260787700,2.04578759765625,0.024821722045540808,-0.031253216397762296,0.016204590749926865
1772619039270818800,2.05581884765625,0.00608896452486515,-0.04851210197359323,0.006274331029132009
1772619039280849700,2.065849609375,-0.027740239840745924,-0.036432372601330275,0.0018975224507041275
1772619039290879700,2.075879638671875,-0.03707797702848911,-0.03493190491050482,0.01738393672760576
1772619039300910600,2.08591064453125,-0.04486965381801128,-0.04269362495318055,0.059950610832870004
1772619039310941700,2.095941650390625,-0.0720914227426052,-0.01406783444955945,0.10640388058051466
1772619039320972800,2.105972900390625,-0.10228373191058635,0.0240203425347805,0.14451377620631828
1772619039331002600,2.116002685546875,-0.14031097248792648,0.04875599373206496,0.1698415298115462
1772619039341033700,2.12603369140625,-0.16915478965640068,0.06527925850972532,0.1433423030078411
1772619039351064800,2.13606494140625,-0.15293956791460514,0.07735913401246071,0.15456925147566944
1772619039361094700,2.1460947265625,-0.12996084338724612,0.07258271339088677,0.15827594224018976
1772619039371125800,2.156125732421875,-0.10114975944459438,0.05734028220400214,0.08952984787011518
1772619039381156900,2.166156982421875,-0.04665770627856254,0.07912395172789692,0.11405134486006573
1772619039391186700,2.176186767578125,0.027118893072009084,0.08466726506873964,0.12227467279881238
1772619039401217800,2.1862177734375,0.037813890087604524,0.07255801734104753,0.11144457816146314
1772619039411249000,2.196248779296875,0.07078267823159694,0.08317775716334581,0.10935259258458391
1772619039421280000,2.206280029296875,0.08127016997635364,0.0816371035926044,0.10777367109637707
1772619039431309800,2.216309814453125,0.10570844566226005,0.07954933753311634,0.1154107966450043
1772619039441341000,2.2263408203125,0.13358312553763388,0.08123655996769666,0.10555060648573562
1772619039451372000,2.2363720703125,0.1636409946709871,0.09509659688547253,0.11846176344715058
1772619039461401600,2.246401611328125,0.14658581497371195,0.08957315728887916,0.13296155957318842
1772619039471433000,2.256432861328125,0.12133797647058964,0.07094722114354371,0.09141051051756366
1772619039481463800,2.2664638671875,0.09139116649627685,0.04566606489270925,0.05160566580845043
1772619039491495000,2.276494873046875,0.062295420393347734,0.04070420470163226,0.004989606714528054
1772619039501525000,2.28652490234375,0.043623453149199486,0.024289076473563907,-0.009906970176752657
1772619039511555800,2.296555908203125,0.003441664886474609,0.017754267877340316,-0.016987777016870678
1772619039521587000,2.3065869140625,-0.04150573034286499,0.02668678526505828,-0.020393859133310616
1772619039531617000,2.316616943359375,-0.08736965589523316,0.016924246793985367,-0.009419095328263937
1772619039541648000,2.32664794921875,-0.07976093445718288,0.0043913668267428875,-0.03987297804187983
1772619039551679000,2.336678955078125,-0.07149754850268364,-0.030485154634714125,-0.06303217370267956
1772619039561708800,2.346708740234375,-0.045773909181356424,-0.03372589012160897,-0.06616899215737357
1772619039571740000,2.356739990234375,-0.008175707671046256,-0.04018032695800066,-0.07163264612443744
1772619039581771000,2.36677099609375,0.007956511962413787,-0.03134557085633278,-0.07758881458248942
1772619039591801900,2.3768017578125,-0.0569552284091711,-0.048098844997584815,-0.07690488743893802
1772619039601832000,2.38683203125,-0.15979951681196689,0.005775806922465563,-0.05505701183872297
1772619039611862800,2.39686279296875,-0.21979893522262572,0.0517955075584352,-0.057561395875085145
1772619039621894000,2.406893798828125,-0.18350246396064757,0.056191112168878316,-0.047539000891428436
1772619039631924000,2.416924072265625,-0.10534604209065437,0.014288783723860977,-0.010964132813178002
1772619039641954800,2.426954833984375,-0.03410334513187408,-0.005105506445467472,-0.0073345624054782085
1772619039651986000,2.43698583984375,-0.009743395379185676,-0.01813303806185722,0.0019599749613553284
1772619039662016800,2.447016845703125,-0.004824643677473068,-0.00535655859708786,0.013715075489133595
1772619039672046800,2.457046875,-0.012926701590418815,0.024778905817121267,0.038385515963099893
1772619039682078000,2.467077880859375,0.03442775478065014,0.04535349181219935,0.05272197475358843
1772619039692108800,2.47710888671875,0.07141746900379657,0.053582829366624354,0.0779521862684749
1772619039702139000,2.487138916015625,0.07418927180469036,0.0356068815626204,0.09760070692719891
1772619039712170000,2.497169921875,0.07298632575571537,0.05793722518384456,0.10912883029868825
1772619039722200800,2.507200927734375,0.0923953751027584,0.0767677439905703,0.11342059094216674
1772619039732231000,2.51723095703125,0.11752747827172279,0.05066007378771901,0.14044075461374594
1772619039742261800,2.52726171875,0.11336334432959556,0.032195757944881914,0.13856650344077498
1772619039752292900,2.53729296875,0.03134557085633278,0.04391176857128739,0.13335981990946455
1772619039762324000,2.547323974609375,-0.05179565368890762,0.0510198470108211,0.1270396221783012
1772619039772353800,2.557353759765625,-0.10900924077332019,0.06545607638135552,0.12652476799134163
1772619039782385000,2.567385009765625,-0.10751169569194316,0.08651260067448019,0.16109200430791823
1772619039792415700,2.577415771484375,-0.091140991127491,0.07303221072405576,0.14758198640421033
1772619039802445800,2.58744580078125,-0.10332359635233879,0.025892858408391475,0.15985340242367238
1772619039812477000,2.597476806640625,-0.11394845074117183,0.012838584915548562,0.14786467580311
1772619039822507800,2.6075078125,-0.12724924634099005,-0.007304477794468403,0.09754384390711784
1772619039832537900,2.617537841796875,-0.13957973560392856,-0.04502046046555042,0.0753989581217058
1772619039842569000,2.62756884765625,-0.10341127463579178,-0.04071341092139482,0.06995961661199107
1772619039852599800,2.637599853515625,-0.05864215858280658,-0.04915639122650027,0.06879287438755854
1772619039862631000,2.647630859375,-0.016639000111818313,-0.07874284345582128,0.0710912875230424
1772619039872661000,2.657660888671875,-0.002959434327483177,-0.07337254859432578,0.050358003834914414
1772619039882691800,2.66769189453125,-0.0006394669473171234,-0.03089826548025012,0.042762817731872196
1772619039892723000,2.677722900390625,-0.0030611411362886426,0.006115121879428625,0.07110173585182056
1772619039902752800,2.687752685546875,0.00640226825773716,0.023448972387611865,0.0694464246591553
1772619039912784000,2.697783935546875,0.04332885411679745,0.0599782294921577,0.07768473097132518
1772619039922814700,2.707814697265625,0.08874678946733475,0.04943082425370812,0.08285842554848641
1772619039932845800,2.717845703125,0.11012333949506282,0.0327985461436212,0.08117027153214439
1772619039942876000,2.7278759765625,0.10607026471197605,0.023140198699384926,0.06141165982875973
1772619039952906800,2.73790673828125,0.12041034023165702,0.04109232723638415,0.05168355335025116
1772619039962937900,2.747937744140625,0.08634849615395068,0.025978929256647822,0.08186002562828361
1772619039972968000,2.757968017578125,0.06935176864564419,0.029008798471838234,0.08239868081593886
1772619039982998800,2.767998779296875,0.044991818892955775,0.043488428592681885,0.10538334189373999
1772619039993030000,2.77802978515625,0.005959785187244415,0.0298773979999125,0.09890503099141641
1772619040003060000,2.78806005859375,-0.011372457885742187,0.03508987195119261,0.06502910140724852
1772619040013090800,2.7980908203125,-0.01881283701956272,-0.00141059745028615,0.04267864657975733
1772619040023122000,2.808121826171875,-0.023645664003491402,-0.02292217203453183,0.050083497742470354
1772619040033152800,2.81815283203125,-0.04126432280242443,-0.0015380232222378253,0.05282987384116277
1772619040043182800,2.828182861328125,-0.056627311629056924,0.020135463925451038,0.07879121264219284
1772619040053214000,2.8382138671875,-0.08047814281582832,0.0375065777041018,0.08930500787198543
1772619040063244800,2.848244873046875,-0.09132277743518352,0.041217561051249504,0.10272205026261508
1772619040073275000,2.85827490234375,-0.10441606776416301,0.03272942643016576,0.10230592547608539
1772619040083305700,2.8683056640625,-0.10240881959497929,0.006075812782347202,0.06540213597072288
1772619040093336800,2.8783369140625,-0.08686813611388206,0.006619710400700569,0.059985042825434355
1772619040103367700,2.88836767578125,-0.04608429030478001,0.025789836425334212,0.07090148230567574
1772619040113397800,2.898397705078125,0.004053074783086776,0.047352264413982624,0.0737125759373419
1772619040123428900,2.908428955078125,0.04009995519816875,0.03665083765760064,0.06051586176650598
1772619040133459700,2.918459716796875,0.07388064424693584,0.03546396596059203,0.05904171582702547
1772619040143489800,2.92848974609375,0.08369125964343548,0.04539616191014647,0.04640451696878299
1772619040153521000,2.93852099609375,0.09579027823805808,0.02904211621955037,0.025068974804878234
1772619040163552300,2.94855224609375,0.08363105388879775,0.024437983424961566,0.0352396556854248
1772619040173582000,2.95858203125,0.062443304431438446,0.0341669118873775,0.05793304219907149
1772619040183613200,2.96861328125,0.046289457488059994,0.04249401072785258,0.06969714801721275
1772619040193644300,2.978644287109375,0.030995442244410514,0.05538885587528348,0.05860073059387505
1772619040203675400,2.98867529296875,0.010248422291874885,0.03920359088033438,0.05338569935932755
1772619040213705200,2.998705322265625,0.020794950747489927,0.023190759842842815,-0.01319454048005864
1772619040223736300,3.008736328125,0.0038204350709915157,-0.011018676012009381,-0.06192309821592643
1772619040233767200,3.01876708984375,-0.04258300418555736,-0.022470482744276522,-0.06581247033728287
1772619040243797200,3.02879736328125,-0.057525137251615524,0.007723141597956419,-0.02779334000116214
1772619040253828400,3.038828369140625,-0.04724456625580788,0.06052461132854223,0.062149783111270514
1772619040263859200,3.048859130859375,-0.01760287670791149,0.1220122224703431,0.11579818852739408
1772619040273889300,3.05888916015625,-0.04137362839579582,0.13640738917812703,0.10833276628386229
1772619040283920400,3.06892041015625,-0.04141922110319137,0.11175444782823324,0.06283029445502906
1772619040293951200,3.078951171875,-0.041138066074252126,0.06812295750305056,-0.0004355053404346108
1772619040303982300,3.088982421875,-0.03209317435324192,0.007684709283709526,-0.041181138030998404
1772619040314012400,3.099012451171875,0.009621814826130866,-0.01150324465855956,-0.05702414719322696
1772619040324043300,3.109043212890625,0.044836920592188835,-0.018329583547264338,-0.0693072719167918
1772619040334074400,3.119074462890625,0.041860535129904744,-0.04228928193598985,-0.07043572795744985
1772619040344104200,3.129104248046875,0.054144847163558,-0.02999444850832224,-0.07356664639431983
1772619040354135300,3.13913525390625,0.03529109361171722,-0.01650134520679712,-0.03936917497189715
1772619040364166100,3.149166259765625,0.014483867904543877,-0.016255846013128756,-0.05323154997723177
1772619040374197200,3.159197265625,-0.0101040453851223,-0.024827713394910095,-0.06005116686420515
1772619040384227300,3.169227294921875,-0.007870002722740172,-0.041634471289068456,-0.05350675018941983
1772619040394258200,3.179258056640625,-0.03823533037006855,-0.03031096711158752,-0.05404639175776392
1772619040404289300,3.189289306640625,-0.061764089995622634,-0.02307122511640191,-0.03920925343614071
1772619040414319400,3.1993193359375,-0.056441433668136594,-0.02429550621435046,-0.02721000542156398
1772619040424350200,3.20935009765625,-0.05028291103839874,-0.01955854082033038,-0.03953238444328308
1772619040434381300,3.21938134765625,-0.013949614897370337,-0.03538622454926371,-0.05534105294449255
1772619040444411400,3.229411376953125,-0.000030979660153388974,-0.047925095865875476,-0.079727708041016
1772619040454442200,3.239442138671875,-0.02806114235818386,-0.05389920183941722,-0.07832514776671305
1772619040464473300,3.249473388671875,-0.09545300910770893,-0.04204217530712485,-0.06916125104222447
1772619040474504200,3.259504150390625,-0.14830898550450802,-0.020250614737719295,-0.029368078504595902
1772619040484534300,3.2695341796875,-0.1741302399814129,0.015106383717060088,0.03402666316647082
1772619040494565400,3.2795654296875,-0.1737023699581623,0.0647274698458612,0.1266426587499678
1772619040504596200,3.28959619140625,-0.1409890178799629,0.09422244439944624,0.16566992494901642
1772619040514626300,3.299626220703125,-0.05905307747125625,0.09820961433947085,0.1583981255814433
1772619040524657200,3.3096572265625,0.0015074819535017012,0.043806700761616225,0.12439321758905425
1772619040534688300,3.319688232421875,0.0031412206351757047,-0.0033816052623093125,0.09147944756792857
1772619040544718300,3.32971826171875,0.023667291313409805,-0.02039849877581,0.0731839854859747
1772619040554749200,3.339749267578125,0.06337737041115761,-0.02588262927532196,0.08846970782531424
1772619040564780300,3.3497802734375,0.08626666308939457,-0.03367649802193046,0.10729111174382269
1772619040574811100,3.35981103515625,0.09502923073768615,0.018810645062476396,0.11972022080933674
1772619040584841200,3.36984130859375,0.08464344580173493,0.04379851745516061,0.11773960491875186
1772619040594872300,3.379872314453125,0.0016179565906524658,0.06992460009753704,0.11628253797823562
1772619040604903200,3.389903076171875,-0.04216565555632114,0.10197568887472153,0.07704318166477606
1772619040614933200,3.399933349609375,-0.05718669907748699,0.09393208315074443,0.0759879917897284
1772619040624964400,3.40996435546875,0.005673369461297989,0.0578038080625236,0.10221649362696335
1772619040634995200,3.4199951171875,0.06988134547770022,0.042727088831365105,0.10345458405455574
1772619040645025300,3.430025390625,0.12713292648494243,0.013315700908005237,0.07900259037055074
1772619040655056100,3.44005615234375,0.1550531990677118,-0.025698504880070683,0.0557546021814458
1772619040665087200,3.450087158203125,0.10707096618711948,-0.01532221842482686,0.0480774916823022
1772619040675118000,3.4601181640625,0.0769020378947258,-0.007762012303620576,0.03456866108868271
1772619040685148200,3.470148193359375,0.035866847673058505,0.02136690541654825,0.038942053867317736
1772619040695179300,3.48017919921875,-0.01162497134208679,0.02557823950126767,0.05636230401732027
1772619040705210000,3.490210205078125,-0.030042087042331692,0.015761048233509063,0.04418337032059207
1772619040715240200,3.500240234375,-0.0448427658110857,0.013800561815500259,0.05339662261214107
1772619040725271300,3.510271240234375,-0.02073357594907284,0.021408844862133264,0.05532717054961249
1772619040735302100,3.52030224609375,0.018233575826883314,0.015162059427052735,0.07249991221195086
1772619040745333200,3.530333251953125,0.07145780101418495,-0.004616553884744644,0.07559773209681735
1772619040755363300,3.54036328125,0.04236088586747646,-0.007410422386974096,0.03201459269169718
1772619040765394200,3.550394287109375,-0.04238192865550518,-0.028853315649181602,-0.016941106597241015
1772619040775425300,3.56042529296875,-0.15055881025791168,-0.04492576791942119,-0.06687659243745729
1772619040785455000,3.570455078125,-0.19140286182165145,-0.006786006878316402,-0.09018734366446733
1772619040795486200,3.580486328125,-0.17091536958813666,0.021380349420011043,-0.03555540710370987
1772619040805517300,3.590517333984375,-0.1190168400466442,0.06858516818732023,0.03687611604714766
1772619040815547100,3.600547119140625,-0.03673018650412559,0.1249602586209774,0.07360135238151996
1772619040825578200,3.610578125,0.0028752631753683087,0.153563691162318,0.11032938346117735
1772619040835609000,3.620609130859375,0.02924187657535076,0.14236702823489902,0.10177664090497418
1772619040845640200,3.63064013671875,0.02494447164237499,0.0899671250425279,0.09010700843725353
1772619040855670300,3.640670166015625,-0.017725626304745674,0.06388619671612977,0.07535060720164329
1772619040865701000,3.650701171875,-0.024912907460331916,0.057309740935266015,0.0749220065260306
1772619040875732200,3.660732177734375,-0.028140637335181233,0.05679273132383823,0.11723118047257884
1772619040885762300,3.67076220703125,0.0401414562523365,0.07671557541191577,0.1319114111994393
1772619040895793200,3.680793212890625,0.10498656112849712,0.07504092019796371,0.16476196152493355
1772619040905824300,3.69082421875,0.12337561977803706,0.02602817522585392,0.1643689253530465
1772619040915854300,3.700854248046875,0.11019172855615615,0.02514496265053749,0.08515831825500354
1772619040925885200,3.71088525390625,0.10086042110919952,-0.0006828676976263523,0.04757975302692503
1772619040935916300,3.720916259765625,0.08919394871294498,-0.038015111748129125,0.04714833933971822
1772619040945947100,3.730947021484375,0.12257774739861488,-0.04335895699411631,0.016582995608262718
1772619040955977200,3.740977294921875,0.12831775235533713,-0.058369917512685054,0.0029014935951679945
1772619040966008000,3.751008056640625,0.11368132423758506,-0.05144318698942661,0.014212394019402563
1772619040976039200,3.7610390625,0.04940145202875137,-0.0812165400929749,-0.023494291100371628
1772619040986069200,3.7710693359375,-0.027411738538742063,-0.09743658414036035,-0.06073768782364204
1772619040996100000,3.78110009765625,-0.06042085869312286,-0.087282269872725,-0.13695015428531915
1772619041006131200,3.791131103515625,-0.05148118091225624,-0.10075272295102476,-0.1649402224349789
1772619041016161300,3.801161376953125,-0.032764205482602116,-0.07771613075658679,-0.17596335542639716
1772619041026192100,3.811192138671875,-0.028061726880073547,-0.07741437133103608,-0.15715616269633173
1772619041036223200,3.82122314453125,-0.02390928337574005,-0.058012043985724446,-0.14173780868696048
1772619041046254000,3.831254150390625,-0.039271103158593175,-0.03366553823649883,-0.12075195674356072
1772619041056284200,3.8412841796875,-0.06775017866790295,-0.030694705732166764,-0.09086303270263597
1772619041066315300,3.851315185546875,-0.06351356401145458,-0.021376257766783237,-0.05537731156796217
1772619041076346000,3.86134619140625,-0.0671767626941204,-0.028235183750838038,-0.03562593332296237
1772619041086376200,3.871376220703125,-0.06758300540745257,-0.05239814962670207,-0.02068918881807476
1772619041096407300,3.8814072265625,-0.06819090817272663,-0.06252835236638785,-0.020855558360926806
1772619041106438100,3.891438232421875,-0.07652151414453982,-0.07413447287753223,-0.04500628580972552
1772619041116469200,3.90146923828125,-0.09652794486284255,-0.0787356830626726,-0.049447921518981454
1772619041126499000,3.9114990234375,-0.1071878705650568,-0.05237549940347671,-0.03527547591747716
1772619041136530200,3.9215302734375,-0.12539397386312484,-0.05676335909888148,-0.016665942917671053
1772619041146561000,3.93156103515625,-0.14399287587106227,-0.06621259383708238,0.02637607534807175
1772619041156591000,3.941591064453125,-0.18305472019314764,-0.058104252313822505,0.07159037788528949
1772619041166622500,3.95162255859375,-0.20058862331807611,-0.04650134667307138,0.07249865183662622
1772619041176653300,3.9616533203125,-0.18954992743134497,-0.023599048382788895,0.10893763684183358
1772619041186683400,3.971683349609375,-0.17849720301926136,0.0132290455378592,0.13716567846583202
1772619041196714500,3.981714599609375,-0.16244973905980586,0.03441270334199071,0.15456674899132922
1772619041206745300,3.991745361328125,-0.08742226286530494,0.0455704955637455,0.17029670796683058
1772619041216776400,4.0017763671875,0.006404021823406219,0.0344173795171082,0.16273527800291776
1772619041226806500,4.011806640625,0.06375906320512294,0.021865940979868173,0.15868877909108994
1772619041236837400,4.02183740234375,0.0919160671532154,0.028137860856205222,0.1274061174031347
1772619041246868500,4.031868408203125,0.13359656954109667,0.041970132984220976,0.12785395250217987
1772619041256898300,4.041898193359375,0.13946166218221187,0.03302373320162296,0.12183942318670452
1772619041266929400,4.051929443359375,0.13836100746393204,0.06399521004855632,0.10642941688057035
1772619041276960300,4.061960205078125,0.1623737512141466,0.07326748078465462,0.0937684535542503
1772619041286990300,4.071990234375,0.18765023128986358,0.04904328624084592,0.09309274624977261
1772619041297021400,4.082021484375,0.1866033525854349,0.07992080119401217,0.11675158026209101
1772619041307052300,4.09205224609375,0.1725567070543766,0.10597484151348471,0.12412050159489735
1772619041317083400,4.10208349609375,0.13227613459229468,0.10479892960190772,0.12465227038403973
1772619041327113500,4.112113525390625,0.1118453409820795,0.09528583584725857,0.11890685859983786
1772619041337144300,4.122144287109375,0.08130641033351421,0.07752776857763528,0.09009968364732339
1772619041347175400,4.132175537109375,0.02626899824440479,0.06971534126102924,0.05993391542639583
1772619041357205500,4.14220556640625,-0.03966799352169036,0.06711553402617573,0.048262693789787585
1772619041367236400,4.152236328125,-0.05837035590410232,0.06784004890844225,0.03741634213738143
1772619041377267500,4.162267333984375,-0.07630757913291454,0.05580123606845736,0.04220430706627667
1772619041387297300,4.17229736328125,-0.03410919035077095,0.048131285962462425,0.028462964624725282
1772619041397328400,4.182328369140625,0.007068038690090179,0.03761164551377296,-0.000045592707395553586
1772619041407359500,4.192359375,0.02169160732626915,0.03591127133667469,-0.0008091609584167599
1772619041417390300,4.202390380859375,0.049095747080445284,0.01222673662751913,-0.04302181572793051
1772619041427420400,4.21242041015625,0.030300445717573163,0.02771758961752057,-0.0422068826158531
1772619041437451300,4.222451171875,-0.03205693399608135,0.04332841572538018,-0.01648041201662272
1772619041447482400,4.232482421875,-0.0412830275028944,0.06899521029293537,-0.03160051373178139
1772619041457512400,4.242512451171875,0.009573884031176566,0.07217354806810616,0.0032912966303527353
1772619041467543300,4.252543212890625,0.11278525218069553,0.02840732544735074,-0.026106720354780552
1772619041477574400,4.262574462890625,0.16963585117161273,-0.0474134930819273,-0.07506786300381645
1772619041487605200,4.272605224609375,0.17142565719783306,-0.056096858014166355,-0.10254682155987248
1772619041497635300,4.28263525390625,0.08854571393728256,-0.0345807533852756,-0.08238114515924826
1772619041507666400,4.29266650390625,0.01032791726887226,0.004551671954989433,-0.02997826455850154
1772619041517697300,4.302697265625,-0.05649462516009807,0.06517565200477839,0.04113353602960706
1772619041527727400,4.312727294921875,-0.07513385917842387,0.10527210007160902,0.08524645319618285
1772619041537758500,4.322758544921875,-0.07281096918880939,0.11993921558856964,0.07687975299768149
1772619041547789300,4.332789306640625,-0.05614274298250675,0.08351005785763263,0.05221450015548616
1772619041557819400,4.3428193359375,-0.05497253015935421,0.06642477528303861,0.024219883694872258
1772619041567850200,4.352850341796875,-0.08616437175869941,0.0708168727621436,0.07201952655017375
1772619041577881300,4.36288134765625,-0.05667173529267311,0.07840177493318914,0.09863067102944478
1772619041587912400,4.372912353515625,-0.027333412605524063,0.09116860978677868,0.10707186123626306
1772619041597942300,4.3829423828125,-0.029538813695311545,0.10025281060487032,0.15349851697161793
1772619041607973400,4.392973388671875,-0.018849661898612976,0.11699936274439096,0.14893013134384528
1772619041618004200,4.403004150390625,0.02689092953503132,0.0923582579627633,0.1316268038380891
1772619041628034300,4.413034423828125,0.035734161204099654,0.06536328353136778,0.11868223779741674
1772619041638065400,4.4230654296875,0.0460585713416338,0.02796981081292033,0.06288967822575942
1772619041648096300,4.43309619140625,0.01978840405344963,0.017288696192204953,0.03285117138000205
1772619041658126300,4.443126220703125,-0.051339726614952085,0.006695844376832246,0.02250515219885856
1772619041668157400,4.453157470703125,-0.07375029586553573,0.019406857389956712,-0.043456626948621124
1772619041678188300,4.463188232421875,-0.059853872460126877,-0.0007474573664367198,-0.049316276229638606
1772619041688219400,4.473219482421875,-0.037004911792278286,-0.01880202336460352,-0.03379272654643282
1772619041698249200,4.483249267578125,-0.004933364748954772,-0.018579612785577772,-0.057215030122827734
1772619041708280300,4.4932802734375,0.010891396370530129,-0.06005699381679296,-0.06314082170892507
1772619041718311400,4.5033115234375,0.03826221837699413,-0.0854344500489533,-0.09222993714166805
1772619041728341200,4.51334130859375,-0.010278232908248901,-0.0952044411741197,-0.0952047517013736
1772619041738372400,4.523372314453125,-0.08536182320415973,-0.07263853523135184,-0.08249488946571945
1772619041748403200,4.5334033203125,-0.11280746401250362,-0.06355126567333937,-0.04766352232024074
1772619041758433300,4.543433349609375,-0.08773439755439758,-0.02801408834606409,-0.014863277409877628
1772619041768464400,4.55346435546875,-0.04763151974678039,-0.050521249838918446,-0.004855111880972981
1772619041778495200,4.5634951171875,0.018329437416791914,-0.08595452840030193,-0.019620682803727686
1772619041788526300,4.5735263671875,0.06298983239829539,-0.07178688683807849,0.0031429559345357116
1772619041798556400,4.583556396484375,0.07147475214898585,-0.07059504670500755,0.005971165097784251
1772619041808587300,4.593587158203125,0.05925882917642593,-0.045619010880589485,0.0076782247439958155
1772619041818618400,4.603618408203125,0.01693009201288223,-0.03777414259910583,0.023539463682658968
1772619041828648400,4.6136484375,-0.05904021798968315,-0.015768500887602566,0.0033455841008573767
1772619041838679300,4.62367919921875,-0.11611527338624,0.001695113480091095,0.015583919834624975
1772619041848710400,4.63371044921875,-0.13853461046516893,0.00013356325179338455,0.042075803582090884
1772619041858740200,4.643740234375,-0.13074351819753646,0.017306816370785235,0.06010304318191483
1772619041868771300,4.653771240234375,-0.11562544404268264,0.02139715442433953,0.08960037408936768
1772619041878802200,4.66380224609375,-0.0910229177057743,0.019361118552088736,0.08915750742638483
1772619041888833300,4.673833251953125,-0.06515373243391513,0.01654737630560994,0.0623363369256258
1772619041898863400,4.68386328125,-0.04160919071733951,0.009736819507926701,0.07490730214724317
1772619041908894200,4.693894287109375,-0.04689093051254749,0.014558394445478915,0.0854200379311107
1772619041918925300,4.70392529296875,-0.0492693500816822,0.01376256789267063,0.08884392969887703
1772619041928955400,4.713955322265625,-0.03707330085337162,0.046171530196815726,0.06902156857689842
1772619041938986200,4.723986328125,-0.004151858982443809,0.024919775592535734,0.06871608282430097
1772619041949017300,4.734017333984375,0.052553194057941434,0.0141397306419909,0.06970741368290037
1772619041959048200,4.744048095703125,0.057772974532842636,0.020965192747861145,0.06707660852158442
1772619041969078300,4.754078369140625,-0.01105681606531143,0.06151727562770247,0.04414707516450435
1772619041979109400,4.764109375,-0.054120297244191165,0.08943447947055101,0.05404975275862962
1772619041989140200,4.77414013671875,-0.03778992469012737,0.06906330709308385,0.07328264182116837
1772619041999170300,4.78417041015625,-0.003168693163990974,0.06504603427574038,0.07237957376791164
1772619042009201400,4.794201416015625,0.05152034387886524,0.03012961919531226,0.055763844933826474
1772619042019232300,4.804232177734375,0.06377601433992386,-0.005524754770845175,0.032873620673827826
1772619042029262300,4.814262451171875,0.057092591053247446,-0.03524564703479409,0.012752075675874948
1772619042039293200,4.824293212890625,0.045049686560034746,-0.059058922690153115,-0.03105855234218761
1772619042049324300,4.83432421875,-0.05216857865452766,-0.054733606836944816,-0.06672759415451437
1772619042059354400,4.844354248046875,-0.1329161860615015,-0.028084815494716166,-0.06574104906888678
1772619042069385200,4.85438525390625,-0.15353461119830608,0.019747195260226724,-0.03077553414972499
1772619042079416300,4.864416259765625,-0.09392156175673007,0.025047785886377096,-0.012086871499102562
1772619042089447200,4.874447265625,-0.03424246134161949,0.00683554510846734,-0.028662432719580827
1772619042099477200,4.884477294921875,-0.010105214428901672,-0.019633505752682686,-0.03898644099831581
1772619042109508400,4.89450830078125,0.009077624946832657,-0.02335910214707255,-0.04467906314935535
1772619042119539200,4.904539306640625,0.022861820149421692,-0.015073358230292795,-0.030386735761538147
1772619042129569300,4.9145693359375,0.05405833792388439,-0.004169833030551672,-0.013950966604240238
1772619042139600400,4.924600341796875,0.059251230391860005,0.014915245059132574,0.02623144271299243
1772619042149631200,4.93463134765625,-0.0027449147939682004,0.031762627224624154,0.03477156324964017
1772619042159662300,4.944662353515625,-0.03728431325554848,0.028782442370057105,0.025356997966021297
1772619042169692400,4.9546923828125,-0.000817161601781845,0.03382482045143843,0.02764521850105375
1772619042179723500,4.9647236328125,0.05580255124270916,0.018287497971206903,0.019737258388102055
1772619042189754400,4.97475439453125,0.11342881078124045,0.0017839608073234557,0.023608546863496303
1772619042199784400,4.984784423828125,0.1649614296197891,0.0051044835321605204,0.0322752894544974
1772619042209815600,4.994815673828125,0.14985387685894966,-0.02052256354689598,0.04171097059138119
1772619042219846400,5.004846435546875,0.09346855729222298,0.009620207390934228,0.058722786070965226
1772619042229876500,5.01487646484375,0.011471242085099219,0.04112403754889965,0.07439239316135644
1772619042239907600,5.024907470703125,-0.06161620595753192,0.04176701162755489,0.059763088904134926
1772619042249938400,5.0349384765625,-0.08935936840772628,0.036787469649314876,0.06482172400057315
1772619042259969800,5.0449697265625,-0.10141220977306366,0.031713819646835326,0.11089505451992153
1772619042269999600,5.05499951171875,-0.03959726637303829,0.029175094949454066,0.07578830449916422
1772619042280030500,5.065030517578125,0.013062310668826103,0.010697919625043868,0.05457019643615931
1772619042290061800,5.075061767578125,0.03693126203417778,-0.0034279286220669745,0.0628136721137911
1772619042300091400,5.08509130859375,0.0017798691540956495,-0.00509644635617733,0.05224821976199746
1772619042310122500,5.09512255859375,-0.07253449033498764,0.016142156505584714,0.03128868956994265
1772619042320153600,5.105153564453125,-0.0785100576132536,0.025282033033668994,0.05577401926796883
1772619042330183400,5.115183349609375,-0.048905777466297144,-0.006826485019177198,0.034677455225400625
1772619042340214500,5.125214599609375,-0.01741992135643959,-0.03394946974441409,0.05052680279687047
1772619042350245600,5.13524560546875,-0.005099953487515449,-0.02262450426220894,0.028576434936560688
1772619042360276700,5.14527685546875,0.005689736074209213,-0.00038300796821713444,0.015299239408038555
1772619042370306600,5.155306640625,0.04306231213510036,-0.02241875255703926,0.014184044707752764
1772619042380337700,5.165337646484375,0.0816682293832302,-0.010438830297440289,0.009038717708550394
1772619042390368800,5.17536865234375,0.0840168383359909,-0.007183481763303279,0.010542546400241553
1772619042400398600,5.185398681640625,0.06687690296471119,0.0100385789334774,0.03300933935008943
1772619042410429700,5.1954296875,0.042108372411131856,0.024499942745268344,0.024429617455415425
1772619042420460800,5.205460693359375,0.034414310777187346,0.020776246047019956,0.0017551731042563913
1772619042430490400,5.215490478515625,0.014013327783346175,0.02728182854875922,0.017898681316711008
1772619042440521700,5.225521728515625,0.004345335727930068,0.07053820195123553,-0.01081040355619043
1772619042450552600,5.235552490234375,-0.005607318487763404,0.06843684575781225,-0.016383308317698537
1772619042460583700,5.245583740234375,-0.006868132203817367,0.05634717951342463,-0.008963679710961878
1772619042470613800,5.25561376953125,0.0026367782443761823,0.04654723164141178,-0.026590229555405676
1772619042480644600,5.26564453125,0.013864274701476097,0.04135755404382944,-0.02502926384899765
1772619042490675700,5.27567578125,0.0622708704739809,0.03173910021856427,-0.005530709587596357
1772619042500705800,5.285705810546875,0.04420739051699638,0.03473185229375958,0.016686382917501033
1772619042510736600,5.295736572265625,-0.018088029876351355,0.05318257800266146,0.05027662742808461
1772619042520767700,5.305767822265625,-0.0702045860826969,0.06759381906241178,0.03954827613215893
1772619042530797800,5.3157978515625,-0.0871668267995119,0.02581087921336293,0.0028442469825968146
1772619042540828700,5.32582861328125,-0.09048457304537295,0.010254413641244173,0.009617430911958217
1772619042550859800,5.33585986328125,-0.07373918994963169,0.017278320928663014,-0.0054975379703566425
1772619042560890600,5.345890625,-0.04595861809849739,0.01365063195079565,-0.01606233273502439
1772619042570920700,5.355920654296875,-0.03420388289690018,-0.00929360578507185,-0.005981850888580083
1772619042580951800,5.365951904296875,-0.02427227146923542,-0.01462006150484085,0.028328305394388735
1772619042590982700,5.375982666015625,-0.007860650372505187,-0.03202303172647953,0.037630715540423985
1772619042601013800,5.386013671875,-0.05211363359689712,-0.04559373030886054,0.03754113756082952
1772619042611043600,5.396043701171875,-0.10147475361526012,-0.04666238245368003,0.028791977383382617
1772619042621074700,5.40607470703125,-0.13288169927000998,-0.013167232348024844,0.045737047769688066
1772619042631105500,5.41610546875,-0.10812310558855533,-0.005498159024864435,0.06830394009314478
1772619042641135600,5.426135498046875,-0.04931961896419525,0.01571998557075858,0.088277966379188
1772619042651166700,5.436166748046875,0.019442951616644857,0.016641776590794324,0.09429002974294126
1772619042661197600,5.446197509765625,0.04767711245417595,0.02813669181242585,0.09960987305883318
1772619042671227600,5.4562275390625,0.02530745973587036,0.03313099296838045,0.0950369391201064
1772619042681258800,5.4662587890625,-0.0027250410497188567,0.0428418012522161,0.07456727480422705
1772619042691289600,5.47628955078125,0.004053074783086776,0.0674568948097527,0.07495945245958864
1772619042701320700,5.48632080078125,0.036592823860049244,0.07726239563971757,0.09943645272068678
1772619042711350800,5.496350830078125,0.045831192326545714,0.08279533371701836,0.11770696302447467
1772619042721381600,5.506381591796875,0.055715457481145855,0.0744764181829989,0.12379260308109223
1772619042731412700,5.516412841796875,0.0662269146233797,0.06840352801010012,0.11960333469770848
1772619042741442600,5.526442626953125,0.036009471014142036,0.048925212819129225,0.0982078607738018
1772619042751473700,5.5364736328125,-0.016985621592402456,0.022603315343707797,0.06634802025239914
1772619042761504800,5.5465048828125,-0.07754033579826354,0.02343508999273181,0.07081851672995836
1772619042771534600,5.55653466796875,-0.10102467176020145,0.024724983672797678,0.07627141184099018
1772619042781565700,5.566565673828125,-0.09434826273620128,0.01321560153439641,0.04788447159454226
1772619042791596500,5.576596435546875,-0.09282792130112648,-0.03874970963299274,0.03443593808710575
1772619042801627600,5.586627685546875,-0.11146247914433478,-0.035937136430293316,0.016798464989848435
1772619042811657700,5.59665771484375,-0.10197627339661121,-0.044206659864634276,0.0014463628834113478
1772619042821688600,5.6066884765625,-0.032983985713124275,-0.04963672208935022,-0.00715425566881895
1772619042831719700,5.6167197265625,0.027815058642625807,-0.057373015429824585,0.012579312924854457
1772619042841749800,5.626749755859375,0.039943303331732745,-0.0727758978754282,0.0037206279583275317
1772619042851780600,5.636780517578125,0.0197591779589653,-0.049338908186554904,-0.013577201388403773
1772619042861811700,5.646811767578125,-0.01680734241604805,-0.022577157989144322,-0.007393982708826661
1772619042871841800,5.656841796875,-0.019987141495943068,-0.004056143523007631,0.010820230830460785
1772619042881872600,5.66687255859375,-0.04001812213361263,0.009954553911834954,0.025078363687731323
1772619042891902700,5.67690283203125,-0.0326169059664011,0.04609554235115647,0.04191398235019296
1772619042901933600,5.68693359375,-0.007109539744257927,0.05738675169423222,0.05408482407201081
1772619042911964700,5.696964599609375,0.024122633865475654,0.048500119274854654,0.047105924970097836
1772619042921994800,5.706994873046875,0.014242460364103317,0.04686959546357393,0.08416629327666014
1772619042932025600,5.717025634765625,0.016827800682187078,0.046481472928822036,0.06597261106874794
1772619042942056700,5.727056640625,0.00608545739352703,0.030006723468005654,0.041739685229212044
1772619042952087600,5.737087646484375,0.023977087914943695,0.018505963027477264,0.03772504276037216
1772619042962117600,5.74711767578125,0.05400806904137134,0.028215310006588695,0.038107320076227184
1772619042972148700,5.757148681640625,0.07308277186751365,0.03677694825530052,0.08161463603246956
1772619042982179600,5.7671796875,0.0811368989855051,0.023681758230179546,0.11169563031308352
1772619042992209700,5.777209716796875,0.020824176841974257,0.05418985534906387,0.1021328156651929
1772619043002240800,5.78724072265625,-0.010333762487769127,0.06295899886861443,0.0921645620215684
1772619043012271600,5.797271728515625,-0.03825754220187664,0.05890811604261398,0.07320632518194616
1772619043022302700,5.807302734375,-0.06083996088802814,0.0765294051900506,0.05299143934473395
1772619043032332500,5.81733251953125,-0.07073007126152515,0.07952069596052169,0.05329188359603285
1772619043042363600,5.82736376953125,-0.08568097215592861,0.097365418600291,0.045045485308952624
1772619043052394800,5.837394775390625,-0.08015022603571414,0.09665610128715633,0.06675992552153766
1772619043062424600,5.847424560546875,-0.05735270329415798,0.08956526624336839,0.0740734999379143
1772619043072455700,5.85745556640625,-0.02938917609155178,0.06549523934796452,0.05335351412277668
1772619043082486500,5.867486572265625,0.016849427992105485,0.01923617699816823,0.03350366220567375
1772619043092516600,5.8775166015625,0.05488718996345997,-0.009643003744632004,0.029728564113751053
1772619043102547700,5.887547607421875,0.0785831228494644,-0.0028683950431644917,0.020194281440600752
1772619043112578600,5.89757861328125,0.11040741713345051,0.010842588792741298,0.045740262640081346
1772619043122609700,5.907609619140625,0.10348200178444385,0.02664353064522147,0.021139014944806692
1772619043132639700,5.9176396484375,0.08885901767015457,0.027295564813166855,0.0033853315893560645
1772619043142670600,5.927670654296875,0.06037760407328605,0.02382408931031823,0.008631488614529371
1772619043152701700,5.93770166015625,0.030319150418043134,0.018790917448699474,-0.005485518738999963
1772619043162731500,5.9477314453125,-0.0027238720059394833,0.015088263538479803,-0.012974047863483428
1772619043172762600,5.9577626953125,-0.010518471404910088,-0.005841127243638038,-0.0051876317709684365
1772619043182793700,5.967793701171875,-0.015840543210506437,0.022887392982095477,-0.00048292467873543496
1772619043192823600,5.977823486328125,0.00454699577987194,0.03397665001228452,0.011811908748932181
1772619043202854700,5.987854736328125,0.006561842733621597,0.035075258903950454,0.03421170087717473
1772619043212885500,5.997885498046875,0.02952069351673126,0.039070758280903096,0.03573565904144198
1772619043222916600,6.00791650390625,0.007992752319574355,0.022736147943139075,0.00578625525124371
1772619043232946700,6.01794677734375,-0.005571078130602836,0.0161298815459013,0.024944069783575832
1772619043242977500,6.0279775390625,0.003598316752910614,-0.006697305681556463,0.010587043129093945
1772619043253008600,6.038008544921875,-0.003273322582244873,-0.012673603612184524,0.0005448474664241076
1772619043263038700,6.048038818359375,-0.015880875220894812,-0.021735592598468065,-0.005427687604539096
1772619043273069600,6.058069580078125,-0.006503975066542625,-0.04151917434632778,-0.00663267948012799
1772619043283100700,6.0681005859375,-0.027100772893428802,-0.05850888759195804,-0.03547269725631922
1772619043293131500,6.078131591796875,-0.08143968132436274,-0.06070858959332108,-0.03255176830831915
1772619043303161600,6.08816162109375,-0.12967150505185127,-0.022223814506828785,-0.0033393370231613517
1772619043313192700,6.098192626953125,-0.16760346856117248,-0.006937398047745227,0.02368906475380063
1772619043323223600,6.1082236328125,-0.13698621197938918,-0.0008121931657195091,0.08821213460136204
1772619043333253600,6.118253662109375,-0.058253451526165005,0.00996200656592846,0.13121453324276952
1772619043343284500,6.128284423828125,-0.001619125634431839,-0.006452829401195049,0.11215206884369254
1772619043353315600,6.138315673828125,0.0038812253475189206,-0.0363062620036304,0.10949391901772469
1772619043363345700,6.148345703125,-0.021361936980485916,-0.055610535801947115,0.10357958040740341
1772619043373376500,6.15837646484375,-0.025747604718804357,-0.031928631441295145,0.08212846730612218
1772619043383407600,6.16840771484375,0.0009252981513738632,-0.014697949046641587,0.10971355311777442
1772619043393438500,6.1784384765625,0.03995499376952648,0.018583850569278002,0.132946508134529
1772619043403468500,6.188468505859375,0.02746025385558605,0.04252323682233691,0.14001871154308318
1772619043413499600,6.198499755859375,-0.029392683222889897,0.03391162195205688,0.11153780940286814
1772619043423530500,6.208530517578125,-0.05500409434139728,0.027666882343590257,0.06032938101738691
1772619043433560600,6.218560546875,-0.053582537105679506,0.033250527694821355,0.042602074212208386
1772619043443591700,6.228591796875,-0.05141045376360416,0.03231339297518134,0.06414009841196239
1772619043453622500,6.23862255859375,-0.024278701210021972,0.051108986598998304,0.0804914406888187
1772619043463652600,6.248652587890625,-0.0403331794321537,0.044966976712644095,0.08694043416511267
1772619043473683700,6.25868359375,-0.04928162504136562,0.03925853593796491,0.06001483517549932
1772619043483714600,6.268714599609375,-0.044593759486079215,0.029575930835306644,0.03764163879323751
1772619043493745700,6.27874560546875,-0.018166940331459044,0.004963613756746053,0.028058804270625112
1772619043503775500,6.288775390625,0.04240004883408546,-0.0017155717462301254,0.0064134837714955205
1772619043513806600,6.298806640625,0.08155892378985881,-0.0126963999658823,0.0030038579910993575
1772619043523837400,6.30883740234375,0.05653554169237613,-0.01685191221013665,-0.013153423018380999
1772619043533867500,6.318867431640625,-0.005584522134065628,-0.0028932372234761715,-0.030565234133601186
1772619043543898600,6.328898681640625,-0.04484861102998256,-0.0019844518154859543,-0.02987969955485314
1772619043553929500,6.338929443359375,-0.027861820393800734,0.0007854512892663478,-0.012589980449341237
1772619043563959600,6.34895947265625,0.00305471139550209,0.01533200916647911,-0.0035419834557920693
1772619043573990700,6.35899072265625,0.021683424019813536,0.01942263948097825,0.01579411025289446
1772619043584021500,6.369021484375,0.017189035210013387,0.02935205895155668,0.007845708531700074
1772619043594052600,6.379052490234375,0.010870938104391097,0.015247838014364242,-0.009213928144983946
1772619043604082700,6.389082763671875,0.02087327668070793,-0.0037615444906055925,-0.011872662492841482
1772619043614113500,6.399113525390625,0.00006254384219646453,-0.010883797585964201,-0.023256518555432558
1772619043624144600,6.40914453125,-0.04605974038541317,0.02097615253329277,-0.03128120038323104
1772619043634174500,6.419174560546875,-0.06320844358503819,0.030640345196425913,-0.03193791072629392
1772619043644205600,6.42920556640625,-0.04640636186599731,0.04299699181392789,-0.023575740572437644
1772619043654236700,6.439236572265625,-0.010731237372756004,0.04450286633223295,-0.016951573192328213
1772619043664266500,6.4492666015625,0.02649170108437538,0.008229922076314688,-0.027423136715590952
1772619043674297600,6.459297607421875,0.031576457002758976,-0.0055532502129673955,-0.03391275446321815
1772619043684328400,6.469328369140625,-0.005057867911458016,0.0012286650121212004,-0.014574651460535824
1772619043694359600,6.479359619140625,-0.013471475991606712,0.008523644325882197,0.005309723780676723
1772619043704389600,6.4893896484375,0.009120295044779778,0.022262977473437785,0.04475990983322262
1772619043714420500,6.49942041015625,0.03923427827954292,0.04571662603616714,0.0590385374892503
1772619043724451600,6.50945166015625,0.05411269845962524,0.0124317576803267,0.05743285585828125
1772619043734481700,6.519481689453125,0.030044425129890442,0.02454495093077421,0.05701302301101386
1772619043744512500,6.529512451171875,0.019743395867943762,0.004234568829834461,0.018335173037834464
1772619043754543600,6.539543701171875,0.017824995025992392,-0.013452917421609163,0.005397511661984026
1772619043764573700,6.54957373046875,0.01174479832947254,-0.0028501287341117856,0.013288411042280495
1772619043774604500,6.5596044921875,-0.006163783326745033,0.03188157742917538,0.051101351281814276
1772619043784635600,6.5696357421875,0.014633505508303642,0.052352849180251355,0.07722268468383699
1772619043794666500,6.57966650390625,0.037843700703978536,0.05019026431888342,0.1055913220886141
1772619043804696600,6.589696533203125,0.05838964512646198,0.05689443813264369,0.09350768372621386
1772619043814727400,6.5997275390625,0.047553778335452074,0.04963306882753968,0.07612195690032095
1772619043824758500,6.609758544921875,0.020362404549121856,0.032451632402092215,0.08804470561258494
1772619043834788600,6.61978857421875,0.028614100065827368,0.04421615834534168,0.0719604533066973
1772619043844819500,6.6298193359375,0.021864625805616378,0.06593918372318149,0.07689107810929417
1772619043854850600,6.6398505859375,0.024425416204333306,0.05975391921699047,0.11848255050685257
1772619043864880600,6.649880615234375,0.02875555436313152,0.05113222134411335,0.10262078184522688
1772619043874911500,6.659911376953125,-0.0015378770917654036,0.050369712539017196,0.06455452443175018
1772619043884942600,6.669942626953125,-0.0553127218991518,0.021754443429410457,0.0481770248003304
1772619043894973400,6.679973388671875,-0.07750467996299266,0.022303163353353736,0.031144093467481433
1772619043905003500,6.69000341796875,-0.07571545845866202,0.004929711487144232,0.025250286188535392
1772619043915034600,6.70003466796875,-0.04765548514425754,0.007363806766271591,0.0345375352980569
1772619043925065500,6.7100654296875,0.006805588361620903,0.020365181028097867,0.0390342987280339
1772619043935095600,6.720095458984375,0.02432663200497627,-0.011387217063456773,0.01916300216410309
1772619043945126700,6.730126708984375,0.01199322013258934,0.001298661508411169,-0.04442976456340402
1772619043955157500,6.740157470703125,0.027521628654003143,0.017535072168707845,-0.038237522327154876
1772619043965187600,6.7501875,-0.014915829581022262,0.0008902268379926681,0.025023564760573207
1772619043975218400,6.760218505859375,-0.049637014350295064,0.021632862876355647,0.012329649012722075
1772619043985249500,6.77024951171875,-0.0705447778224945,0.03498144314065575,0.009945822616107762
1772619043995280400,6.7802802734375,-0.05373451279699802,0.03956672510430217,0.0263561285385862
1772619044005310500,6.790310546875,-0.0005371756166219711,0.034992549056559796,-0.0002759308645501733
1772619044015341600,6.800341552734375,0.05871697738468647,0.003723842828720808,-0.01539769481383264
1772619044025372400,6.810372314453125,0.05862579196989536,0.012731325148791073,-0.008237119002081454
1772619044035402500,6.820402587890625,0.012979893082380295,-0.015160305861383675,-0.019645050060003996
1772619044045433600,6.83043359375,-0.029594927796721456,-0.014269056110084055,-0.023553492208011447
1772619044055464400,6.84046435546875,-0.05746200888752937,-0.014797171637415885,-0.037636524226702744
1772619044065495600,6.85049560546875,-0.06710486650168895,0.007483779884129762,-0.02113715178128332
1772619044075525600,6.860525634765625,-0.07324059277772903,0.0005124795667827129,0.0030967969715595244
1772619044085556500,6.870556396484375,-0.04831248774826526,-0.0014788403809070586,-0.005020458510518073
1772619044095587600,6.880587646484375,-0.04752922841608524,-0.011499153005331754,-0.012329247153922914
1772619044105617400,6.890617431640625,-0.05797346554100513,-0.02164294587895274,0.011189319871179758
1772619044115648500,6.9006484375,-0.05197860904037952,-0.011765841117501258,0.023685374959371983
1772619044125679600,6.9106796875,-0.059068275040388106,0.004498626593500375,0.022066979977302253
1772619044135709400,6.92070947265625,-0.04662263496518135,0.004466477889567613,0.027414113158918917
1772619044145740500,6.930740478515625,0.004418985486030578,0.00011734276935458182,0.02184325422402471
1772619044155771400,6.940771484375,0.022826748836040495,-0.0206948513738811,0.01838759734481573
1772619044165802200,6.95080224609375,0.03680091365277767,-0.018524959988892076,0.00039747488498687744
1772619044175832300,6.960832275390625,0.0048883565634489055,-0.010741320375353098,-0.03434595824871212
1772619044185863200,6.97086328125,0.026903204494714734,-0.0012708967186510563,-0.05362918925900012
1772619044195894300,6.980894287109375,0.009212064981460572,-0.004850508771091699,-0.0497263731341809
1772619044205924400,6.99092431640625,-0.02404781506359577,0.0036947628647089003,-0.016676555643230676
1772619044215955200,7.000955078125,-0.02183130805790424,0.015792320154607294,-0.03504325633049011
1772619044225986300,7.010986328125,-0.01433423030078411,0.029910423486679792,-0.028137057138606904
1772619044236016400,7.021016357421875,0.0007388356685638427,0.032496786718070506,-0.013611432451568543
1772619044246047200,7.031047119140625,0.03299333806335926,0.006819763017445802,-0.0037145270111039277
1772619044256078300,7.041078369140625,0.06795300776362419,-0.004858838208019733,0.0044505496680736535
1772619044266109200,7.051109130859375,0.09354688322544097,-0.009980272874981164,-0.0057595864400267595
1772619044276139300,7.06113916015625,0.06599252134561538,-0.011119213777035473,-0.010598075979761779
1772619044286170400,7.07117041015625,0.030609657797217367,-0.023266309297084807,-0.011265125053748487
1772619044296201200,7.081201171875,-0.003555646654963493,-0.01278612407594919,-0.0371852367952466
1772619044306231300,7.091231201171875,-0.00689852734208107,0.001624824722856283,-0.02440196226350963
1772619044316262100,7.10126220703125,-0.00665536623597145,-0.010454904649406672,-0.006411364879645407
1772619044326293200,7.111293212890625,-0.027315292426943777,0.013958236595243215,0.0006107888421043753
1772619044336323300,7.1213232421875,-0.05447919368445873,0.04446209593042731,0.028637444408796727
1772619044346354200,7.131354248046875,-0.08591361186802386,0.053574353799223894,0.024073351363651452
1772619044356385300,7.14138525390625,-0.10030161818265915,0.06086363402456045,0.04335362323187291
1772619044366416100,7.151416015625,-0.11075696122348308,0.04807327216491103,0.049628867576457555
1772619044376446200,7.1614462890625,-0.14977204379439352,0.05794774657785892,0.059150583028979596
1772619044386477300,7.171477294921875,-0.15516192013919353,0.06389876393675804,0.05317245846744626
1772619044396508200,7.181508056640625,-0.1077975268959999,0.035355391019582745,0.05086648308001458
1772619044406538200,7.191538330078125,-0.05766425346136093,0.024374855060875413,0.021007314856536684
1772619044416569300,7.2015693359375,-0.07089490643441676,0.03978270594254136,0.02328340656235814
1772619044426600200,7.21160009765625,-0.05157236632704734,0.021372604504972696,0.07234777212385088
1772619044436630300,7.22163037109375,-0.07648001309037208,0.021699059980362652,0.10586582818105816
1772619044446661000,7.2316611328125,-0.11710369990170001,0.024317279654741286,0.07169095218293368
1772619044456692200,7.241692138671875,-0.1495610313922167,0.027059710230678317,0.0513087834874168
1772619044466723300,7.251723388671875,-0.11814882504045962,0.02499678635150194,0.0451134725112468
1772619044476753200,7.261753173828125,-0.051367199143767354,0.01266352060958743,0.05216101640257984
1772619044486784300,7.2717841796875,0.042572482791543007,0.001379617790132761,0.03161010354403406
1772619044496815000,7.281815185546875,0.13013503091037273,-0.025448914033174515,0.015084719874523578
1772619044506845200,7.29184521484375,0.19576514868438244,-0.038830519784241915,-0.00020911270603537558
1772619044516876300,7.301876220703125,0.17220540939867496,-0.04335632664561272,0.006182341896742582
1772619044526907100,7.3119072265625,0.08752280063033104,-0.01951674750521779,-0.010566109938919543
1772619044536937200,7.321937255859375,0.04091068705916404,0.0005490121848881244,0.011759594039805232
1772619044546968300,7.33196826171875,0.0637175621509552,0.017189619731903076,0.021255115605145692
1772619044556999200,7.341999267578125,0.1263058280110359,0.007088496956229209,0.00959949339646846
1772619044567030500,7.352030517578125,0.11393909839093684,0.01515986746996641,0.03919756299834698
1772619044577060000,7.36206005859375,0.09969897611439227,0.0322976108841598,0.03835073691066354
1772619044587091200,7.37209130859375,0.11829963168799877,0.03721446288973093,0.05657572757229209
1772619044597122300,7.382122314453125,0.15028934566676616,0.02250935344994068,0.02792958840038627
1772619044607152000,7.392152099609375,0.24015783264040946,-0.00218026664853096,0.0005076207285746932
1772619044617183200,7.402183349609375,0.3007715835571289,-0.011875438971817493,0.04612582789156586
1772619044627214000,7.412214111328125,0.262486568826437,-0.027299948727339506,0.05397716244645417
1772619044637244200,7.422244140625,0.18159516903460024,0.008986147271096706,0.06744644648097455
1772619044647275300,7.432275146484375,0.12768120801746843,0.04631196158081293,0.12438085129782557
1772619044657306000,7.44230615234375,0.2230985612899065,0.10792392975464463,0.20429975279569626
1772619044667337500,7.45233740234375,0.2217944929540157,0.08064516994580626,0.19476136020300908
1772619044677367300,7.4623671875,0.09817512754797934,0.019405396085232497,0.03903007921064272
1772619044687398100,7.472398193359375,-0.11536766988933085,0.006647621320933103,-0.03433666069740429
1772619044697429500,7.482429443359375,-0.19188684594631195,-0.008522183021157979,-0.19453504063384605
1772619044707459300,7.492459228515625,-0.2260837145805359,-0.09815276958569884,-0.14159629959072917
1772619044717490200,7.502490234375,-0.406188937318325,-0.0838318371579051,-0.11670560396220535
1772619044727521500,7.512521484375,-0.5553910722702742,-0.06169803902208805,-0.14930249005388468
1772619044737552400,7.522552490234375,-0.6600818653225898,-0.08116071825250983,-0.14251135034272447
1772619044747582200,7.532582275390625,-0.6645493661254644,-0.12131357268169522,-0.11517360862195491
1772619044757613300,7.54261328125,-0.6013561201095581,-0.14883447068333625,-0.1333307582117617
