time,seconds_elapsed,z,y,x
1772619037294770400,0.0797705078125,0.03011127933859825,0.03517685830593109,0.0018716421909630299
1772619037304800500,0.089800537109375,0.03429169952869415,0.03915277495980263,0.0010619832901284099
1772619037314831600,0.09983154296875,0.040079548954963684,0.037160731852054596,-0.006971175782382488
1772619037324862500,0.109862548828125,0.04923410713672638,0.05201123282313347,-0.014208790846168995
1772619037334892500,0.119892578125,0.05244428291916847,0.05844622850418091,-0.010950147174298763
1772619037344923400,0.12992333984375,0.05989251658320427,0.051023636013269424,-0.008413066156208515
1772619037354954500,0.13995458984375,0.06815043836832047,0.026971295475959778,0.0012030757497996092
1772619037364984600,0.149984619140625,0.07411312311887741,-0.009413834661245346,0.012927614152431488
1772619037375015400,0.160015380859375,0.08121604472398758,-0.04493747279047966,0.03627607971429825
1772619037385046500,0.170046630859375,0.08187428116798401,-0.06017271801829338,0.05166850984096527
1772619037395077400,0.180077392578125,0.08202047646045685,-0.057796914130449295,0.06348708271980286
1772619037405107500,0.190107421875,0.07975452393293381,-0.04476183280348778,0.07180938869714737
1772619037415138600,0.200138671875,0.07941310852766037,-0.029945868998765945,0.07113108038902283
1772619037425169400,0.21016943359375,0.07747991383075714,-0.02137128822505474,0.0654609426856041
1772619037435199500,0.220199462890625,0.07214108109474182,-0.0171525739133358,0.05252277851104736
1772619037445230600,0.230230712890625,0.06573902815580368,-0.018332045525312424,0.0457007996737957
1772619037455261400,0.240261474609375,0.06645408272743225,-0.02462882548570633,0.05161274969577789
1772619037465292500,0.25029248046875,0.06051662191748619,-0.026365388184785843,0.057682037353515625
1772619037475322400,0.260322265625,0.0615328848361969,-0.020658500492572784,0.06504274904727936
1772619037485353500,0.270353515625,0.06075526401400566,-0.019301746040582657,0.06909775733947754
1772619037495384600,0.280384521484375,0.06426931172609329,-0.018510520458221436,0.06333281099796295
1772619037505414400,0.290414306640625,0.07357275485992432,-0.018480369821190834,0.05815763399004936
1772619037515445500,0.300445556640625,0.09502824395895004,-0.022755276411771774,0.05026908591389656
1772619037525476400,0.310476318359375,0.11038041859865189,-0.03161311894655228,0.04403233900666237
1772619037535507700,0.3205078125,0.1264326274394989,-0.037511490285396576,0.04013826325535774
1772619037545537500,0.33053759765625,0.12939155101776123,-0.043519873172044754,0.03954537957906723
1772619037555568400,0.340568359375,0.11872746795415878,-0.044429343193769455,0.03242621570825577
1772619037565599700,0.350599853515625,0.09725675731897354,-0.018836308270692825,0.02467096410691738
1772619037575629600,0.360629638671875,0.0657595545053482,0.017317168414592743,0.018908150494098663
1772619037585660400,0.370660400390625,0.03475473076105118,0.04307611659169197,0.0030118818394839764
1772619037595691500,0.38069140625,0.0042663319036364555,0.05486886203289032,-0.014121565036475658
1772619037605722600,0.39072265625,-0.013852125033736229,0.057122185826301575,-0.02836727723479271
1772619037615752400,0.40075244140625,-0.030731773003935814,0.04475739598274231,-0.04619207978248596
1772619037625783600,0.410783447265625,-0.039692580699920654,0.02332172729074955,-0.045805640518665314
1772619037635814700,0.420814697265625,-0.032416824251413345,0.010239481925964355,-0.034375619143247604
1772619037645844500,0.430844482421875,-0.019815510138869286,-0.011345229111611843,-0.017890792340040207
1772619037655875300,0.440875244140625,-0.011023616418242455,-0.042308203876018524,0.007479011081159115
1772619037665906700,0.45090673828125,0.0014130901545286179,-0.06757114827632904,0.03496873378753662
1772619037675936500,0.4609365234375,0.006943410262465477,-0.07610525190830231,0.04977218061685562
1772619037685967400,0.47096728515625,0.004019947722554207,-0.0832381621003151,0.049724359065294266
1772619037695998700,0.480998779296875,0.00010589975863695145,-0.06693508476018906,0.041530609130859375
1772619037706029600,0.491029541015625,-0.0035164207220077515,-0.040565360337495804,0.027644243091344833
1772619037716059400,0.501059326171875,-0.004622964188456535,-0.014871183782815933,0.009291600435972214
1772619037726090800,0.5110908203125,-0.006754382513463497,0.009469013661146164,-0.0006481847376562655
1772619037736121600,0.52112158203125,-0.009231654927134514,0.02466847375035286,-0.00040450552478432655
1772619037746151400,0.5311513671875,-0.010365028865635395,0.032602183520793915,0.005795052740722895
1772619037756182800,0.541182861328125,-0.00816951971501112,0.03112972155213356,0.015394950285553932
1772619037766213600,0.551213623046875,-0.0054762642830610275,0.020255504176020622,0.027797291055321693
1772619037776244700,0.56124462890625,0.0012966867070645094,0.008675547316670418,0.035869598388671875
1772619037786274600,0.571274658203125,0.0076422980055212975,0.0005960757844150066,0.04239041358232498
1772619037796305700,0.5813056640625,0.01683100312948227,-0.0230189710855484,0.05379033833742142
1772619037806336800,0.591336669921875,0.025947727262973785,-0.04910372197628021,0.061654143035411835
1772619037816366600,0.60136669921875,0.028394106775522232,-0.07215818017721176,0.07061488181352615
1772619037826397700,0.611397705078125,0.03149043396115303,-0.09246082603931427,0.06995044648647308
1772619037836428500,0.621428466796875,0.03587053343653679,-0.10463440418243408,0.07093741744756699
1772619037846459600,0.631459716796875,0.034707941114902496,-0.11544778943061829,0.06520470976829529
1772619037856489700,0.64148974609375,0.03757296875119209,-0.12161140888929367,0.057722821831703186
1772619037866520600,0.6515205078125,0.038520652800798416,-0.12132809311151505,0.05615025758743286
1772619037876551700,0.6615517578125,0.03102225996553898,-0.11983778327703476,0.05513319745659828
1772619037886581800,0.671581787109375,0.02294611558318138,-0.12245628982782364,0.05717376619577408
1772619037896612600,0.681612548828125,0.015104969963431358,-0.12364298850297928,0.059501901268959045
1772619037906643700,0.691643798828125,0.008748283609747887,-0.11280012875795364,0.05842948332428932
1772619037916674600,0.701674560546875,0.004807869903743267,-0.10933961719274521,0.06080449000000954
1772619037926704600,0.71170458984375,-0.00010615680366754532,-0.10827147960662842,0.06666489690542221
1772619037936735700,0.72173583984375,-0.002831901889294386,-0.10361254960298538,0.07717559486627579
1772619037946766600,0.7317666015625,-0.006300199311226606,-0.08192145079374313,0.0879976749420166
1772619037956796700,0.741796630859375,-0.016186652705073357,-0.06704743206501007,0.08323115110397339
1772619037966827500,0.75182763671875,-0.023747123777866364,-0.05210776627063751,0.07413691282272339
1772619037976858600,0.761858642578125,-0.035375818610191345,-0.023769870400428772,0.05583486706018448
1772619037986888700,0.771888671875,-0.048331983387470245,0.010064888745546341,0.03552117943763733
1772619037996919600,0.78191943359375,-0.05643225461244583,0.03263092041015625,0.013636653311550617
1772619038006950700,0.79195068359375,-0.06256015598773956,0.03822316229343414,0.0037630663719028234
1772619038016981500,0.8019814453125,-0.06202566251158714,0.031243283301591873,-0.0017155883833765984
1772619038027011600,0.812011474609375,-0.060283489525318146,0.02854941412806511,0.01311242114752531
1772619038037042700,0.822042724609375,-0.054681796580553055,0.017156142741441727,0.025488663464784622
1772619038047073500,0.832073486328125,-0.050351060926914215,-0.0017304886132478714,0.037914905697107315
1772619038057104600,0.842104736328125,-0.05055639147758484,-0.01946980506181717,0.04424470663070679
1772619038067134700,0.852134765625,-0.05409737676382065,-0.03075789287686348,0.03685666248202324
1772619038077165600,0.86216552734375,-0.05837254971265793,-0.03531802445650101,0.025893496349453926
1772619038087196700,0.87219677734375,-0.06478594988584518,-0.03022725135087967,0.011409711092710495
1772619038097226500,0.8822265625,-0.06371961534023285,-0.02283697947859764,0.0038742972537875175
1772619038107257600,0.892257568359375,-0.06494835764169693,-0.027868742123246193,0.003041960299015045
1772619038117288700,0.902288818359375,-0.06225377321243286,-0.03493863344192505,0.005446794908493757
1772619038127318500,0.912318603515625,-0.056531213223934174,-0.04314997419714928,0.016954412683844566
1772619038137349600,0.922349609375,-0.049496475607156754,-0.04792502522468567,0.025989985093474388
1772619038147380500,0.93238037109375,-0.04619531333446503,-0.04659459367394447,0.02852642722427845
1772619038157410800,0.942410888671875,-0.04351777210831642,-0.05017095431685448,0.01806286908686161
1772619038167441000,0.95244091796875,-0.04691043496131897,-0.041638799011707306,0.013131819665431976
1772619038177472000,0.962471923828125,-0.04662627726793289,-0.02661564201116562,0.01147533394396305
1772619038187502800,0.9725029296875,-0.03941262513399124,-0.013139793649315834,0.011818183586001396
1772619038197533000,0.982532958984375,-0.03362903743982315,-0.010427629575133324,0.018414832651615143
1772619038207563800,0.992563720703125,-0.028449490666389465,-0.010727711953222752,0.023354604840278625
1772619038217595000,1.002594970703125,-0.027375970035791397,-0.010155398398637772,0.01378453616052866
1772619038227625700,1.012625732421875,-0.029911011457443237,-0.00859251618385315,0.0035199979320168495
1772619038237655800,1.02265576171875,-0.03443412482738495,-0.0029439511708915234,-0.014648353680968285
1772619038247687000,1.03268701171875,-0.03346271440386772,-0.0019433614797890186,-0.03107902966439724
1772619038257717800,1.0427177734375,-0.03677701950073242,0.001357093919068575,-0.04039929062128067
1772619038267747800,1.052747802734375,-0.033921465277671814,-0.0029684524051845074,-0.04092922806739807
1772619038277779000,1.062779052734375,-0.0346253365278244,-0.009345391765236855,-0.03062492236495018
1772619038287809800,1.072809814453125,-0.03043058142066002,-0.009926955215632915,-0.014826742932200432
1772619038297839900,1.08283984375,-0.02610800415277481,-0.008910426869988441,-0.004789555910974741
1772619038307871000,1.09287109375,-0.02531745284795761,-0.012789953500032425,0.001912702340632677
1772619038317901800,1.10290185546875,-0.02567165344953537,-0.018311752006411552,0.0015638282056897879
1772619038327933000,1.112932861328125,-0.020251130685210228,-0.0263780876994133,0.005891217850148678
1772619038337962800,1.122962646484375,-0.0220173392444849,-0.0399029478430748,0.009871045127511024
1772619038347993900,1.132993896484375,-0.02099202200770378,-0.05319744721055031,0.02097376435995102
1772619038358025000,1.14302490234375,-0.0286941509693861,-0.0525636151432991,0.02999841794371605
1772619038368054800,1.1530546875,-0.03546902909874916,-0.042732641100883484,0.03739407658576965
1772619038378086000,1.1630859375,-0.038624074310064316,-0.02044225111603737,0.04332440346479416
1772619038388116700,1.17311669921875,-0.046609073877334595,0.001439864281564951,0.03533901274204254
1772619038398147800,1.18314794921875,-0.049691684544086456,0.019865211099386215,0.028911739587783813
1772619038408178000,1.193177978515625,-0.05401655286550522,0.029113134369254112,0.015570742078125477
1772619038418208800,1.203208740234375,-0.0526127964258194,0.026897652074694633,0.005018499679863453
1772619038428240000,1.213239990234375,-0.05068100243806839,0.020263366401195526,0.010307596065104008
1772619038438270000,1.22327001953125,-0.04603884741663933,0.015549838542938232,0.015914082527160645
1772619038448300800,1.23330078125,-0.037170711904764175,0.014764358289539814,0.030596071854233742
1772619038458332000,1.243331787109375,-0.025805139914155006,0.009764273650944233,0.03533916175365448
1772619038468362800,1.25336279296875,-0.014649158343672752,-0.007561985403299332,0.04015202447772026
1772619038478392800,1.263392822265625,-0.00856010802090168,-0.01905405893921852,0.036202557384967804
1772619038488424000,1.273423828125,-0.0017803413793444633,-0.04213817045092583,0.03282902389764786
1772619038498454800,1.283454833984375,-0.002996607217937708,-0.05405235290527344,0.026744768023490906
1772619038508484900,1.29348486328125,-0.004732165951281786,-0.0665096789598465,0.023930687457323074
1772619038518515700,1.303515625,-0.009597228839993477,-0.07232575863599777,0.022894717752933502
1772619038528546800,1.313546875,-0.012134723365306854,-0.062274668365716934,0.01696879416704178
1772619038538577000,1.323576904296875,-0.009809516370296478,-0.02891537733376026,0.01674615405499935
1772619038548607700,1.333607666015625,-0.004336105659604073,-0.01487630046904087,0.011698956601321697
1772619038558638800,1.343638916015625,-0.0038889609277248383,-0.01872190460562706,0.0007786647183820605
1772619038568669700,1.353669677734375,0.00027249474078416824,-0.022533686831593513,-0.004387601278722286
1772619038578699800,1.36369970703125,-0.0023006517440080643,-0.027883179485797882,-0.0095205781981349
1772619038588731000,1.37373095703125,-0.002053498290479183,-0.0376177616417408,-0.009379655122756958
1772619038598761700,1.38376171875,-0.004604007117450237,-0.049212366342544556,-0.003066099714487791
1772619038608791800,1.393791748046875,-0.006669881287962198,-0.05345646291971207,0.017148949205875397
1772619038618823000,1.403822998046875,-0.01081695593893528,-0.0637889951467514,0.039231617003679276
1772619038628853800,1.413853759765625,-0.011691318824887276,-0.07592689990997314,0.05618220195174217
1772619038638884900,1.423884765625,-0.016266362741589546,-0.11211952567100525,0.07330711930990219
1772619038648914700,1.433914794921875,-0.010334610007703304,-0.1435980498790741,0.09086860716342926
1772619038658945800,1.44394580078125,-0.00029475893825292587,-0.17206725478172302,0.11427672952413559
1772619038668977000,1.453976806640625,-0.0003112452104687691,-0.18494004011154175,0.12762537598609924
1772619038679006700,1.4640068359375,0.004975395742803812,-0.19090604782104492,0.1267816722393036
1772619038689037800,1.474037841796875,0.009556951001286507,-0.19117680191993713,0.1241665706038475
1772619038699068700,1.484068603515625,0.010351371020078659,-0.17021240293979645,0.11516615003347397
1772619038709098800,1.4940986328125,0.008498950861394405,-0.12830860912799835,0.09423334896564484
1772619038719129900,1.5041298828125,0.0066595058888196945,-0.099813312292099,0.06807497888803482
1772619038729160700,1.51416064453125,0.006083464249968529,-0.07867739349603653,0.04768315702676773
1772619038739191800,1.52419189453125,0.0029641035944223404,-0.06227898225188255,0.01969999074935913
1772619038749222000,1.534221923828125,-0.0009655589237809181,-0.04967634752392769,0.006232717540115118
1772619038759252700,1.544252685546875,-0.0001812577247619629,-0.035857200622558594,-0.010486607439815998
1772619038769283800,1.554283935546875,-0.0009173164144158363,-0.016270242631435394,-0.024984201416373253
1772619038779314000,1.56431396484375,0.00025767041370272636,0.003664317075163126,-0.02568328008055687
1772619038789344800,1.5743447265625,-0.0010220804251730442,0.002696497365832329,-0.009127537719905376
1772619038799376000,1.5843759765625,0.003600634401664138,-0.007274110801517963,0.005059654358774424
1772619038809406700,1.59440673828125,0.00693361833691597,-0.014453250914812088,0.017991824075579643
1772619038819436800,1.604436767578125,0.007212184835225344,-0.01061696745455265,0.02850518375635147
1772619038829467600,1.614467529296875,0.012546967715024948,0.0034393793903291225,0.028631743043661118
1772619038839498800,1.624498779296875,0.013801583088934422,0.01829742081463337,0.02534167282283306
1772619038849528800,1.63452880859375,0.017354542389512062,0.038293179124593735,0.02553327940404415
1772619038859559700,1.6445595703125,0.021388165652751923,0.07439925521612167,0.022894619032740593
1772619038869590800,1.6545908203125,0.025149311870336533,0.08821738511323929,0.024883342906832695
1772619038879620900,1.664620849609375,0.020469605922698975,0.06830386072397232,0.03456606715917587
1772619038889651700,1.674651611328125,0.02033992111682892,0.020000848919153214,0.048575930297374725
1772619038899682800,1.684682861328125,0.023559149354696274,-0.020919952541589737,0.05741443112492561
1772619038909713700,1.694713623046875,0.02493692934513092,-0.05086756497621536,0.06370630115270615
1772619038919743700,1.70474365234375,0.01530480943620205,-0.07563017308712006,0.06316328048706055
1772619038929774800,1.71477490234375,0.0026066729333251715,-0.07534413039684296,0.044690173119306564
1772619038939805700,1.7248056640625,-0.010350404307246208,-0.0504707396030426,0.027701865881681442
1772619038949835800,1.734835693359375,-0.027079015970230103,-0.012281063944101334,0.002154286950826645
1772619038959867000,1.744866943359375,-0.03698571026325226,0.021818317472934723,-0.023666124790906906
1772619038969897700,1.754897705078125,-0.036915767937898636,0.04969645291566849,-0.03877807781100273
1772619038979928800,1.7649287109375,-0.027777396142482758,0.06627196818590164,-0.04316989704966545
1772619038989958700,1.774958740234375,-0.014132626354694366,0.0685480609536171,-0.034735143184661865
1772619038999989800,1.78498974609375,-0.0012418613769114017,0.05955350026488304,-0.02039988338947296
1772619039010020600,1.7950205078125,0.010758921504020691,0.040959060192108154,0.0007548376452177763
1772619039020050700,1.80505078125,0.018290873616933823,0.022181374952197075,0.012415754608809948
1772619039030081800,1.815081787109375,0.018683230504393578,0.006855303421616554,0.01812954992055893
1772619039040112600,1.825112548828125,0.014891687780618668,-0.0009962283074855804,0.01548423245549202
1772619039050143700,1.835143798828125,0.00790317915380001,0.00577476155012846,0.0099820327013731
1772619039060173800,1.845173828125,0.001338752917945385,0.02415243536233902,-0.0031779776327311993
1772619039070204700,1.85520458984375,0.0007454240694642067,0.04057975485920906,-0.013396442867815495
1772619039080235800,1.86523583984375,0.0031803520396351814,0.05388890206813812,-0.018474292010068893
1772619039090265900,1.875265869140625,0.006313815712928772,0.053959671407938004,-0.01614513248205185
1772619039100296700,1.885296630859375,0.011289132758975029,0.047706834971904755,-0.0039925966411828995
1772619039110327800,1.895327880859375,0.018241629004478455,0.03617243096232414,0.004657250829041004
1772619039120357600,1.905357666015625,0.01605384238064289,0.025103267282247543,0.014358081854879856
1772619039130388700,1.915388671875,0.012339061126112938,0.0185525082051754,0.02107424847781658
1772619039140419800,1.925419921875,0.00403346074745059,0.01693224161863327,0.018206555396318436
1772619039150450700,1.93545068359375,0.0022627252619713545,0.019018296152353287,0.015157237648963928
1772619039160480800,1.945480712890625,0.006085692904889584,0.023535549640655518,0.004701133817434311
1772619039170511600,1.95551171875,0.004365192726254463,0.021596210077404976,-0.00631669582799077
1772619039180542700,1.965542724609375,-0.002616284415125847,0.014060795307159424,-0.012036899104714394
1772619039190572800,1.97557275390625,-0.006752728950232267,0.009692803956568241,-0.01321916002780199
1772619039200603600,1.985603759765625,-0.01502637192606926,0.006973451003432274,-0.009730685502290726
1772619039210634800,1.995634765625,-0.019530346617102623,0.0074133314192295074,-0.014308981597423553
1772619039220664800,2.005664794921875,-0.02168857306241989,0.016164211556315422,-0.012442903593182564
1772619039230695700,2.01569580078125,-0.022930525243282318,0.027215968817472458,-0.01120410393923521
1772619039240726800,2.025726806640625,-0.02023513987660408,0.026718754321336746,-0.011554576456546783
1772619039250757600,2.035757568359375,-0.02416425570845604,0.022339610382914543,-0.013124785386025906
1772619039260787700,2.04578759765625,-0.030931346118450165,0.01840425655245781,-0.015725096687674522
1772619039270818800,2.05581884765625,-0.03633614256978035,0.020434146746993065,-0.014706368558108807
1772619039280849700,2.065849609375,-0.04109521210193634,0.028859855607151985,-0.019827095791697502
1772619039290879700,2.075879638671875,-0.04372216388583183,0.03191443160176277,-0.02473401091992855
1772619039300910600,2.08591064453125,-0.04178684577345848,0.03625138849020004,-0.02730582468211651
1772619039310941700,2.095941650390625,-0.035300057381391525,0.035942625254392624,-0.023420127108693123
1772619039320972800,2.105972900390625,-0.02371237799525261,0.033913563936948776,-0.013760307803750038
1772619039331002600,2.116002685546875,-0.016965817660093307,0.032896898686885834,-0.004274476785212755
1772619039341033700,2.12603369140625,-0.009434930048882961,0.03286227583885193,0.006406663451343775
1772619039351064800,2.13606494140625,-0.007759114261716604,0.0375693179666996,0.010993851348757744
1772619039361094700,2.1460947265625,-0.009840108454227448,0.05019669607281685,0.013874858617782593
1772619039371125800,2.156125732421875,-0.0055140345357358456,0.0627577006816864,0.012647000141441822
1772619039381156900,2.166156982421875,-0.0015850728377699852,0.06581074744462967,0.003892657347023487
1772619039391186700,2.176186767578125,0.001720824046060443,0.0627351701259613,-0.0029957699589431286
1772619039401217800,2.1862177734375,0.00311046140268445,0.05816144868731499,-0.002652222290635109
1772619039411249000,2.196248779296875,0.004960041027516127,0.055628858506679535,-0.00013203185517340899
1772619039421280000,2.206280029296875,0.004849519580602646,0.04464811086654663,0.0022080878261476755
1772619039431309800,2.216309814453125,0.008395959623157978,0.03644322231411934,-0.001644462812691927
1772619039441341000,2.2263408203125,0.012142227962613106,0.023732749745249748,-0.00677664065733552
1772619039451372000,2.2363720703125,0.01925819367170334,0.00810212641954422,-0.007732981815934181
1772619039461401600,2.246401611328125,0.024162938818335533,-0.00045807287096977234,-0.008487454615533352
1772619039471433000,2.256432861328125,0.02245764434337616,-0.009880756959319115,-0.008845899254083633
1772619039481463800,2.2664638671875,0.016876190900802612,-0.012547645717859268,-0.01604602113366127
1772619039491495000,2.276494873046875,0.016976144164800644,-0.015085415914654732,-0.020154722034931183
1772619039501525000,2.28652490234375,0.013135867193341255,-0.007905533537268639,-0.02681901678442955
1772619039511555800,2.296555908203125,0.016890112310647964,0.0034019132144749165,-0.024070940911769867
1772619039521587000,2.3065869140625,0.012833052314817905,0.011400183662772179,-0.016772549599409103
1772619039531617000,2.316616943359375,0.010532552376389503,0.011772144585847855,-0.0100757060572505
1772619039541648000,2.32664794921875,0.00979086197912693,0.004764834884554148,-0.004184793680906296
1772619039551679000,2.336678955078125,0.00022304942831397057,-0.004559257999062538,0.000011164229363203049
1772619039561708800,2.346708740234375,-0.003328009508550167,-0.018932871520519257,0.002718267496675253
1772619039571740000,2.356739990234375,-0.00820301566272974,-0.03735737502574921,-0.00175213732291013
1772619039581771000,2.36677099609375,-0.012546365149319172,-0.046677108854055405,0.0017832090379670262
1772619039591801900,2.3768017578125,-0.011540209874510765,-0.03594955801963806,0.006980409380048513
1772619039601832000,2.38683203125,-0.01554853469133377,-0.01138775609433651,0.01943947561085224
1772619039611862800,2.39686279296875,-0.01554054394364357,0.0029243379831314087,0.026382070034742355
1772619039621894000,2.406893798828125,-0.015925372019410133,0.00578670296818018,0.025345833972096443
1772619039631924000,2.416924072265625,-0.01942664012312889,-0.0007370454259216785,0.015471324324607849
1772619039641954800,2.426954833984375,-0.022835221141576767,-0.006771768443286419,0.013686739839613438
1772619039651986000,2.43698583984375,-0.02762412838637829,-0.0014934535138309002,0.008783551864326
1772619039662016800,2.447016845703125,-0.02486243098974228,-0.003712399397045374,0.009735899046063423
1772619039672046800,2.457046875,-0.021468570455908775,0.0012827380560338497,0.006485526449978352
1772619039682078000,2.467077880859375,-0.023709885776042938,-0.005276894196867943,0.0012172615388408303
1772619039692108800,2.47710888671875,-0.020774416625499725,-0.0026750145480036736,-0.0018457152182236314
1772619039702139000,2.487138916015625,-0.015492836944758892,0.008555535227060318,-0.007215446792542934
1772619039712170000,2.497169921875,-0.012763166800141335,0.011207954958081245,-0.008691065013408661
1772619039722200800,2.507200927734375,-0.008753245696425438,0.003343374002724886,-0.019500304013490677
1772619039732231000,2.51723095703125,-0.010619821958243847,-0.011912132613360882,-0.024276047945022583
1772619039742261800,2.52726171875,-0.009097026661038399,-0.021656904369592667,-0.019902070984244347
1772619039752292900,2.53729296875,-0.008278464898467064,-0.022980524227023125,-0.018053105100989342
1772619039762324000,2.547323974609375,-0.001195256132632494,-0.013117507100105286,-0.014655711129307747
1772619039772353800,2.557353759765625,0.007910559885203838,-0.006959367543458939,-0.009073978289961815
1772619039782385000,2.567385009765625,0.013501600362360477,-0.00765711534768343,-0.004707992076873779
1772619039792415700,2.577415771484375,0.018569115549325943,-0.009117638692259789,0.003271917812526226
1772619039802445800,2.58744580078125,0.023636313155293465,-0.007280324120074511,0.00562961446121335
1772619039812477000,2.597476806640625,0.0232049860060215,-0.005223603453487158,0.01148727722465992
1772619039822507800,2.6075078125,0.02514190413057804,0.010977470315992832,0.015981361269950867
1772619039832537900,2.617537841796875,0.024928689002990723,0.023520452901721,0.016073303297162056
1772619039842569000,2.62756884765625,0.023096168413758278,0.026020094752311707,0.013634913600981236
1772619039852599800,2.637599853515625,0.024415140971541405,0.01976597122848034,0.009134681895375252
1772619039862631000,2.647630859375,0.01729331538081169,0.01922295242547989,0.008211895823478699
1772619039872661000,2.657660888671875,0.013091189786791801,0.011706866323947906,0.015139291994273663
1772619039882691800,2.66769189453125,0.01627632975578308,0.007042872719466686,0.021124212071299553
1772619039892723000,2.677722900390625,0.016855720430612564,0.010279049165546894,0.0258962269872427
1772619039902752800,2.687752685546875,0.018472790718078613,0.010866808705031872,0.02849201112985611
1772619039912784000,2.697783935546875,0.022269323468208313,0.011856285855174065,0.019819974899291992
1772619039922814700,2.707814697265625,0.02322113700211048,0.012533262372016907,0.012085355818271637
1772619039932845800,2.717845703125,0.02308877743780613,0.015114132314920425,0.004691621288657188
1772619039942876000,2.7278759765625,0.022297285497188568,0.019963746890425682,-0.0067551773972809315
1772619039952906800,2.73790673828125,0.02415851503610611,0.01333686150610447,-0.011720470152795315
1772619039962937900,2.747937744140625,0.027369489893317223,0.006422495469450951,-0.011883455328643322
1772619039972968000,2.757968017578125,0.03075264021754265,0.0008113165386021137,-0.01082099974155426
1772619039982998800,2.767998779296875,0.03285041078925133,-0.002286206465214491,-0.0031545578967779875
1772619039993030000,2.77802978515625,0.03086240030825138,-0.004044482484459877,-0.0007511971634812653
1772619040003060000,2.78806005859375,0.028372077271342278,-0.0024156933650374413,-0.0005679716705344617
1772619040013090800,2.7980908203125,0.025467418134212494,0.0036366204731166363,-0.004965485073626041
1772619040023122000,2.808121826171875,0.01984628476202488,0.011961663141846657,-0.008377260528504848
1772619040033152800,2.81815283203125,0.0230014156550169,0.02050270140171051,-0.013436824083328247
1772619040043182800,2.828182861328125,0.025427022948861122,0.02772492729127407,-0.010320393368601799
1772619040053214000,2.8382138671875,0.03120177797973156,0.029550453647971153,-0.0061331577599048615
1772619040063244800,2.848244873046875,0.03337518498301506,0.02158254012465477,0.005168232601135969
1772619040073275000,2.85827490234375,0.03347739577293396,0.017181387171149254,0.012979918159544468
1772619040083305700,2.8683056640625,0.03295142203569412,0.01703997328877449,0.0221095010638237
1772619040093336800,2.8783369140625,0.031807783991098404,0.017339691519737244,0.018983235582709312
1772619040103367700,2.88836767578125,0.031343862414360046,0.01774049736559391,0.014891553670167923
1772619040113397800,2.898397705078125,0.03418341279029846,0.028385112062096596,0.008354581892490387
1772619040123428900,2.908428955078125,0.035618856549263,0.03247705474495888,0.0008298199390992522
1772619040133459700,2.918459716796875,0.03170711547136307,0.033361002802848816,-0.006276049185544252
1772619040143489800,2.92848974609375,0.03317797929048538,0.025302544236183167,-0.007789257448166609
1772619040153521000,2.93852099609375,0.030878722667694092,0.01522071287035942,-0.0072043221443891525
1772619040163552300,2.94855224609375,0.03166036307811737,0.0031179762445390224,-0.008172914385795593
1772619040173582000,2.95858203125,0.03176939859986305,-0.011188831180334091,0.001536475494503975
1772619040183613200,2.96861328125,0.03384826332330704,-0.02055996283888817,0.004698979202657938
1772619040193644300,2.978644287109375,0.03557473048567772,-0.017068110406398773,0.002524831797927618
1772619040203675400,2.98867529296875,0.031453490257263184,-0.006887644063681364,-0.0035176146775484085
1772619040213705200,2.998705322265625,0.02055676467716694,0.009602087549865246,-0.014766348525881767
1772619040223736300,3.008736328125,0.011314797215163708,0.018546845763921738,-0.01505556795746088
1772619040233767200,3.01876708984375,0.006402025930583477,0.01292497105896473,-0.006026511080563068
1772619040243797200,3.02879736328125,0.004082945641130209,0.002659550402313471,0.0011192829115316272
1772619040253828400,3.038828369140625,0.019802024587988853,-0.003208516165614128,0.006589007098227739
1772619040263859200,3.048859130859375,0.030951881781220436,0.0030999798327684402,0.006619899999350309
1772619040273889300,3.05888916015625,0.041523247957229614,0.008865711279213428,0.007102032657712698
1772619040283920400,3.06892041015625,0.0367247648537159,0.010569334961473942,0.011468551121652126
1772619040293951200,3.078951171875,0.03309261053800583,0.004890367388725281,0.01960054226219654
1772619040303982300,3.088982421875,0.02756655216217041,-0.003918037749826908,0.01863487996160984
1772619040314012400,3.099012451171875,0.020001482218503952,-0.010108036920428276,0.01505009550601244
1772619040324043300,3.109043212890625,0.014138800092041492,-0.013358158990740776,0.013448735699057579
1772619040334074400,3.119074462890625,0.007942981086671352,-0.0195341557264328,0.006364011205732822
1772619040344104200,3.129104248046875,0.008127005770802498,-0.01633862964808941,-0.003910996485501528
1772619040354135300,3.13913525390625,0.007618316914886236,-0.006162297446280718,-0.006755601614713669
1772619040364166100,3.149166259765625,0.0075298999436199665,-0.00020560529083013535,-0.005988345015794039
1772619040374197200,3.159197265625,0.002217584988102317,0.0005991044454276562,-0.003256316529586911
1772619040384227300,3.169227294921875,0.0008955919183790684,-0.009301729500293732,0.0027376599609851837
1772619040394258200,3.179258056640625,-0.0027352417819201946,-0.019728638231754303,0.016725264489650726
1772619040404289300,3.189289306640625,-0.0033427090384066105,-0.017614886164665222,0.020386578515172005
1772619040414319400,3.1993193359375,-0.005289263557642698,-0.010022759437561035,0.01844603382050991
1772619040424350200,3.20935009765625,-0.01325344666838646,-0.010239007882773876,0.008998203091323376
1772619040434381300,3.21938134765625,-0.02234680950641632,-0.001019943505525589,-0.0020062443800270557
1772619040444411400,3.229411376953125,-0.027251021936535835,0.014137172140181065,-0.011815465986728668
1772619040454442200,3.239442138671875,-0.03456968814134598,0.017919182777404785,-0.013227066025137901
1772619040464473300,3.249473388671875,-0.04158152639865875,0.01235903613269329,-0.0005413645994849503
1772619040474504200,3.259504150390625,-0.040341608226299286,0.002416908275336027,0.017864907160401344
1772619040484534300,3.2695341796875,-0.034009404480457306,0.007567993830889463,0.03316210210323334
1772619040494565400,3.2795654296875,-0.0254632867872715,0.01687195710837841,0.04057992994785309
1772619040504596200,3.28959619140625,-0.013911827467381954,0.028374414891004562,0.03503389656543732
1772619040514626300,3.299626220703125,-0.015359311364591122,0.036901507526636124,0.0241853017359972
1772619040524657200,3.3096572265625,-0.012109722010791302,0.04079611599445343,0.018552981317043304
1772619040534688300,3.319688232421875,-0.019894002005457878,0.03107881359755993,0.01952580362558365
1772619040544718300,3.32971826171875,-0.024923913180828094,0.018064212054014206,0.01737929694354534
1772619040554749200,3.339749267578125,-0.023888185620307922,0.002721081953495741,0.015846196562051773
1772619040564780300,3.3497802734375,-0.024816561490297318,-0.01296973042190075,0.015683744102716446
1772619040574811100,3.35981103515625,-0.019619815051555634,-0.014108935371041298,0.01328140776604414
1772619040584841200,3.36984130859375,-0.013529164716601372,0.0008138217963278294,0.011227046139538288
1772619040594872300,3.379872314453125,-0.003277740441262722,0.019908716902136803,0.015662357211112976
1772619040604903200,3.389903076171875,-0.0015512127429246902,0.027398591861128807,0.017394741997122765
1772619040614933200,3.399933349609375,0.0035830822307616472,0.020903073251247406,0.021128984168171883
1772619040624964400,3.40996435546875,0.0019052906427532434,0.015247316099703312,0.017543571069836617
1772619040634995200,3.4199951171875,0.0023133642971515656,0.008831914514303207,0.0071548274718225
1772619040645025300,3.430025390625,0.006436470430344343,0.003074959386140108,-0.00033611198887228966
1772619040655056100,3.44005615234375,-0.0018686619587242603,-0.007566848769783974,-0.009785479865968227
1772619040665087200,3.450087158203125,-0.0022830497473478317,-0.012527785263955593,-0.007474388927221298
1772619040675118000,3.4601181640625,0.0015420736744999886,-0.016329307109117508,-0.005464951042085886
1772619040685148200,3.470148193359375,0.0007093031890690327,-0.01309862732887268,-0.0020326690282672644
1772619040695179300,3.48017919921875,-0.0022589340806007385,-0.015652906149625778,0.0007652811473235488
1772619040705210000,3.490210205078125,-0.004189459607005119,-0.010639771819114685,0.0021751588210463524
1772619040715240200,3.500240234375,-0.0002466151490807533,0.0015481295995414257,-0.0011693798005580902
1772619040725271300,3.510271240234375,0.0017257218714803457,0.013588013127446175,-0.016372833400964737
1772619040735302100,3.52030224609375,0.004799188580363989,0.018639735877513885,-0.03766700625419617
1772619040745333200,3.530333251953125,0.010385701432824135,0.02716105245053768,-0.05096150562167168
1772619040755363300,3.54036328125,0.006736392620950937,0.02303728647530079,-0.0492551364004612
1772619040765394200,3.550394287109375,0.002757097128778696,0.01613091118633747,-0.025783896446228027
1772619040775425300,3.56042529296875,-0.004978650249540806,0.00402776850387454,0.00940782018005848
1772619040785455000,3.570455078125,-0.008816798217594624,-0.019094593822956085,0.03738965466618538
1772619040795486200,3.580486328125,-0.00665099173784256,-0.024922028183937073,0.04655395820736885
1772619040805517300,3.590517333984375,0.004164904821664095,-0.005668173544108868,0.03618573769927025
1772619040815547100,3.600547119140625,0.01860678568482399,0.00984463095664978,0.02392774261534214
1772619040825578200,3.610578125,0.024638313800096512,0.021411273628473282,0.008192721754312515
1772619040835609000,3.620609130859375,0.02950470708310604,0.02742842026054859,-0.0017712293192744255
1772619040845640200,3.63064013671875,0.027474846690893173,0.021664805710315704,0.005584155209362507
1772619040855670300,3.640670166015625,0.02456076443195343,0.0033587561920285225,0.02164364792406559
1772619040865701000,3.650701171875,0.028513427823781967,-0.008408953435719013,0.0378926582634449
1772619040875732200,3.660732177734375,0.033051490783691406,-0.022304851561784744,0.0468151718378067
1772619040885762300,3.67076220703125,0.031790751963853836,-0.030811786651611328,0.04092346131801605
1772619040895793200,3.680793212890625,0.03731217980384827,-0.029832374304533005,0.02427753247320652
1772619040905824300,3.69082421875,0.03824721276760101,-0.010147886350750923,0.01332235150039196
1772619040915854300,3.700854248046875,0.03363636136054993,0.008722249418497086,-0.009588589891791344
1772619040925885200,3.71088525390625,0.0340837724506855,0.020089685916900635,-0.017772216349840164
1772619040935916300,3.720916259765625,0.031819138675928116,0.01632034219801426,-0.027390120550990105
1772619040945947100,3.730947021484375,0.034530770033597946,0.001856182236224413,-0.03255239129066467
1772619040955977200,3.740977294921875,0.03514039143919945,-0.022196684032678604,-0.028310760855674744
1772619040966008000,3.751008056640625,0.03147907927632332,-0.043085988610982895,-0.023742374032735825
1772619040976039200,3.7610390625,0.027297304943203926,-0.05254901573061943,-0.014086995273828506
1772619040986069200,3.7710693359375,0.016173280775547028,-0.04772363230586052,-0.010114092379808426
1772619040996100000,3.78110009765625,0.003467247821390629,-0.032596033066511154,-0.017200784757733345
1772619041006131200,3.791131103515625,-0.003769093193113804,-0.01946958154439926,-0.03297735005617142
1772619041016161300,3.801161376953125,-0.011699225753545761,0.0011486681178212166,-0.043017592281103134
1772619041026192100,3.811192138671875,-0.015512872487306595,0.014376589097082615,-0.053059838712215424
1772619041036223200,3.82122314453125,-0.017700694501399994,0.019019601866602898,-0.054047465324401855
1772619041046254000,3.831254150390625,-0.013772798702120781,0.01073424145579338,-0.043578047305345535
1772619041056284200,3.8412841796875,-0.013331511989235878,-0.007119591347873211,-0.025527674704790115
1772619041066315300,3.851315185546875,-0.009774861857295036,-0.03681117296218872,-0.005594979040324688
1772619041076346000,3.86134619140625,-0.014882958494126797,-0.060671668499708176,0.009101515635848045
1772619041086376200,3.871376220703125,-0.01884600892663002,-0.07397469133138657,0.018135489895939827
1772619041096407300,3.8814072265625,-0.026678044348955154,-0.07035618275403976,0.015315249562263489
1772619041106438100,3.891438232421875,-0.03212740644812584,-0.0557524710893631,0.009027261286973953
1772619041116469200,3.90146923828125,-0.03992388769984245,-0.031708866357803345,-0.001782905776053667
1772619041126499000,3.9114990234375,-0.04465233162045479,-0.012915737926959991,-0.005789897870272398
1772619041136530200,3.9215302734375,-0.04690280929207802,-0.011234315112233162,-0.008281126618385315
1772619041146561000,3.93156103515625,-0.04300127923488617,-0.014085762202739716,0.0015917439013719559
1772619041156591000,3.941591064453125,-0.043649956583976746,-0.009337990544736385,0.017057236284017563
1772619041166622500,3.95162255859375,-0.03993963822722435,-0.013106096535921097,0.03383861482143402
1772619041176653300,3.9616533203125,-0.033714018762111664,-0.017496000975370407,0.04743337631225586
1772619041186683400,3.971683349609375,-0.02532905712723732,-0.013157445006072521,0.06329409778118134
1772619041196714500,3.981714599609375,-0.01618882082402706,-0.006320311687886715,0.06676792353391647
1772619041206745300,3.991745361328125,-0.007685082033276558,-0.007246292661875486,0.06097022444009781
1772619041216776400,4.0017763671875,-0.004897117614746094,-0.002925002481788397,0.05642951652407646
1772619041226806500,4.011806640625,-0.0023055952042341232,-0.0005630450323224068,0.04382157698273659
1772619041236837400,4.02183740234375,-0.001295270398259163,0.002399834804236889,0.029523618519306183
1772619041246868500,4.031868408203125,0.00015402166172862053,-0.0009251218289136887,0.020854229107499123
1772619041256898300,4.041898193359375,0.0005544521845877171,0.0018031895160675049,0.018786443397402763
1772619041266929400,4.051929443359375,0.0022002856712788343,0.002366182394325733,0.016438335180282593
1772619041276960300,4.061960205078125,0.003978549502789974,0.007658835966140032,0.007274114526808262
1772619041286990300,4.071990234375,0.004177487455308437,0.0015924214385449886,-0.004218490794301033
1772619041297021400,4.082021484375,0.010714787058532238,-0.004078837111592293,-0.00813347939401865
1772619041307052300,4.09205224609375,0.0203852578997612,-0.009499168954789639,-0.007383800111711025
1772619041317083400,4.10208349609375,0.020328469574451447,-0.01635342836380005,-0.003357840236276388
1772619041327113500,4.112113525390625,0.02347419410943985,-0.023174051195383072,-0.0010387597139924765
1772619041337144300,4.122144287109375,0.02571534737944603,-0.023189472034573555,0.00581921124830842
1772619041347175400,4.132175537109375,0.02458004280924797,-0.02364913374185562,0.0090541522949934
1772619041357205500,4.14220556640625,0.024342436343431473,-0.022378550842404366,0.01713295467197895
1772619041367236400,4.152236328125,0.021294981241226196,-0.012766137719154358,0.016598457470536232
1772619041377267500,4.162267333984375,0.01912604086101055,-0.00254847202450037,0.012663695029914379
1772619041387297300,4.17229736328125,0.016996311023831367,0.004957381170243025,0.001673361985012889
1772619041397328400,4.182328369140625,0.01373884454369545,0.01710548624396324,-0.010509162209928036
1772619041407359500,4.192359375,0.006443114951252937,0.02509710006415844,-0.020034490153193474
1772619041417390300,4.202390380859375,0.005197708494961262,0.01951208896934986,-0.028952457010746002
1772619041427420400,4.21242041015625,0.00623900443315506,0.024655984714627266,-0.026215793564915657
1772619041437451300,4.222451171875,0.006843388080596924,0.03370017930865288,-0.01664401963353157
1772619041447482400,4.232482421875,0.008853275328874588,0.032060470432043076,-0.012794421054422855
1772619041457512400,4.242512451171875,0.007686012424528599,0.025664089247584343,-0.022319482639431953
1772619041467543300,4.252543212890625,-0.0011319802142679691,0.022962044924497604,-0.03686034306883812
1772619041477574400,4.262574462890625,-0.010525362566113472,0.01438129972666502,-0.050886377692222595
1772619041487605200,4.272605224609375,-0.01851564645767212,0.0006311326287686825,-0.05069170147180557
1772619041497635300,4.28263525390625,-0.020710475742816925,-0.012856139801442623,-0.038405776023864746
1772619041507666400,4.29266650390625,-0.016697891056537628,-0.02533065341413021,-0.01826615259051323
1772619041517697300,4.302697265625,-0.007985205389559269,-0.031135642901062965,-0.011001420207321644
1772619041527727400,4.312727294921875,0.0024703650269657373,-0.014948150143027306,-0.019632991403341293
1772619041537758500,4.322758544921875,0.0024010324850678444,0.013018209487199783,-0.031977612525224686
1772619041547789300,4.332789306640625,0.004882832523435354,0.02610604837536812,-0.03862220048904419
1772619041557819400,4.3428193359375,0.0020276070572435856,0.02805487997829914,-0.038170307874679565
1772619041567850200,4.352850341796875,0.005696910433471203,0.018824893981218338,-0.037082407623529434
1772619041577881300,4.36288134765625,0.00865095667541027,0.001707509160041809,-0.04315740615129471
1772619041587912400,4.372912353515625,0.022385943681001663,0.01091831736266613,-0.047717537730932236
1772619041597942300,4.3829423828125,0.027676459401845932,0.018246974796056747,-0.05305275321006775
1772619041607973400,4.392973388671875,0.032756704837083817,0.016906872391700745,-0.062236398458480835
1772619041618004200,4.403004150390625,0.03603420779109001,0.02803301066160202,-0.07302476465702057
1772619041628034300,4.413034423828125,0.03399928659200668,0.02756349742412567,-0.08486410975456238
1772619041638065400,4.4230654296875,0.03552057221531868,0.027939224615693092,-0.08494504541158676
1772619041648096300,4.43309619140625,0.03829372301697731,0.02558259479701519,-0.08163207769393921
1772619041658126300,4.443126220703125,0.0336155891418457,0.02781471610069275,-0.07571461796760559
1772619041668157400,4.453157470703125,0.02841523289680481,0.028432302176952362,-0.07093983143568039
1772619041678188300,4.463188232421875,0.027129553258419037,0.034668851643800735,-0.07182557880878448
1772619041688219400,4.473219482421875,0.02521846815943718,0.041573893278837204,-0.07301893830299377
1772619041698249200,4.483249267578125,0.01980624720454216,0.043155308812856674,-0.08430667221546173
1772619041708280300,4.4932802734375,0.011938737705349922,0.04697801172733307,-0.09591139107942581
1772619041718311400,4.5033115234375,0.005861695855855942,0.044293954968452454,-0.0886848196387291
1772619041728341200,4.51334130859375,0.002086665015667677,0.044475048780441284,-0.07469576597213745
1772619041738372400,4.523372314453125,0.003638355527073145,0.04298783838748932,-0.050246741622686386
1772619041748403200,4.5334033203125,0.005164879374206066,0.0349954254925251,-0.03202858939766884
1772619041758433300,4.543433349609375,0.0051111094653606415,0.017141329124569893,-0.018536468967795372
1772619041768464400,4.55346435546875,0.0027494183741509914,0.002452398184686899,-0.01919240690767765
1772619041778495200,4.5634951171875,0.0027532291132956743,0.001437957864254713,-0.026443902403116226
1772619041788526300,4.5735263671875,0.002806492382660508,0.0021823118440806866,-0.04191100597381592
1772619041798556400,4.583556396484375,-0.0030061593279242516,0.006189093459397554,-0.05131741613149643
1772619041808587300,4.593587158203125,-0.006793706677854061,0.010785175487399101,-0.05445701628923416
1772619041818618400,4.603618408203125,-0.00937461107969284,0.016467619687318802,-0.052567899227142334
1772619041828648400,4.6136484375,-0.008754361420869827,0.024305302649736404,-0.03943292051553726
1772619041838679300,4.62367919921875,-0.009781809523701668,0.018950752913951874,-0.026622848585247993
1772619041848710400,4.63371044921875,-0.00715859467163682,0.015624728985130787,-0.013319294899702072
1772619041858740200,4.643740234375,-0.0022735698148608208,0.014228364452719688,-0.005666743498295546
1772619041868771300,4.653771240234375,0.0023992126807570457,0.014628371223807335,-0.0011412339517846704
1772619041878802200,4.66380224609375,0.0017873900942504406,0.01968642696738243,0.0030788592994213104
1772619041888833300,4.673833251953125,0.0055389851331710815,0.016293026506900787,0.009611593559384346
1772619041898863400,4.68386328125,0.005853576119989157,0.010570372454822063,0.014920739457011223
1772619041908894200,4.693894287109375,0.011396413668990135,0.015502280555665493,0.01802385412156582
1772619041918925300,4.70392529296875,0.0159714687615633,0.020629337057471275,0.02305973693728447
1772619041928955400,4.713955322265625,0.01506279781460762,0.020157957449555397,0.024779606610536575
1772619041938986200,4.723986328125,0.010576277039945126,0.0173054076731205,0.018274076282978058
1772619041949017300,4.734017333984375,0.008670785464346409,0.021302547305822372,0.010413490235805511
1772619041959048200,4.744048095703125,0.011083993129432201,0.029377879574894905,0.016396651044487953
1772619041969078300,4.754078369140625,0.014567408710718155,0.025773556903004646,0.025449801236391068
1772619041979109400,4.764109375,0.018395183607935905,0.024669211357831955,0.02791832573711872
1772619041989140200,4.77414013671875,0.02648267149925232,0.02655686065554619,0.027029363438487053
1772619041999170300,4.78417041015625,0.027225054800510406,0.01497954223304987,0.02487107552587986
1772619042009201400,4.794201416015625,0.02699415758252144,0.004959665238857269,0.010054579004645348
1772619042019232300,4.804232177734375,0.02530779503285885,0.005893888883292675,0.00708285765722394
1772619042029262300,4.814262451171875,0.017751606181263924,0.0011601205915212631,0.0037483139894902706
1772619042039293200,4.824293212890625,0.011684536002576351,-0.003458364401012659,0.007305419072508812
1772619042049324300,4.83432421875,0.005964598618447781,0.005368150770664215,0.020962907001376152
1772619042059354400,4.844354248046875,0.006472866050899029,0.011067148298025131,0.035062871873378754
1772619042069385200,4.85438525390625,0.008239340968430042,0.015765231102705002,0.03733934089541435
1772619042079416300,4.864416259765625,0.0054350197315216064,0.016813915222883224,0.03041161596775055
1772619042089447200,4.874447265625,0.0030437675304710865,0.025258265435695648,0.015753578394651413
1772619042099477200,4.884477294921875,-0.0026086396537721157,0.04284774512052536,0.0007851285627111793
1772619042109508400,4.89450830078125,-0.004400148056447506,0.049376215785741806,-0.0073385778814554214
1772619042119539200,4.904539306640625,-0.003622402437031269,0.041018784046173096,-0.011179810389876366
1772619042129569300,4.9145693359375,-0.0018828259781002998,0.026770872995257378,-0.008725441060960293
1772619042139600400,4.924600341796875,0.0011406487319618464,0.010695427656173706,0.008389055728912354
1772619042149631200,4.93463134765625,0.005106628406792879,0.0009599770419299603,0.025789083912968636
1772619042159662300,4.944662353515625,0.007089464459568262,-0.0031917947344481945,0.03479466959834099
1772619042169692400,4.9546923828125,0.00659384997561574,-0.005727123934775591,0.034109972417354584
1772619042179723500,4.9647236328125,0.00041249440982937813,-0.001216372475028038,0.02328874170780182
1772619042189754400,4.97475439453125,-0.003072518389672041,-0.000016085803508758545,0.00752788782119751
1772619042199784400,4.984784423828125,-0.004967249929904938,-0.005307156592607498,-0.011313069611787796
1772619042209815600,4.994815673828125,-0.0036228857934474945,-0.014305444434285164,-0.017543001100420952
1772619042219846400,5.004846435546875,-0.0019273478537797928,-0.016844265162944794,-0.011094756424427032
1772619042229876500,5.01487646484375,-0.0025952686555683613,-0.01881233975291252,0.0005278110038489103
1772619042239907600,5.024907470703125,-0.0033084284514188766,-0.01967392861843109,0.014249607920646667
1772619042249938400,5.0349384765625,0.0017654262483119965,-0.023847103118896484,0.016832606866955757
1772619042259969800,5.0449697265625,0.006372300907969475,-0.014505562372505665,0.013450847938656807
1772619042269999600,5.05499951171875,0.007189359050244093,-0.009545691311359406,0.0029547971207648516
1772619042280030500,5.065030517578125,0.007602185942232609,-0.009783509187400341,-0.012941336259245872
1772619042290061800,5.075061767578125,0.0033736189361661673,0.0029858150519430637,-0.0259130597114563
1772619042300091400,5.08509130859375,0.007475546561181545,0.02068755216896534,-0.025044942274689674
1772619042310122500,5.09512255859375,0.009930981323122978,0.03126349672675133,-0.021979112178087234
1772619042320153600,5.105153564453125,0.010493304580450058,0.03121652640402317,-0.021694540977478027
1772619042330183400,5.115183349609375,0.011137522757053375,0.029698258265852928,-0.017115235328674316
1772619042340214500,5.125214599609375,0.010097783990204334,0.027700679376721382,-0.011134164407849312
1772619042350245600,5.13524560546875,0.00781785137951374,0.03194042667746544,-0.020070135593414307
1772619042360276700,5.14527685546875,0.005235481541603804,0.032474879175424576,-0.024629980325698853
1772619042370306600,5.155306640625,0.00301653565838933,0.03841080144047737,-0.03507409989833832
1772619042380337700,5.165337646484375,0.004443387500941753,0.03741682693362236,-0.046398330479860306
1772619042390368800,5.17536865234375,0.006563263945281506,0.032998643815517426,-0.044461678713560104
1772619042400398600,5.185398681640625,0.0035929614678025246,0.033461347222328186,-0.041169993579387665
1772619042410429700,5.1954296875,0.0028637880459427834,0.033461879938840866,-0.0434134416282177
1772619042420460800,5.205460693359375,-0.0009049400687217712,0.031676605343818665,-0.044669654220342636
1772619042430490400,5.215490478515625,-0.0016825832426548004,0.031078994274139404,-0.043089598417282104
1772619042440521700,5.225521728515625,-0.0002598334103822708,0.027818642556667328,-0.04019208252429962
1772619042450552600,5.235552490234375,-0.0017946134321391582,0.02643406391143799,-0.04326004162430763
1772619042460583700,5.245583740234375,-0.002606648951768875,0.03157295659184456,-0.04307880252599716
1772619042470613800,5.25561376953125,-0.006227749399840832,0.038169339299201965,-0.04704531654715538
1772619042480644600,5.26564453125,-0.009284619241952896,0.03544823080301285,-0.05333463475108147
1772619042490675700,5.27567578125,-0.003272800240665674,0.024901846423745155,-0.049651481211185455
1772619042500705800,5.285705810546875,-0.000234873965382576,0.015309087932109833,-0.040400855243206024
1772619042510736600,5.295736572265625,0.004026183858513832,-0.001467761117964983,-0.020920896902680397
1772619042520767700,5.305767822265625,0.0017788547556847334,-0.01845623552799225,-0.005152746103703976
1772619042530797800,5.3157978515625,-0.00765006709843874,-0.02972034178674221,0.004980049096047878
1772619042540828700,5.32582861328125,-0.0068760705180466175,-0.021673712879419327,0.007434397470206022
1772619042550859800,5.33585986328125,-0.010584255680441856,-0.0038140229880809784,-0.0032115885987877846
1772619042560890600,5.345890625,-0.012591443955898285,0.012171142734587193,-0.009978892281651497
1772619042570920700,5.355920654296875,-0.014094797894358635,0.02560652419924736,-0.021747931838035583
1772619042580951800,5.365951904296875,-0.01330531481653452,0.025576330721378326,-0.02647489495575428
1772619042590982700,5.375982666015625,-0.02224474772810936,0.024744093418121338,-0.02539950981736183
1772619042601013800,5.386013671875,-0.019684409722685814,0.016359522938728333,-0.019423192366957664
1772619042611043600,5.396043701171875,-0.020368309691548347,0.020088480785489082,-0.008273070678114891
1772619042621074700,5.40607470703125,-0.019044706597924232,0.02607693523168564,-0.0019062100909650326
1772619042631105500,5.41610546875,-0.015629202127456665,0.022035323083400726,-0.0028159460052847862
1772619042641135600,5.426135498046875,-0.010349219664931297,0.020535696297883987,-0.006785387638956308
1772619042651166700,5.436166748046875,-0.012835545465350151,0.016842156648635864,-0.010185444727540016
1772619042661197600,5.446197509765625,-0.013230797834694386,0.012859722599387169,-0.007641984615474939
1772619042671227600,5.4562275390625,-0.01247845496982336,0.0099137332290411,-0.003661890048533678
1772619042681258800,5.4662587890625,-0.009298223070800304,0.011432632803916931,0.002621952909976244
1772619042691289600,5.47628955078125,-0.00275723310187459,0.01431550458073616,0.002318352460861206
1772619042701320700,5.48632080078125,0.003799635451287031,0.0072210258804261684,0.001407069736160338
1772619042711350800,5.496350830078125,0.007271065842360258,-0.0028121676295995712,0.0013159896479919553
1772619042721381600,5.506381591796875,0.013587221503257751,-0.01726416125893593,0.0025070146657526493
1772619042731412700,5.516412841796875,0.018949497491121292,-0.02672716975212097,0.007168611977249384
1772619042741442600,5.526442626953125,0.01736970990896225,-0.024460554122924805,0.005604537203907967
1772619042751473700,5.5364736328125,0.021007321774959564,-0.015102473087608814,0.007703907322138548
1772619042761504800,5.5465048828125,0.023114211857318878,-0.003132279496639967,0.009530509822070599
1772619042771534600,5.55653466796875,0.023759227246046066,0.004036417696624994,0.00915074348449707
1772619042781565700,5.566565673828125,0.021198119968175888,0.006811710074543953,0.013640731573104858
1772619042791596500,5.576596435546875,0.016897113993763924,0.005808764137327671,0.019147880375385284
1772619042801627600,5.586627685546875,0.014277645386755466,0.012008730322122574,0.018079346045851707
1772619042811657700,5.59665771484375,0.007373932749032974,0.02161688357591629,0.015549076721072197
1772619042821688600,5.6066884765625,0.0015131458640098572,0.01863675005733967,0.007444404531270266
1772619042831719700,5.6167197265625,0.0009893020614981651,0.017758173868060112,-0.0011738506145775318
1772619042841749800,5.626749755859375,-0.0038019120693206787,0.02005723863840103,-0.0026833033189177513
1772619042851780600,5.636780517578125,-0.005367584526538849,0.01738874986767769,-0.0063123926520347595
1772619042861811700,5.646811767578125,-0.0075157019309699535,0.010335566475987434,0.003565496299415827
1772619042871841800,5.656841796875,-0.0064501711167395115,0.00014178361743688583,0.013770196586847305
1772619042881872600,5.66687255859375,-0.008212564513087273,0.003087196499109268,0.018865646794438362
1772619042891902700,5.67690283203125,-0.0025765174068510532,-0.00236322870478034,0.021704843267798424
1772619042901933600,5.68693359375,-0.001631107646971941,0.002677000593394041,0.019755901768803596
1772619042911964700,5.696964599609375,0.0018027720507234335,0.004882630426436663,0.015619744546711445
1772619042921994800,5.706994873046875,0.00351869803853333,0.00562300207093358,0.015321370214223862
1772619042932025600,5.717025634765625,0.0029746140353381634,0.006031265016645193,0.012852086685597897
1772619042942056700,5.727056640625,0.001326507655903697,0.0063514718785882,0.015114543959498405
1772619042952087600,5.737087646484375,-0.0010026930831372738,0.013587545603513718,0.007777535356581211
1772619042962117600,5.74711767578125,-0.0007389620877802372,0.013385499827563763,0.005581983365118504
1772619042972148700,5.757148681640625,-0.0018801265396177769,0.009436299093067646,0.00016138528008013964
1772619042982179600,5.7671796875,0.002835496561601758,-0.003664798568934202,0.0009924332844093442
1772619042992209700,5.777209716796875,0.004789191763848066,-0.017904987558722496,0.0038883546367287636
1772619043002240800,5.78724072265625,0.008772493340075016,-0.028671544045209885,0.008955592289566994
1772619043012271600,5.797271728515625,0.007452630437910557,-0.030952543020248413,0.013880842365324497
1772619043022302700,5.807302734375,0.008131435140967369,-0.02104366198182106,0.009122714400291443
1772619043032332500,5.81733251953125,0.013231122866272926,-0.005800793878734112,0.0109696164727211
1772619043042363600,5.82736376953125,0.014950569719076157,0.00514782452955842,0.007065263111144304
1772619043052394800,5.837394775390625,0.018573801964521408,0.018105434253811836,0.0005631555104628205
1772619043062424600,5.847424560546875,0.02429015189409256,0.03017337992787361,0.002076480770483613
1772619043072455700,5.85745556640625,0.027088068425655365,0.032422687858343124,0.0023105726577341557
1772619043082486500,5.867486572265625,0.022892331704497337,0.02610822021961212,0.0029728845693171024
1772619043092516600,5.8775166015625,0.020229170098900795,0.010893580503761768,0.006377735640853643
1772619043102547700,5.887547607421875,0.01733957976102829,-0.004515019711107016,0.007569825276732445
1772619043112578600,5.89757861328125,0.016044486314058304,-0.01665211096405983,0.0025537610054016113
1772619043122609700,5.907609619140625,0.017465926706790924,-0.02381911128759384,-0.0049948617815971375
1772619043132639700,5.9176396484375,0.01839909702539444,-0.017165470868349075,-0.007136842235922813
1772619043142670600,5.927670654296875,0.0171838216483593,-0.014474499970674515,-0.013429341837763786
1772619043152701700,5.93770166015625,0.013022365048527718,-0.00602056086063385,-0.017621422186493874
1772619043162731500,5.9477314453125,0.010357403196394444,-0.00419008731842041,-0.016804957762360573
1772619043172762600,5.9577626953125,0.0066540115512907505,-0.009865283034741879,-0.011764658614993095
1772619043182793700,5.967793701171875,0.007037929259240627,-0.010089884512126446,-0.007740463595837355
1772619043192823600,5.977823486328125,0.003794465446844697,-0.017086008563637733,-0.008801999501883984
1772619043202854700,5.987854736328125,0.010896001942455769,-0.023941662162542343,-0.01049000769853592
1772619043212885500,5.997885498046875,0.012474723160266876,-0.02337867021560669,-0.019421717151999474
1772619043222916600,6.00791650390625,0.014905549585819244,-0.02535928785800934,-0.020683584734797478
1772619043232946700,6.01794677734375,0.011735056526958942,-0.02465488202869892,-0.023250339552760124
1772619043242977500,6.0279775390625,0.013868382200598717,-0.029714325442910194,-0.019092537462711334
1772619043253008600,6.038008544921875,0.014925390481948853,-0.035549312829971313,-0.017832862213253975
1772619043263038700,6.048038818359375,0.009151790291070938,-0.0380585715174675,-0.015861665830016136
1772619043273069600,6.058069580078125,0.004136791452765465,-0.03805830329656601,-0.011624310165643692
1772619043283100700,6.0681005859375,-0.0018034144304692745,-0.03918655961751938,-0.00944432895630598
1772619043293131500,6.078131591796875,-0.010620607994496822,-0.03234090283513069,-0.0057542528957128525
1772619043303161600,6.08816162109375,-0.01067442912608385,-0.015966065227985382,0.002751534339040518
1772619043313192700,6.098192626953125,-0.009713560342788696,0.00334611302241683,0.01048269122838974
1772619043323223600,6.1082236328125,-0.006127396132797003,0.019470473751425743,0.011957116425037384
1772619043333253600,6.118253662109375,-0.0006237071938812733,0.020369557663798332,0.009265726432204247
1772619043343284500,6.128284423828125,0.004372773692011833,0.009298430755734444,0.011204655282199383
1772619043353315600,6.138315673828125,0.0026065653655678034,-0.0012367679737508297,0.011580160818994045
1772619043363345700,6.148345703125,-0.0017205257900059223,-0.012387353926897049,0.019701244309544563
1772619043373376500,6.15837646484375,-0.0021586157381534576,-0.01763351447880268,0.023666424676775932
1772619043383407600,6.16840771484375,-0.0016213948838412762,-0.020494140684604645,0.02339008077979088
1772619043393438500,6.1784384765625,0.0014124782755970955,-0.023577015846967697,0.020230507478117943
1772619043403468500,6.188468505859375,0.0067654880695044994,-0.02157077193260193,0.014483349397778511
1772619043413499600,6.198499755859375,0.010773012414574623,-0.013601262122392654,0.008981258608400822
1772619043423530500,6.208530517578125,0.008181946352124214,0.0009188074618577957,0.011768611147999763
1772619043433560600,6.218560546875,0.006467669736593962,0.010463576763868332,0.008749385364353657
1772619043443591700,6.228591796875,0.009014006704092026,0.009069232270121574,0.012793615460395813
1772619043453622500,6.23862255859375,0.013524070382118225,-0.0008012414909899235,0.014620543457567692
1772619043463652600,6.248652587890625,0.01997840404510498,-0.00455459114164114,0.021365536376833916
1772619043473683700,6.25868359375,0.018159199506044388,-0.005284030921757221,0.030089518055319786
1772619043483714600,6.268714599609375,0.01965750753879547,-0.0048770303837955,0.03290611878037453
1772619043493745700,6.27874560546875,0.02254517190158367,-0.001367783173918724,0.027169937267899513
1772619043503775500,6.288775390625,0.01838728040456772,0.0021389578469097614,0.0246798787266016
1772619043513806600,6.298806640625,0.01586846262216568,-0.00283263111487031,0.013227219693362713
1772619043523837400,6.30883740234375,0.012111032381653786,-0.002566440962255001,0.01010687742382288
1772619043533867500,6.318867431640625,0.007071265950798988,0.0025881072506308556,0.010366268455982208
1772619043543898600,6.328898681640625,0.0008866447024047375,0.0034256153739988804,0.010067320428788662
1772619043553929500,6.338929443359375,-0.000560250598937273,0.000750469509512186,0.013997613452374935
1772619043563959600,6.34895947265625,0.002915634075179696,-0.0011663609184324741,0.012038076296448708
1772619043573990700,6.35899072265625,0.0033710345160216093,-0.004670814611017704,0.011193322017788887
1772619043584021500,6.369021484375,0.005356545560061932,-0.0071569751016795635,0.008902352303266525
1772619043594052600,6.379052490234375,0.005411406513303518,-0.011668370105326176,0.012397484853863716
1772619043604082700,6.389082763671875,0.0019684459548443556,-0.01809471659362316,0.009521455504000187
1772619043614113500,6.399113525390625,-0.0016579804942011833,-0.025447705760598183,0.01399476733058691
1772619043624144600,6.40914453125,-0.004200296942144632,-0.017729947343468666,0.014549295417964458
1772619043634174500,6.419174560546875,-0.00018132058903574944,-0.003789630951359868,0.016849735751748085
1772619043644205600,6.42920556640625,-0.0035906238481402397,0.008839765563607216,0.01102911215275526
1772619043654236700,6.439236572265625,-0.0037339013069868088,0.009558020159602165,0.009500989690423012
1772619043664266500,6.4492666015625,-0.003681196365505457,0.0029332656413316727,0.009357630275189877
1772619043674297600,6.459297607421875,-0.007676736917346716,0.0010805046185851097,0.008572796359658241
1772619043684328400,6.469328369140625,-0.01439964585006237,-0.006372491363435984,0.010134125128388405
1772619043694359600,6.479359619140625,-0.012144748121500015,-0.005534661002457142,0.011530420742928982
1772619043704389600,6.4893896484375,-0.010067088529467583,-0.008406122215092182,0.01394194271415472
1772619043714420500,6.49942041015625,-0.004783377051353455,-0.006085177883505821,0.008901111781597137
1772619043724451600,6.50945166015625,-0.0033685285598039627,-0.006851383950561285,0.0020337114110589027
1772619043734481700,6.519481689453125,0.0003175521269440651,-0.002581004984676838,0.0004981328966096044
1772619043744512500,6.529512451171875,-0.005592281464487314,-0.000307534821331501,0.0011012976756319404
1772619043754543600,6.539543701171875,-0.010079974308609962,-7.385388016700745e-7,-0.003647917415946722
1772619043764573700,6.54957373046875,-0.009953860193490982,0.000643046572804451,-0.0016299240523949265
1772619043774604500,6.5596044921875,-0.007388170342892408,0.0017818142659962177,-0.002746853744611144
1772619043784635600,6.5696357421875,-0.004143736325204372,-0.0018521547317504883,0.0020575369708240032
1772619043794666500,6.57966650390625,0.0011935050133615732,-0.002142439130693674,0.00039465934969484806
1772619043804696600,6.589696533203125,0.00045597366988658905,-0.0032767062075436115,-0.004130647983402014
1772619043814727400,6.5997275390625,0.002735106972977519,-0.00411187345162034,-0.0031151846051216125
1772619043824758500,6.609758544921875,0.002986638341099024,-0.010144832544028759,-0.0007618694799020886
1772619043834788600,6.61978857421875,0.0018172443378716707,-0.011231668293476105,-0.0022708165924996138
1772619043844819500,6.6298193359375,0.005667670164257288,-0.013596149161458015,0.005043371114879847
1772619043854850600,6.6398505859375,0.007794470526278019,-0.01037825271487236,-0.0012970828684046865
1772619043864880600,6.649880615234375,0.009098793379962444,-0.01039045862853527,-0.01025411393493414
1772619043874911500,6.659911376953125,0.01175343245267868,-0.006136857904493809,-0.014864844270050526
1772619043884942600,6.669942626953125,0.014730481430888176,0.003654493484646082,-0.01005843747407198
1772619043894973400,6.679973388671875,0.012332038953900337,0.01132759265601635,-0.00637368718162179
1772619043905003500,6.69000341796875,0.01255902647972107,0.014453302137553692,0.0016038360772654414
1772619043915034600,6.70003466796875,0.012692183256149292,0.008291279897093773,0.001326334779150784
1772619043925065500,6.7100654296875,0.01288516540080309,0.0031257853843271732,-0.004308447707444429
1772619043935095600,6.720095458984375,0.006285852752625942,0.012191718444228172,-0.01609293557703495
1772619043945126700,6.730126708984375,0.0037006877828389406,0.03549683094024658,-0.0349530354142189
1772619043955157500,6.740157470703125,0.005348119419068098,0.04055071249604225,-0.04141546040773392
1772619043965187600,6.7501875,0.006242732517421246,0.028783617541193962,-0.03699174523353577
1772619043975218400,6.760218505859375,0.008045959286391735,0.02262638881802559,-0.02405916526913643
1772619043985249500,6.77024951171875,0.015136359259486198,0.014844100922346115,-0.004286792129278183
1772619043995280400,6.7802802734375,0.012985057197511196,0.0033743982203304768,0.00767426285892725
1772619044005310500,6.790310546875,0.016490019857883453,-0.007758020889014006,0.016732655465602875
1772619044015341600,6.800341552734375,0.01683010533452034,-0.013466773554682732,0.0034157843329012394
1772619044025372400,6.810372314453125,0.016132649034261703,-0.014419512823224068,-0.002258528955280781
1772619044035402500,6.820402587890625,0.012067066505551338,-0.008981071412563324,-0.006593622732907534
1772619044045433600,6.83043359375,0.009854269213974476,-0.00029769400134682655,-0.014210446737706661
1772619044055464400,6.84046435546875,0.008230539970099926,0.007865427061915398,-0.015027770772576332
1772619044065495600,6.85049560546875,0.004833042621612549,0.00980544276535511,-0.011022219434380531
1772619044075525600,6.860525634765625,0.003226623637601733,0.01023048348724842,-0.005629585590213537
1772619044085556500,6.870556396484375,0.003211571369320154,0.007428009063005447,-0.006840864196419716
1772619044095587600,6.880587646484375,-0.0009677275083959103,0.006186709739267826,-0.0026589022018015385
1772619044105617400,6.890617431640625,-0.000863267108798027,0.005246431101113558,-0.0015513536054641008
1772619044115648500,6.9006484375,0.00033409008756279945,0.008281635120511055,-0.0017026211135089397
1772619044125679600,6.9106796875,0.0020028797443956137,0.013238117098808289,0.0016910936683416367
1772619044135709400,6.92070947265625,0.004856457002460957,0.014006439596414566,0.0033766082488000393
1772619044145740500,6.930740478515625,0.008208537474274635,0.0024381973780691624,0.0097820358350873
1772619044155771400,6.940771484375,0.005660957656800747,-0.012832900509238243,0.009277899749577045
1772619044165802200,6.95080224609375,0.0022258867975324392,-0.021024152636528015,0.009216233156621456
1772619044175832300,6.960832275390625,-0.003129463642835617,-0.019664341583848,0.0043082935735583305
1772619044185863200,6.97086328125,-0.006874203681945801,-0.014413807541131973,-0.0001359744928777218
1772619044195894300,6.980894287109375,-0.007537064142525196,-0.008990280330181122,-0.0050351256504654884
1772619044205924400,6.99092431640625,-0.010224836878478527,0.0013692616485059261,-0.0061384644359350204
1772619044215955200,7.000955078125,-0.004594648256897926,0.007688676472753286,-0.006277747917920351
1772619044225986300,7.010986328125,-0.0060918089002370834,0.00828722957521677,0.0006297817453742027
1772619044236016400,7.021016357421875,-0.004547441378235817,0.006109562702476978,-0.0005159101565368474
1772619044246047200,7.031047119140625,-0.01025419495999813,-0.00915030762553215,0.006436242256313562
1772619044256078300,7.041078369140625,-0.009173218160867691,-0.02534232661128044,0.0061970907263457775
1772619044266109200,7.051109130859375,-0.013963248580694199,-0.027613624930381775,0.0020143454894423485
1772619044276139300,7.06113916015625,-0.014344880357384682,-0.0245099775493145,-0.004314656835049391
1772619044286170400,7.07117041015625,-0.023016810417175293,-0.015423370525240898,-0.008337743580341339
1772619044296201200,7.081201171875,-0.026840578764677048,-0.007385417819023132,-0.013383901678025723
1772619044306231300,7.091231201171875,-0.03121751919388771,-0.005682002753019333,-0.01085349079221487
1772619044316262100,7.10126220703125,-0.035084694623947144,-0.005674279760569334,-0.0129304900765419
1772619044326293200,7.111293212890625,-0.033104307949543,-0.012582436203956604,-0.011090039275586605
1772619044336323300,7.1213232421875,-0.032649971544742584,-0.012479105964303017,-0.008383734151721
1772619044346354200,7.131354248046875,-0.029965689405798912,-0.012390537187457085,-0.005518459249287844
1772619044356385300,7.14138525390625,-0.024870265275239944,-0.012039265595376492,0.008916938677430153
1772619044366416100,7.151416015625,-0.02348034456372261,-0.014233244583010674,0.012085538357496262
1772619044376446200,7.1614462890625,-0.01829650066792965,-0.00695029878988862,0.021308064460754395
1772619044386477300,7.171477294921875,-0.014989764429628849,-0.0006792419590055943,0.028561992570757866
1772619044396508200,7.181508056640625,-0.019806623458862305,-0.003157047089189291,0.029034968465566635
1772619044406538200,7.191538330078125,-0.015149567276239395,0.018706370145082474,0.021350909024477005
1772619044416569300,7.2015693359375,-0.0147026889026165,0.03792427107691765,0.022610317915678024
1772619044426600200,7.21160009765625,-0.009118124842643738,0.012013090774416924,0.029480185359716415
1772619044436630300,7.22163037109375,-0.00014593591913580894,-0.009287137538194656,0.04559523984789848
1772619044446661000,7.2316611328125,-0.0004396224394440651,-0.01848800852894783,0.06558486819267273
1772619044456692200,7.241692138671875,0.00207972782664001,-0.03058621659874916,0.08810216188430786
1772619044466723300,7.251723388671875,0.0029656554106622934,-0.03564365953207016,0.10228923708200455
1772619044476753200,7.261753173828125,0.0016449936665594578,-0.035487331449985504,0.09524677693843842
1772619044486784300,7.2717841796875,0.003710599150508642,-0.013905787840485573,0.07594732940196991
1772619044496815000,7.281815185546875,0.0006817863322794437,0.0031818519346415997,0.04939214885234833
1772619044506845200,7.29184521484375,-0.00392841175198555,0.01078251376748085,0.019301092252135277
1772619044516876300,7.301876220703125,-0.006240834482014179,0.015486987307667732,-0.00037354358937591314
1772619044526907100,7.3119072265625,-0.003755294717848301,0.01998593658208847,-0.0012518125586211681
1772619044536937200,7.321937255859375,-0.003398696891963482,0.018504420295357704,0.005425797309726477
1772619044546968300,7.33196826171875,-0.0006012632511556149,0.009773258119821548,0.015910830348730087
1772619044556999200,7.341999267578125,0.000766269862651825,-0.0051907761953771114,0.012603182345628738
1772619044567030500,7.352030517578125,0.002490593586117029,-0.019879860803484917,0.0188528411090374
1772619044577060000,7.36206005859375,0.004089288879185915,-0.02393186092376709,0.02077404409646988
1772619044587091200,7.37209130859375,0.0029420724604278803,-0.013955239206552505,0.010621524415910244
1772619044597122300,7.382122314453125,0.0059530423022806644,0.003169418778270483,-0.007868803106248379
1772619044607152000,7.392152099609375,0.004488184582442045,0.011571791023015976,-0.03402705490589142
1772619044617183200,7.402183349609375,0.0057563818991184235,0.005847326014190912,-0.06195668876171112
1772619044627214000,7.412214111328125,0.0090707428753376,-0.014721248298883438,-0.07915996760129929
1772619044637244200,7.422244140625,0.019223779439926147,-0.04594388231635094,-0.07078272849321365
1772619044647275300,7.432275146484375,0.03372981399297714,-0.0772138386964798,-0.04645960405468941
1772619044657306000,7.44230615234375,0.05097430944442749,-0.14678466320037842,-0.02126343734562397
1772619044667337500,7.45233740234375,0.05721718817949295,-0.19237753748893738,0.017293432727456093
1772619044677367300,7.4623671875,0.0455368310213089,-0.23243334889411926,0.017919542267918587
1772619044687398100,7.472398193359375,0.03484967350959778,-0.15135838091373444,0.02284783124923706
1772619044697429500,7.482429443359375,0.00741511769592762,-0.0816514641046524,-0.009142059832811356
1772619044707459300,7.492459228515625,-0.011635379865765572,-0.012453047558665276,-0.049423009157180786
1772619044717490200,7.502490234375,-0.020759636536240578,0.08647939562797546,-0.07826665043830872
1772619044727521500,7.512521484375,-0.03393686190247536,0.17928098142147064,-0.0961502343416214
1772619044737552400,7.522552490234375,-0.03815797343850136,0.24974609911441803,-0.10000809282064438
1772619044747582200,7.532582275390625,-0.037683192640542984,0.31280088424682617,-0.08909546583890915
1772619044757613300,7.54261328125,-0.04005660116672516,0.33189573884010315,-0.058983635157346725
