time,seconds_elapsed,z,y,x
1772785876596058600,0.06405859375,3.1053105328828097,2.458272273528576,-1.048434555568546
1772785876606074600,0.07407470703125,3.07890124938488,2.5401053380846976,-1.0347991942521184
1772785876616090600,0.084090576171875,2.735025268116593,2.5378023218393326,-1.1176953579951077
1772785876626105600,0.094105712890625,2.4115339032292367,2.540328625446558,-1.3247821842260659
1772785876636121600,0.10412158203125,2.323849774557352,2.591563138121366,-1.3461936594367025
1772785876646137600,0.1141376953125,2.257218370786309,2.6497867790311576,-1.1504343559712171
1772785876656152600,0.124152587890625,2.2498376128852366,2.5879312113597988,-0.7648588753536343
1772785876666168600,0.13416845703125,2.3425398619800806,2.325803831234574,-0.5814617714636028
1772785876676184600,0.1441845703125,2.4063901105999945,2.0015600405447183,-0.4400065973766148
1772785876686199600,0.154199462890625,2.7221166867047546,1.6396949597299098,-0.21991372070871293
1772785876696215600,0.164215576171875,2.5683430060535666,1.3576919356591999,0.1016879579745233
1772785876706231600,0.1742314453125,2.0461305652856825,1.3740341447815299,0.40526115494892
1772785876716246500,0.18424658203125,1.5940379549264907,1.513905264547467,0.6218076642468572
1772785876726262500,0.194262451171875,1.5354197617411613,1.5118620682820676,0.7996108205873519
1772785876736278500,0.204278564453125,1.9140584288328886,1.3631877565965056,1.082536512460932
1772785876746293500,0.21429345703125,1.7529443222910164,1.013188616272807,1.520571152177453
1772785876756309500,0.2243095703125,1.027019573226571,0.6074877547323704,1.621835477912426
1772785876766325800,0.23432568359375,0.3344213397026062,0.5747974912688136,1.6168623656749725
1772785876776340500,0.244340576171875,0.10849193890094756,0.697439536075294,1.5534855797857046
1772785876786356700,0.254356689453125,0.5362205078542233,0.7659183212786912,1.7062974296674132
1772785876796372700,0.264372802734375,1.1777876423209905,0.7923767046153545,1.919589905605465
1772785876806387700,0.2743876953125,1.1117688174903393,0.7184016600832343,2.01912127006799
1772785876816403700,0.28440380859375,0.3765957630872726,0.44215252336412664,2.078915667425841
1772785876826419700,0.294419677734375,-0.32403847737610336,-0.013085983805358409,1.9646824083939194
1772785876836434700,0.3044345703125,-0.23186346702575683,-0.4792895371034741,2.020200589737296
1772785876846450700,0.31445068359375,0.35186931810975075,-0.8739452730163931,2.0469100252255794
1772785876856466400,0.324466552734375,0.7693295910269021,-0.8399624855242669,1.9712857521817087
1772785876866481700,0.334481689453125,0.6556991201937198,-0.3378410850182175,1.702296231202036
1772785876876497400,0.344497314453125,0.010806056174635887,0.19427315656095742,1.3083786003053188
1772785876886513700,0.354513671875,-0.649100452581048,0.31390915141925213,1.0764438216090202
1772785876896528400,0.3645283203125,-0.3393114498317241,0.24683789492622016,1.0373935946594923
1772785876906544600,0.374544677734375,0.22599311368763444,-0.2974156972579658,0.7781898468960076
1772785876916560600,0.384560546875,0.9331243149548768,-0.7651781704358757,0.6076591657765209
1772785876926575600,0.39457568359375,1.7268962733209132,-1.2006808805219829,0.36032296593934293
1772785876936591600,0.404591552734375,2.1215794817626477,-1.3503992944329977,0.26083573287948963
1772785876946607600,0.414607666015625,2.378556347256899,-1.433424052991718,0.08731854676250368
1772785876956622600,0.42462255859375,2.2215029142826794,-1.5723882870458066,0.23589798323884606
1772785876966638600,0.434638671875,2.0410802961587904,-1.4375914018042384,0.37712055414635687
1772785876976654600,0.444654541015625,1.227986966729164,-1.579389251849055,0.1952013042565435
1772785876986669600,0.454669677734375,-0.003096212449669838,-1.5721983174316585,0.17277162844669072
1772785876996685600,0.464685546875,-0.9565992985665798,-1.1637947728037834,0.35416488170102234
1772785877006701800,0.474701904296875,-1.2162830849319695,-0.9106748749986291,0.3352869435559958
1772785877016717600,0.484717529296875,-0.6213724876999854,-0.6757796390615404,0.2752964756367728
1772785877026732800,0.49473291015625,0.6822790840834378,-0.5491169604368508,0.49878374398332087
1772785877036748500,0.50474853515625,1.332968267160654,-0.9416399221047759,0.633480858644843
1772785877046764500,0.5147646484375,0.7454162159979343,-0.8732114057838917,0.5465018825676292
1772785877056779500,0.524779541015625,-0.6541752716273069,-0.2613546421870589,0.33256522697452456
1772785877066795500,0.53479541015625,-3.2329695290684697,0.02629720142558217,-0.08218103774357587
1772785877076811500,0.5448115234375,-7.022118065914511,-0.48336058593466874,-0.3274921614939347
1772785877086826500,0.554826416015625,-10.32378002293706,-1.5439841764688491,0.5056904180992394
1772785877096842500,0.564842529296875,-12.673147685110568,-2.7242861396983264,1.3295362468853593
1772785877106858500,0.5748583984375,-13.860125765103101,-2.797381771047413,1.5896131242215632
1772785877116873500,0.58487353515625,-14.707539881807564,-2.839564962260425,0.9661731095325201
1772785877126889700,0.5948896484375,-15.158664523917436,-2.9684359645843506,0.7083988831155001
1772785877136905700,0.60490576171875,-15.666269178140162,-2.6062933820024132,0.5484291973683982
1772785877146920700,0.614920654296875,-16.61947708070278,-1.4339942540951072,0.33191395999155937
1772785877156936700,0.624936767578125,-16.62061923647523,-0.4028336355410516,0.8885647499993443
1772785877166952700,0.63495263671875,-17.32285097526312,-0.005833090067654848,0.7166902530554682
1772785877176967700,0.6449677734375,-19.003047456729412,-0.018336597809940576,-0.9031558046054095
1772785877186983700,0.654983642578125,-19.12765115699768,-0.6043184770464897,-2.6920328063473105
1772785877196999400,0.66499951171875,-17.01033050172329,-2.395776215996593,-4.5064553874298925
1772785877207014700,0.6750146484375,-13.482972368133067,-5.488945790839195,-6.397074780747294
1772785877217030400,0.685030517578125,-9.356200480672717,-7.4825547262489795,-7.1841264909476035
1772785877227046400,0.69504638671875,-3.4209085141718387,-7.042272965192795,-6.674118867236375
1772785877237060900,0.705060791015625,1.9469944837510584,-5.652776170602441,-5.43395630954504
1772785877247076900,0.715076904296875,5.505659025231004,-4.126413575541973,-3.987050697559118
1772785877257092600,0.725092529296875,7.638361958554387,-2.499786187177896,-3.219992558595538
1772785877267107800,0.73510791015625,7.52701404570043,-0.5831734707523137,-2.721191096292436
1772785877277123600,0.74512353515625,5.722041430008411,1.4125433236569165,-1.8624929306380449
1772785877287139600,0.7551396484375,5.687182298073172,2.9167917020648715,-1.310157300415635
1772785877297154600,0.765154541015625,7.738964605510234,3.4195547614753243,-0.8446558309722692
1772785877307170800,0.7751708984375,10.290068307471275,3.0648171944528815,-0.5333634379226714
1772785877317186800,0.785186767578125,12.144985396027565,2.424047055582702,-0.4963393830385059
1772785877327201800,0.795201904296875,12.454524807929992,2.1364583403341473,-0.3564152909763157
1772785877337217800,0.8052177734375,12.923154711592197,2.1849175430767236,-0.19396087574139237
1772785877347233800,0.81523388671875,13.304344816732407,1.9886638802230356,-0.40742710081115363
1772785877357248800,0.825248779296875,12.721569478452205,2.191091847797483,-0.9739693894319236
1772785877367264800,0.8352646484375,12.018455111610889,2.6691210095763207,-1.0257897391706705
1772785877377280800,0.84528076171875,12.067099023270606,3.019196430006623,-0.5554134302325546
1772785877387295700,0.855295654296875,13.061319319701195,2.9510537448897955,0.5218133584477007
1772785877397311700,0.865311767578125,13.40821669461727,2.3833174241788684,1.0642879582606255
1772785877407327700,0.87532763671875,12.095987264102696,1.791093727943301,1.1300060465790331
1772785877417342700,0.8853427734375,10.625873795008658,0.8621369079314172,1.361652948244661
1772785877427359000,0.89535888671875,10.105340685629844,-0.11104606209686026,1.7280352142229676
1772785877437374700,0.905374755859375,10.192962854981422,-1.3555232133179902,2.071342455692589
1772785877447390000,0.915389892578125,9.955819986248017,-2.5289789639145135,2.236377973461896
1772785877457405700,0.92540576171875,9.24447847380936,-2.9944296530187127,2.3670475496403873
1772785877467421700,0.935421630859375,7.7818860478699206,-2.4130334941372276,2.3983988195851444
1772785877477437700,0.945437744140625,5.913868654721975,-0.8463126582685857,2.513250356645882
1772785877487452700,0.95545263671875,5.087492065349221,0.5712819574285298,2.8435400033712384
1772785877497468700,0.96546875,5.047720611453056,1.3452636851102113,3.1066341827020048
1772785877507484700,0.975484619140625,4.897644616276025,1.0177299860294908,2.6466025960370896
1772785877517499600,0.985499755859375,5.877780857774615,0.15915928267966956,1.9442925313159822
1772785877527515600,0.995515625,8.016357067045568,-0.45323264723978934,1.4257967729836702
1772785877537532000,1.005531982421875,9.902775793802737,-0.9867604819439351,1.033709133993089
1772785877547547000,1.015546875,10.698573120516539,-1.2414977518178523,0.6159392106048762
1772785877557563000,1.02556298828125,9.26206790651381,-1.201118614352122,0.13731285011786967
1772785877567579000,1.035578857421875,6.348989672014117,-0.6231739110987633,-0.457163337752223
1772785877577593900,1.04559375,4.4404824475675815,-0.3194907509438693,-0.7559583605393767
1772785877587609900,1.05560986328125,4.04378030051887,-0.8415125645104795,-0.7945570443291217
1772785877597625900,1.0656259765625,4.223932869529724,-1.4450297351114452,-1.0388483235124497
1772785877607640800,1.075640869140625,4.336152889043093,-2.1737899998627603,-0.8935598548728972
1772785877617656800,1.08565673828125,4.333049662330747,-2.256723719137162,-0.5992701076157391
1772785877627672600,1.095672607421875,3.9542467445880174,-0.23373443026309831,-0.17297639377117155
1772785877637687800,1.105687744140625,1.5725480076521634,3.3097207603156567,-0.5884058915130793
1772785877647703600,1.11570361328125,-3.4611505081892013,7.2890592760622495,-1.8980340534880755
1772785877657719800,1.1257197265625,-15.143440066778659,7.48135820994079,-1.3933297968819736
1772785877667734800,1.13573486328125,-27.561443947041035,0.047121232137084,-1.8250863061770797
1772785877677750800,1.145750732421875,-34.76414245198965,-4.797563655106723,-0.6582431786533445
1772785877687766800,1.155766845703125,-37.731682929038996,-0.8361280219279229,-1.291244217891991
1772785877697781800,1.16578173828125,-35.444890673244,1.1563431416235863,-1.6580485086746513
1772785877707797800,1.1757978515625,-33.28392259942293,-1.5633799279429017,-1.9493524450540543
1772785877717813800,1.185813720703125,-29.11348751132488,-3.7431726753517984,-2.6274858076348897
1772785877727828700,1.195828857421875,-23.12597728180885,-6.076846801570057,-2.5988527106076478
1772785877737844700,1.2058447265625,-19.00747111839056,-5.637108061349392,-3.7630367749899625
1772785877747860700,1.21586083984375,-19.239797526752948,-1.1392544980481267,-4.626497478871047
1772785877757875700,1.225875732421875,-22.743239362704752,3.0171716461807487,-4.7999479198947546
1772785877767891700,1.2358916015625,-23.724866719543932,3.6215389308050274,-5.422608401578665
1772785877777908000,1.245907958984375,-19.037821832990645,0.6374131565924733,-5.772851579791307
1772785877787923000,1.2559228515625,-10.742930148637294,-3.171528095155954,-5.707765651896596
1772785877797939000,1.26593896484375,-1.0507844796955585,-5.488244949093461,-4.53986139794737
1772785877807954700,1.27595458984375,7.347747027352452,-6.714797499105334,-3.4872415195181965
1772785877817970000,1.285969970703125,15.059217476737498,-5.856741576877236,-2.254765278545767
1772785877827985700,1.295985595703125,18.257227920627592,-3.3306352457895874,-0.8941995410159229
1772785877838001700,1.306001708984375,15.84057828181982,-0.7312872259456664,-0.023558351046219467
1772785877848016600,1.3160166015625,10.055314964222907,0.7822783583186567,0.2012535169675946
1772785877858032600,1.32603271484375,6.109741939955949,1.9418689574308692,-0.07566518957614898
1772785877868048600,1.336048583984375,5.64736758955717,2.9136510659515857,-0.43803047499805686
1772785877878063600,1.346063720703125,7.263436759027838,3.0838702699691054,0.7237780924245715
1772785877888080000,1.356079833984375,8.303225212934613,3.300806801497936,1.0265217067070305
1772785877898095900,1.366095947265625,9.928438642847537,2.696073313909769,0.759227006946504
1772785877908110800,1.37611083984375,12.735275347721576,1.379010618019849,0.03012771949917078
1772785877918126800,1.386126953125,15.170996766746043,0.22590485088229179,-0.6750431414805352
1772785877928142800,1.396142822265625,16.188659898084403,-0.38361375209055837,-1.3195305473081766
1772785877938157800,1.40615771484375,13.986135825037955,0.052249681066721676,-2.1721097916908563
1772785877948173800,1.416173828125,10.34207321999669,1.4876643233537674,-2.2948221252545715
1772785877958189800,1.42618994140625,8.254716325831414,2.634225637283921,-1.2192153389915823
1772785877968204800,1.436204833984375,8.923317597696185,1.3554033863306045,-0.24834669205397367
1772785877978220800,1.446220703125,9.733414083397388,0.2650063696276396,-0.08306969367899
1772785877988236500,1.456236572265625,9.5863168117702,-0.2170780223587528,-0.5217505954097956
1772785877998252800,1.466252685546875,8.811428417572378,-1.867328972492367,-1.3205202889978884
1772785878008267800,1.476267822265625,8.745379782125353,-2.5993045460283755,-2.0514304252594706
1772785878018283800,1.48628369140625,9.231277046930789,-1.9191139586567878,-2.210673477232456
1772785878028299800,1.4962998046875,10.099460395419596,-0.9363121512107551,-1.9016729945123194
1772785878038314800,1.506314697265625,10.906065531873702,-0.17174531760625542,-1.5427290618412195
1772785878048330800,1.516330810546875,11.222363185864687,-0.4356064627215266,-1.1093651173494756
1772785878058346800,1.5263466796875,10.357940651214122,-0.6300079218372702,-0.7254662647072225
1772785878068361700,1.53636181640625,8.83290959701836,-0.3315457112010568,-0.8970767038874328
1772785878078377700,1.546377685546875,7.175625789105892,0.11882321717068552,-1.389792416536063
1772785878088393700,1.556393798828125,6.4599868717342614,0.2039658446662128,-1.4139762790694832
1772785878098408700,1.56640869140625,7.366283970040082,-0.009373685283958912,-1.09818555168733
1772785878108424700,1.5764248046875,9.1503546674788,-0.23781631101556122,-0.3014205855177715
1772785878118441000,1.58644091796875,10.214140083044766,-0.6945104238208383,-0.01960519297365099
1772785878128456000,1.5964560546875,10.315072984868287,-1.3092065755620599,-0.7035143259443343
1772785878138472000,1.606471923828125,10.203031829053163,-1.8773777805589138,-1.419763922560215
1772785878148487700,1.61648779296875,9.17148513379097,-2.152456850585341,-1.3848150665149093
1772785878158503000,1.6265029296875,7.189664835852384,-1.3704934034347533,-0.018725135903223417
1772785878168518700,1.6365185546875,5.895336972731352,0.9769420485671609,1.798065320521593
1772785878178534700,1.64653466796875,4.715634436699748,3.097918669065833,2.6823072388857603
1772785878188549600,1.656549560546875,2.5220868663132188,3.965821154786646,2.0942354016326368
1772785878198565600,1.666565673828125,-0.9965145448476076,3.00656695779711,-0.2759692968644202
1772785878208581600,1.67658154296875,-8.388241583701967,1.07191954911761,-2.7579510934129354
1772785878218596600,1.6865966796875,-15.650567751139402,0.23522497934810815,-4.4120811134696005
1772785878228612600,1.696612548828125,-19.14766051032543,0.9363191654734313,-4.849585811027884
1772785878238628900,1.70662890625,-23.40979305438995,-0.20200802512932567,-6.720057027068734
1772785878248643800,1.716643798828125,-28.17522466443777,-4.466972687347233,-8.443083180958032
1772785878258660000,1.72666015625,-24.55287938568592,-5.4410991670370095,-5.859505196371674
1772785878268676000,1.736676025390625,-17.6399307195425,-1.2175508398454635,-4.286261607670784
1772785878278691000,1.746691162109375,-18.868429727447033,3.13804025157392,-5.160784680575132
1772785878288707000,1.75670703125,-22.023858920717238,7.031839833983779,-3.6070752289056776
1772785878298723000,1.76672314453125,-23.566875128936765,8.134646177339553,-0.4245952393636107
1772785878308738000,1.776738037109375,-25.223344697856902,8.421654608482122,0.884865018698573
1772785878318754000,1.786754150390625,-26.872727523386477,8.63119167740941,1.300795013308525
1772785878328770000,1.79677001953125,-28.34318352230787,8.695264044347406,-0.04567541724294424
1772785878338785000,1.806784912109375,-25.924036805987356,3.7837156981423496,-4.076573439835012
1772785878348801000,1.816801025390625,-18.70526278002858,-1.973463388481736,-7.646471030730009
1772785878358816800,1.826816650390625,-12.324050169801712,-7.731652821192145,-12.321413976079224
1772785878368832000,1.83683203125,-7.0407374261885876,-13.270628425091504,-15.08831030023098
1772785878378848000,1.846847900390625,-1.743207941174507,-12.645818948680162,-10.862302377992867
1772785878388864000,1.856864013671875,0.44284488954246043,-7.639354476723074,-6.75117288082242
1772785878398879000,1.86687890625,0.05894786353111267,-2.5226468382835385,-3.93846406904459
1772785878408895000,1.87689501953125,0.09845452901124954,0.7838638739444315,-1.5456925878219305
1772785878418911000,1.886910888671875,1.8174866448283193,1.8154218212530016,-0.18305216290988027
1772785878428926000,1.896926025390625,4.961340551117062,0.6939761708136648,0.4494532017663121
1772785878438942000,1.90694189453125,9.708909172216057,-0.5855354506433009,0.4778907762214541
1772785878448958000,1.9169580078125,14.750992070043086,-1.3477329978331922,0.049579786004032934
1772785878458973000,1.926972900390625,18.809739053547382,-1.7163658192172646,-0.14556008865516631
1772785878468989000,1.936989013671875,21.380080539941787,-1.4487284434989094,-0.003836582488194108
1772785878479005000,1.9470048828125,21.058238111305236,-0.9490488101217895,0.5256334281925111
1772785878489020000,1.95702001953125,17.85119797326326,0.16687814996130765,0.9702978613123298
1772785878499036200,1.9670361328125,13.598863185113668,1.537688729586452,1.5841716638199983
1772785878509052200,1.97705224609375,10.315502023935318,2.291465216042101,2.216853919433057
1772785878519067100,1.987067138671875,8.279714573487638,2.468445584757626,2.6372353404939175
1772785878529083100,1.997083251953125,7.506625337666272,2.4533786562681197,2.6740277785792945
1772785878539099000,2.007098876953125,7.988151547780633,2.2491493383601306,2.5842782418102024
1772785878549114000,2.017114013671875,9.116474609708785,1.5203994488723576,1.90487485929355
1772785878559129900,2.0271298828125,10.65287519918084,0.5528093486813828,1.6210292760960756
1772785878569145900,2.037145751953125,11.932142271292209,-0.07356752317715436,1.3975436151847243
1772785878579160800,2.047160888671875,12.477125931316614,-0.5162344258042052,0.9924474415391683
1772785878589176800,2.0571767578125,11.397604017436503,-0.46268637549001723,0.526906005411595
1772785878599192800,2.06719287109375,9.463034130972623,-0.01109839018471539,-0.3007648798217065
1772785878609209000,2.077208984375,7.3254293970823285,0.6392069812066853,-0.9229776725370437
1772785878619224000,2.08722412109375,6.63298606185913,0.8559848150424659,-1.0718001605216414
1772785878629240000,2.097239990234375,7.11264881618917,0.38210473576709625,-1.4893506690055132
1772785878639256000,2.107256103515625,8.362875087255238,0.14952431611102074,-1.7023947231404482
1772785878649271000,2.11727099609375,9.27004896839559,-0.1181729365684092,-1.6447236015468836
1772785878659287000,2.127287109375,9.80754314944744,-0.4168794773545116,-1.3865785690560937
1772785878669303000,2.137302978515625,10.476607947170734,-0.47535826206915077,-1.0721149255592375
1772785878679318000,2.147318115234375,10.544059435153008,-0.5451954030789434,-0.698486195584014
1772785878689334000,2.157333984375,9.563594107830523,-0.7813059330899268,-0.4501639073189348
1772785878699349800,2.167349853515625,8.357156709608436,-0.603225165384449,-0.2634391568435356
1772785878709365000,2.177364990234375,7.568857629695534,-0.3874039381537586,-0.18675512734735383
1772785878719380700,2.187380615234375,7.061212058940529,-0.45067540050502863,-0.40134127809144554
1772785878729397000,2.19739697265625,6.739529204779863,-0.47332266458831723,-1.209638824611902
1772785878739412000,2.207411865234375,6.5457368174731725,-0.7283095983743667,-2.019752699839324
1772785878749428000,2.217427978515625,5.615400671932101,-1.2296753582075237,-2.53167127173841
1772785878759444000,2.22744384765625,3.7102439269572494,-1.6004462145335971,-2.5020979712516067
1772785878769459000,2.237458984375,2.092206087762117,-1.6301725136250256,-1.5288859760582447
1772785878779475000,2.247474853515625,0.5823626658260822,-1.7226748562335967,0.24639373135529458
1772785878789491000,2.257490966796875,-1.9432365925222634,-0.9234333804152906,1.1534073804326355
1772785878799506000,2.267505859375,-5.837277582472562,0.5257559585936368,-0.6160648828111589
1772785878809522000,2.27752197265625,-11.678845555615425,3.801325296851992,-2.1183836083307863
1772785878819538000,2.287537841796875,-17.236711153423784,4.9754450643152,-1.3022132095433772
1772785878829553000,2.297552978515625,-22.63546287859678,-2.6331238135218618,-3.40413916567862
1772785878839569000,2.30756884765625,-22.368476660263536,-3.62080594035536,-1.324874100293219
1772785878849585200,2.317585205078125,-21.931060225510596,-0.056728287785500285,-1.3148441430576145
1772785878859600100,2.32760009765625,-23.827520453810692,4.490864727327227,-0.9267483501821756
1772785878869616000,2.3376162109375,-26.642271585071086,7.724861845877766,-0.2738049584373832
1772785878879632000,2.3476318359375,-27.927205012381076,8.649075124624371,0.1534577465698123
1772785878889647000,2.357647216796875,-29.349232203698158,8.38564513746798,-0.42086409001126884
1772785878899662800,2.367662841796875,-32.205568560278415,7.393084298682212,-1.0416793822199106
1772785878909678800,2.377678955078125,-31.103031681513784,4.704484681653976,-3.467361637789011
1772785878919693800,2.38769384765625,-25.040452474749088,0.9775940096698701,-6.387966176140308
1772785878929709800,2.397709716796875,-18.04309534060359,-3.3918127680689096,-8.753416373586655
1772785878939725800,2.407725830078125,-11.589030260133743,-8.64789906658232,-11.643358062648772
1772785878949740800,2.41774072265625,-5.977759235352277,-10.364232444834709,-11.782132911610603
1772785878959757000,2.427757080078125,-1.0616741225004196,-8.02439365850687,-9.560597264102102
1772785878969773000,2.43777294921875,2.262727489596605,-5.10084839052856,-7.116478019088507
1772785878979788000,2.4477880859375,4.277087536612153,-2.192662896506488,-4.872723817770183
1772785878989804000,2.457803955078125,5.554834851810336,0.49615635462179775,-3.0881828724712133
1772785878999820000,2.467820068359375,6.577274111509323,1.610958402328193,-1.8226612709872423
1772785879009835000,2.4778349609375,7.136922256702184,0.725489280256629,-0.7568094974759966
1772785879019851000,2.48785107421875,8.213873443311453,-0.46818522863462564,-0.32603118556328115
1772785879029867000,2.497866943359375,10.224683688890934,-0.860981015894562,-0.6218143862485885
1772785879039882000,2.507882080078125,12.496394110888241,-1.105210920279473,-1.267449646937102
1772785879049898000,2.51789794921875,14.674694427782295,-0.7438673791207373,-2.0551805715732274
1772785879059914000,2.5279140625,15.206070418214797,-0.3723093179397285,-2.0435095691323277
1772785879069929000,2.537928955078125,14.945499912142752,0.6400887324772775,-0.9359360113747417
1772785879079945000,2.547945068359375,15.758782626664638,1.045619644278288,-0.510305876005441
1772785879089961000,2.5579609375,13.973451700031756,1.0401843213565647,0.580997807213664
1772785879099977000,2.56797705078125,12.420732428443431,1.9101498770870267,1.0366901956304908
1772785879109992000,2.577991943359375,11.742551427328586,2.367421497519314,1.2023080433323978
1772785879120008000,2.588008056640625,11.04775597602129,2.2232485889062286,1.267912003751844
1772785879130024000,2.59802392578125,10.848969433689117,1.5873951559111474,0.9590898002080619
1772785879140039000,2.608038818359375,10.810248365628718,0.5650728005900979,0.5684969298198819
1772785879150055000,2.618054931640625,10.794701252406835,-0.6557873099338263,0.18599676499441264
1772785879160071000,2.62807080078125,10.73174707584381,-1.7620125948876142,-0.21937406087405978
1772785879170086000,2.6380859375,10.366403359133004,-2.4361921052761373,-0.8879076743301003
1772785879180102000,2.648101806640625,9.26982626555562,-2.7499972117990255,-1.8832398044601082
1772785879190118100,2.6581181640625,6.802630680859089,-2.656833482672274,-3.3700536484643817
1772785879200133000,2.668133056640625,5.2303077141344545,-0.9674266897901892,-3.1678140430688857
1772785879210149000,2.678149169921875,6.69874652801454,0.823632405231148,-1.4473523328401148
1772785879220165000,2.6881650390625,7.105354567527771,-0.1356597856812179,-1.3204668052449822
1772785879230180000,2.69818017578125,7.874306557413935,-1.150285302889347,-1.5861287892371416
1772785879240195600,2.708195556640625,9.686106388777494,-1.4016231395833194,-1.6946100606136023
1772785879250211600,2.718211669921875,10.742420445549488,-2.175083692935109,-1.846520139349997
1772785879260226600,2.7282265625,10.049358686167,-2.7079852854996918,-2.14073747895807
1772785879270242600,2.73824267578125,8.627741829216479,-2.156766676608473,-2.268225502490997
1772785879280258300,2.74825830078125,7.386269357970357,-1.4843364941053092,-2.3853436693094667
1772785879290273500,2.7582734375,6.744242789298296,-1.146593608764559,-2.3986827510930597
1772785879300289300,2.768289306640625,7.0838365632027385,-1.324669956023246,-2.3226373300276695
1772785879310305300,2.77830517578125,7.21520376625657,-1.4900180468730628,-2.4097331374175845
1772785879320320300,2.7883203125,7.375477914842963,-1.4534800219401716,-2.359664161390811
1772785879330336500,2.79833642578125,7.277751700106263,-0.9356333751663565,-2.1696365334451198
1772785879340352500,2.8083525390625,6.053816639116406,0.285293736179173,-2.2707060672603547
1772785879350367500,2.818367431640625,2.861831446865201,1.3541827584944666,-3.5899604279756545
1772785879360383500,2.828383544921875,-6.19855185778737,1.3804029491610825,-5.733541898187995
1772785879370399500,2.8383994140625,-18.108317462098597,-1.1166908571276812,-6.3909939995288845
1772785879380414500,2.84841455078125,-20.224375550091267,-0.037626258561015126,-0.20511543482644481
1772785879390430500,2.858430419921875,-18.935242917525766,0.8048889071207493,1.4643369315192103
1772785879400446500,2.868446533203125,-21.683391286587714,-0.5657165783863515,1.444588128823787
1772785879410461400,2.87846142578125,-19.54619221088886,-2.290139812657237,2.4798075212493536
1772785879420477400,2.8884775390625,-15.356998646306991,-2.0222242045193908,2.5733178718566894
1772785879430493400,2.898493408203125,-13.563659769785403,0.5924903843477368,2.0437464466281234
1772785879440508400,2.90850830078125,-13.904035049456358,2.762528776592016,2.5009517238259313
1772785879450524700,2.918524658203125,-15.480802720630168,4.773652910426259,3.0965985263779756
1772785879460540400,2.92854052734375,-16.53331621607542,7.030582527399063,4.07739878474325
1772785879470555600,2.9385556640625,-16.95715303828716,6.651634648227692,5.593652365982532
1772785879480571400,2.9485712890625,-17.654660671162603,6.020168636536598,6.561202097630501
1772785879490587400,2.95858740234375,-18.965458023047447,5.776302597028017,6.076868428879976
1772785879500602400,2.968602294921875,-20.04933462500572,4.563306863203644,4.554598656091094
1772785879510618400,2.978618408203125,-20.567627846503257,2.8324691587805746,2.31714852335304
1772785879520634400,2.98863427734375,-20.457931792509555,1.0021429061233997,-1.5626590663224458
1772785879530649300,2.9986494140625,-20.257328556144238,-2.8579291787296532,-6.62666445762217
1772785879540665300,3.008665283203125,-15.78860025730133,-7.203497546371818,-9.370676749792695
1772785879550681600,3.018681640625,-9.734737440955639,-8.96650265942812,-8.454622812104224
1772785879560696300,3.0286962890625,-4.227180473148823,-7.546965531361103,-5.951090424135327
1772785879570712600,3.038712646484375,0.23903321252465246,-5.202648138314485,-4.28322735454142
1772785879580728600,3.048728515625,2.7161078016787767,-2.838027961951494,-3.0304832554355263
1772785879590744600,3.05874462890625,4.782808861306309,-1.8746788968637584,-2.2301158443272113
1772785879600759600,3.068759521484375,7.569375516089797,-1.7185351260803639,-1.8847554697200655
1772785879610775600,3.078775634765625,10.108768321990967,-1.4669702026322484,-1.8425944903388618
1772785879620791600,3.08879150390625,10.8606002502501,-1.2520451570563018,-1.9826596713721751
1772785879630806500,3.098806640625,11.042462545788288,-1.1409450814835727,-1.8327457348890601
1772785879640822500,3.108822509765625,11.837568967628478,-1.1043930280253291,-1.5071218880176542
1772785879650838300,3.11883837890625,12.322535089063644,-0.89825685358271,-0.8210882737062871
1772785879660853500,3.128853515625,12.378359267616272,-0.5179376860581338,-0.12210194658041
1772785879670869500,3.138869384765625,12.481492309832571,0.22123569002747534,0.13144406768232583
1772785879680885500,3.148885498046875,12.453164040970801,0.8491676823735237,0.15712050686106085
1772785879690900500,3.158900390625,12.419061864882707,1.1215106054343282,-0.07382686823308468
1772785879700916500,3.16891650390625,11.378303104639052,1.6812743398308754,-0.4593270916573703
1772785879710932500,3.178932373046875,10.17619876718521,2.1271808089010418,-0.38998029144778845
1772785879720947500,3.188947509765625,9.592060323858261,1.8134085817344485,-0.26290961654409767
1772785879730963500,3.19896337890625,9.199256353291869,0.9855106280133128,-0.5459020900435746
1772785879740979500,3.2089794921875,9.478010750830173,0.03293196326494217,-1.068626133595407
1772785879750994400,3.218994384765625,10.080364065283536,-0.8932134525880217,-1.6716785362288356
1772785879761010400,3.229010498046875,10.848085636591911,-1.7480077426716685,-2.2691031621083617
1772785879771026400,3.2390263671875,11.546751791852712,-2.6488965521931647,-2.638855342911184
1772785879781041400,3.24904150390625,12.048801150035857,-3.1144179684460163,-2.7019065501078963
1772785879791057700,3.2590576171875,12.380594479322433,-2.657926246345043,-2.404928805875778
1772785879801073700,3.26907373046875,12.33824353032708,-0.9513158052057027,-1.9461872590214013
1772785879811088600,3.279088623046875,11.510188778609036,0.6113464759871363,-0.8297442391749471
1772785879821104600,3.289104736328125,10.5276974984169,1.357660809868574,0.4414753182223066
1772785879831120400,3.299120361328125,9.437092464986444,0.9293722689449787,1.10175245038867
1772785879841135600,3.309135498046875,8.52080238045454,-0.12115604403242468,1.3380971544817089
1772785879851151400,3.3191513671875,8.846181166523694,-1.5760186063721775,0.9431267265964299
1772785879861167400,3.32916748046875,8.83444045984745,-1.6560427218101919,0.965563453201577
1772785879871182300,3.339182373046875,9.154256351092457,-2.075417450046539,0.31495840474385767
1772785879881198300,3.3491982421875,9.393613973265886,-2.2486882967196404,-0.10385585833182558
1772785879891214300,3.35921435546875,8.712340851354599,-2.09936238925755,-0.548001071616821
1772785879901229300,3.369229248046875,7.072263029786944,-1.6619202355414628,-0.8460527652233839
1772785879911245600,3.37924560546875,4.788979074373841,-1.2421414565488695,-0.7875653588108718
1772785879921261600,3.389261474609375,2.7249668154388664,-0.6601731968678534,-0.6835783301137387
1772785879931276500,3.399276611328125,1.8780366828590631,-0.1326826695665717,-1.8094103058785198
1772785879941292500,3.40929248046875,0.06550853722095488,-0.7945122553393245,-4.536685398259759
1772785879951308500,3.41930859375,-3.6568636344254015,-2.3845187627926467,-6.183939979588985
1772785879961323500,3.429323486328125,-8.864481377846001,-3.9635061558425426,-5.993281798654794
1772785879971339500,3.439339599609375,-13.055515017336607,-4.122911412639915,-5.040229378914833
1772785879981355500,3.44935546875,-15.239094735938309,-1.3223764382585883,-3.0364190752252935
1772785879991370500,3.45937060546875,-21.9913291085124,1.030125868678838,-3.2764433446139094
1772785880001386500,3.469386474609375,-22.52846497764587,2.7210677621737123,0.8560553960606455
1772785880011402500,3.479402587890625,-20.78756005271673,2.8620985733687876,2.1010814681351184
1772785880021418500,3.48941845703125,-18.46878042103052,5.106650354805589,1.9243100659951566
1772785880031433500,3.49943359375,-16.92293045068979,6.695563806325197,1.5808983412377535
1772785880041449500,3.509449462890625,-17.370323505055904,6.254573020216823,1.9970424169898031
1772785880051465500,3.519465576171875,-17.348763999676702,5.891314293086529,3.082935619467497
1772785880061480400,3.52948046875,-17.355654343712327,5.15062393656671,3.7426702787876125
1772785880071496400,3.539496337890625,-17.92542640803456,5.292414333957433,3.809063197627663
1772785880081512400,3.549512451171875,-19.00322281329632,5.548588650897145,3.491300731781125
1772785880091527400,3.55952734375,-19.68868695715666,4.9829035636276,2.940354071699083
1772785880101543400,3.56954345703125,-18.805857828199862,3.766951902607083,1.8527824146151541
1772785880111559400,3.579559326171875,-16.81056313166022,1.9519262410648166,0.09444339367374777
1772785880121574400,3.589574462890625,-15.085872843950986,-0.6116352298006416,-1.7264878386504947
1772785880131590400,3.59959033203125,-12.979800727921724,-3.060618573719263,-3.513980765622854
1772785880141606700,3.609606689453125,-9.877119959020614,-4.868969141411781,-4.676628121957183
1772785880151621600,3.61962158203125,-5.938175412982702,-5.295815666833519,-5.130096696844697
1772785880161637600,3.6296376953125,-2.1612872227728364,-4.593626890404522,-5.927724746116995
1772785880171653600,3.639653564453125,1.0847679978400468,-3.5512849526226518,-6.067248367619514
1772785880181668600,3.649668701171875,4.206400719970464,-3.0769846021085976,-5.399474194228649
1772785880191684600,3.6596845703125,6.499224657145142,-2.7392504845961927,-4.17344508356899
1772785880201700400,3.669700439453125,7.7725927343457935,-2.4264766208171844,-3.5592303586691614
1772785880211715600,3.679715576171875,8.89975201319158,-2.0978532998688517,-3.155369572037458
1772785880221731300,3.6897314453125,9.680888361868261,-1.661982340992242,-2.822716411051154
1772785880231747600,3.69974755859375,11.410015755242108,-1.2878069369196892,-2.429451106583327
1772785880241762300,3.70976220703125,14.002247586405277,-1.0866669633291661,-1.8853906988836824
1772785880251778600,3.719778564453125,15.744040984606741,-0.7639835538238287,-1.4185489938125013
1772785880261794600,3.729794677734375,16.284326257681844,-0.6158000943951308,-1.236254444336891
1772785880271809500,3.7398095703125,16.066365059280393,-1.2147731187604367,-1.3734542990669607
1772785880281825500,3.749825439453125,15.305686976742743,-2.0769412986129523,-1.3589473425477743
1772785880291841500,3.759841552734375,14.123306745934485,-2.1981378207862377,-1.1409130789101123
1772785880301857500,3.769857421875,11.873402497553824,-1.3558802100621163,-0.8654094998612999
1772785880311872500,3.77987255859375,9.138969350111484,-0.24818667918667195,-0.47859088731482624
1772785880321888500,3.789888427734375,6.305710502257943,0.41740109007582066,-0.010965046128630638
1772785880331904500,3.799904541015625,4.495340995958447,0.6732628339350223,0.1790679886445403
1772785880341919500,3.80991943359375,4.456854321175814,0.42858182478174567,-0.3192877757176757
1772785880351935700,3.819935791015625,5.393845248430967,-0.9775007784284651,-1.1042119723699986
1772785880361951500,3.829951416015625,7.343924838715791,-2.3592246009297666,-2.010725343775004
1772785880371966700,3.839966796875,9.672064419421552,-3.5586584040001035,-2.756694663611054
1772785880381982500,3.849982421875,11.708756709754466,-4.082819640748203,-3.195809134453535
1772785880391998500,3.85999853515625,12.672477823024987,-3.7748309654191132,-3.362781611634791
1772785880402013400,3.870013427734375,12.47498775024414,-2.744891413092613,-3.4213170949727294
1772785880412029400,3.880029541015625,11.584573865246773,-1.497130801487714,-3.132667326363921
1772785880422045400,3.89004541015625,9.913108971768617,-0.011482348001003265,-2.841050816904008
1772785880432060400,3.900060302734375,8.398080256149171,1.055063106862828,-2.3687520154707133
1772785880442076400,3.910076416015625,7.343279526549577,0.9295657456904649,-1.9579083842143414
1772785880452092400,3.920092529296875,6.774452049601078,0.13488792452588677,-1.8367030942127107
1772785880462107400,3.930107421875,7.284514033848047,-0.43863545515388247,-1.5374945221886038
1772785880472123600,3.94012353515625,7.819890492093562,-0.8538421039253473,-1.1600348357483743
1772785880482139600,3.9501396484375,7.5970409371286625,-0.9141991036020218,-1.1905369415178895
1772785880492154600,3.960154541015625,6.875096197611093,-0.5588296318842098,-1.200674012389779
1772785880502170600,3.970170654296875,5.410411767828464,-0.009569098258204758,-0.8144213631629943
1772785880512186600,3.9801865234375,3.844762287518382,0.9669805534578859,-0.4941185651838779
1772785880522201600,3.99020166015625,2.3669717079252,2.2522427743308246,0.10481873028092085
1772785880532217600,4.000217529296875,0.015319734206795691,3.493523084005713,0.8175671138428151
1772785880542233300,4.0102333984375,-2.9955291386932132,4.334687200404703,1.7464939771078527
1772785880552249300,4.020249267578125,-6.435697064608335,5.451115534138679,2.2647277235031127
1772785880562264300,4.030264404296875,-11.471745942968129,5.891600124290585,2.048199042122811
1772785880572280300,4.0402802734375,-17.950544482678175,1.0804329643104225,-0.6808491974107921
1772785880582296600,4.050296630859375,-19.40792238883972,-1.6100535624429582,-0.33695392692014575
1772785880592311600,4.0603115234375,-19.263455465716124,-0.9966926778934896,-0.9223849673409015
1772785880602327600,4.07032763671875,-19.258193599665162,-0.1200605769459158,-2.1235348536141214
1772785880612343600,4.080343505859375,-20.1321450101614,1.7577034995168446,-2.190070834186673
1772785880622358500,4.090358642578125,-20.55210294511318,3.9470124094203114,-1.3105727493487298
1772785880632374500,4.10037451171875,-20.69960353684425,5.754714450076222,-0.3388196477267891
1772785880642390500,4.110390625,-21.056804863631726,5.78054739499092,0.37260621852707115
1772785880652405500,4.120405517578125,-21.467146244454383,4.981943778684735,0.6624559009775519
1772785880662421500,4.13042138671875,-21.322133377885816,4.596430257387459,0.3536452782737091
1772785880672437500,4.1404375,-20.494223587596416,3.860858851316571,-0.3374628262903541
1772785880682452500,4.150452392578125,-18.56097238251567,2.8365520441800354,-1.053195413294807
1772785880692468500,4.160468505859375,-16.654510984683036,1.7961523265071213,-2.10069597594887
1772785880702484500,4.170484375,-15.04804375629425,0.8885331858173012,-3.207274531319737
1772785880712499700,4.180499755859375,-13.050288222599029,-0.5641938988637178,-3.361839070087671
1772785880722515500,4.190515380859375,-9.955523049128056,-2.419915508735925,-2.658155671186745
1772785880732531500,4.200531494140625,-6.993460126706958,-3.350459305678308,-2.400382833009213
1772785880742546400,4.21054638671875,-4.152403756844997,-3.0900290848597884,-2.444872547598928
1772785880752562400,4.2205625,-0.9842810862183571,-2.8870447985768317,-2.6453198627501724
1772785880762578400,4.230578369140625,1.919909492948651,-3.0909611050128936,-2.7915748383343217
1772785880772594400,4.240594482421875,3.9254561189115047,-3.4457173767358062,-3.3782831321492788
1772785880782609400,4.250609375,5.90563507938385,-3.7466315836340187,-3.128996236635744
1772785880792625400,4.26062548828125,8.538453187957405,-3.726623399350047,-2.7091408852756023
1772785880802641700,4.2706416015625,10.555782606172562,-3.580554301726818,-2.5448650998324154
1772785880812656400,4.280656494140625,12.023206105530262,-3.1191315529644488,-2.428390637744963
1772785880822672600,4.290672607421875,13.868434159243106,-2.1273488589443263,-2.0089722164973614
1772785880832688600,4.300688720703125,15.082684861564635,-0.7128383268676698,-1.4887703848995268
1772785880842703600,4.31070361328125,14.068311419421434,1.061604564395547,-0.9694202016949653
1772785880852719600,4.3207197265625,12.730070764815807,2.3874447332419453,-0.5966735152512789
1772785880862735600,4.330735595703125,11.494845079004763,3.2072149100869893,-0.14167159331664442
1772785880872750600,4.34075048828125,10.470306801199913,3.044175972962379,0.08185162312611938
1772785880882766600,4.3507666015625,10.159461567395924,1.9891293057776986,0.058579907001554965
1772785880892782300,4.3607822265625,10.636098251903057,0.5539817899942397,-0.3789112004227936
1772785880902797600,4.370797607421875,11.34682660087943,-0.8828058942116797,-0.9400586442627012
1772785880912813300,4.380813232421875,12.041391750562191,-1.7768894076325,-1.4819091208279132
1772785880922829600,4.39082958984375,12.15647943446636,-2.3161868387140334,-1.8641538495875893
1772785880932844300,4.40084423828125,11.593220113039017,-2.5271137545645237,-2.038436503651738
1772785880942860500,4.410860595703125,10.655126777499914,-2.494952775672078,-2.0967345249719918
1772785880952876500,4.42087646484375,9.605557518813013,-2.441909021618217,-2.075564018910378
1772785880962891500,4.4308916015625,8.42904354968965,-2.566417590948939,-2.232183298251033
1772785880972907500,4.440907470703125,7.347057876044511,-2.6683155384123323,-2.4899466379478574
1772785880982923500,4.450923583984375,7.048581125426292,-2.3976631987869736,-2.3839091064617035
1772785880992938500,4.4609384765625,7.802619623818993,-1.4886219163395464,-1.8131126675277947
1772785881002954500,4.47095458984375,8.803492363876105,-0.6270896963030099,-1.4517735102832316
1772785881012970500,4.480970458984375,9.714801737385988,-0.18013605626747012,-1.4013653654299676
1772785881022986500,4.490986572265625,10.388557907795905,0.016598448905721305,-1.1795143199831246
1772785881033001500,4.50100146484375,10.79098018605709,-0.006780307789891958,-1.02766729654558
1772785881043017700,4.511017822265625,10.965789640474318,0.03470591413490474,-0.9902828108511864
1772785881053033500,4.521033447265625,10.558099650943278,-0.09876235285140574,-0.7742984654806554
1772785881063048700,4.531048583984375,9.698834937447309,-0.27674334997683764,-0.6410621806193143
1772785881073064400,4.541064453125,8.595071147236228,-0.517158664509654,-0.6034044309414923
1772785881083080400,4.55108056640625,7.316641110470891,-0.8213029393702745,-0.5569436354745179
1772785881093095400,4.561095458984375,6.421712378397584,-1.0206035687044261,-0.6494428362779319
1772785881103111400,4.571111328125,6.498250259155035,-1.1733549205705522,-0.2571812106936239
1772785881113127400,4.58112744140625,6.304554902482033,-1.3291020932517945,0.17335574847757815
1772785881123142400,4.591142333984375,3.97225761757493,-1.3338695999145507,0.26647905426239593
1772785881133158400,4.601158447265625,-0.4912129068702459,-0.5845129757277667,0.22490221317838877
1772785881143174400,4.61117431640625,-5.705758988249301,0.6595755232356488,-0.5879642852254211
1772785881153189400,4.621189453125,-12.523041294795274,2.7602301442608237,-0.5359978780794888
1772785881163205600,4.63120556640625,-16.726712297540903,4.170056902435421,1.0077710482034832
1772785881173221600,4.6412216796875,-18.86569533404708,1.4661603475540876,0.9590553864818065
1772785881183236600,4.651236572265625,-19.56635821608305,-2.074135447411984,1.1054941942002623
1772785881193252600,4.661252685546875,-18.10516338198185,-3.1298166131079195,1.306356446827948
1772785881203268600,4.6712685546875,-18.242602013903856,-1.1328161355637014,-0.3866126416455954
1772785881213284600,4.68128466796875,-21.29016236860752,1.3914282010443508,-2.0830968986332414
1772785881223299600,4.691299560546875,-24.517487754309176,4.029887384244799,-2.4249919352173803
1772785881233315800,4.70131591796875,-25.151467210125922,5.119371304690837,-1.7103046194821596
1772785881243331800,4.711331787109375,-22.23420730602741,4.333510265579819,-0.06089483288042247
1772785881253346800,4.721346923828125,-19.79657333137989,5.034259072333574,1.2163597303647546
1772785881263362800,4.73136279296875,-19.9494047627449,7.007631859922409,1.5020720572821795
1772785881273379000,4.741379150390625,-21.221074219334124,8.447700903886556,-0.194131263872236
1772785881283393800,4.751393798828125,-20.81144829330444,7.400220141911507,-4.007865522050857
1772785881293410000,4.76141015625,-18.525125993108748,2.594046187108755,-9.159020789015292
1772785881303426000,4.771426025390625,-15.730533852779864,-3.3949463899195194,-13.513000426650047
1772785881313441000,4.78144091796875,-12.118377959609031,-6.762807204514742,-11.947087326967715
1772785881323457000,4.79145703125,-8.906667491668463,-6.719718588894605,-7.61375650960803
1772785881333473000,4.80147314453125,-6.85943568714261,-4.660763613349199,-4.661435813522338
1772785881343488000,4.811488037109375,-4.8326603951901195,-2.466539166614413,-2.274137210752815
1772785881353504000,4.82150390625,-2.831756042075157,-0.8264929092288017,-0.29779475970342756
1772785881363520000,4.83152001953125,-0.7770178074419498,-0.2269566980227828,1.0068635779697448
1772785881373535700,4.84153564453125,1.5791133575171232,-0.7962887634925544,1.6525342752978205
1772785881383551000,4.851551025390625,4.638515541183948,-1.6258981973066926,1.3246204177930951
1772785881393567000,4.86156689453125,8.153858242809772,-2.0328077039845285,0.8843025625102221
1772785881403583000,4.8715830078125,11.56122806097269,-2.4453556549407542,0.49939241393357514
1772785881413598000,4.881597900390625,14.104437210291623,-3.2289380815953015,-0.058660936348512764
1772785881423614000,4.891614013671875,15.29541809618473,-3.564637770670652,-0.6717025988809764
1772785881433630000,4.9016298828125,15.126509974765776,-3.0674580643504856,-0.5732343336053193
1772785881443645000,4.91164501953125,14.713235463100672,-2.5063053598135707,-0.13314086166284977
1772785881453661000,4.921660888671875,14.130905530500412,-2.047067115483433,0.19992650614753366
1772785881463677000,4.931677001953125,13.288756786978244,-1.4233430962212383,0.509777029825747
1772785881473692000,4.94169189453125,12.102853058218955,-0.5806517702549696,0.8697999899052083
1772785881483708000,4.9517080078125,10.994106218898295,0.03334697380661964,1.226662001735717
1772785881493724000,4.961723876953125,10.239586658990383,0.5271368915580212,1.613255427224189
1772785881503739000,4.97173876953125,9.717456051287055,0.8733397083386778,1.5275900910288094
1772785881513755100,4.981755126953125,9.509880053299664,0.8856889023020863,1.2913124608226119
1772785881523771100,4.991771240234375,9.742537885573507,0.7086509581804276,0.8563409350037574
1772785881533787100,5.001787109375,10.451127468955516,0.02890621488019824,0.1513989143438637
1772785881543802000,5.011802001953125,11.028529882025717,-0.42654695795327424,-0.452967055106163
1772785881553818000,5.021818115234375,11.095945129650831,-0.8557758484669029,-1.0620071538470686
1772785881563833900,5.031833740234375,10.730713641142845,-1.2337737334370613,-1.4835780769534408
1772785881573849000,5.04184912109375,10.22170730342865,-1.430364519290626,-1.7759677627429364
1772785881583864800,5.05186474609375,9.516965043124555,-1.7067691388323902,-2.0878060992375014
1772785881593880800,5.061880859375,8.977432049721479,-1.717447623104602,-2.4000442487046123
1772785881603895800,5.071895751953125,8.904615819835662,-1.3107554124392569,-2.27017839012444
1772785881613911800,5.081911865234375,9.40175519414544,-0.6864414644598961,-2.0156790206596256
1772785881623928000,5.091927978515625,10.247281305146217,-0.42828328022658824,-1.5443746370911597
1772785881633943000,5.101943115234375,10.744372748661041,-0.6064804773859679,-1.5195618290044366
1772785881643959000,5.111958984375,10.944315475291013,-0.6467312392316759,-1.5438956214025616
1772785881653975000,5.12197509765625,10.828096157008408,-0.560811051492393,-1.4669506211489438
1772785881663991000,5.131990966796875,9.960434202045201,-0.6477822095893323,-1.4356868833571672
1772785881674006000,5.142006103515625,8.848520423126221,-0.6804087601669132,-1.5499772794038056
1772785881684022000,5.15202197265625,8.301343052449822,-0.6239686416730285,-1.58389357753098
1772785881694038000,5.1620380859375,8.144408861941098,-0.799071964470297,-1.1300788926195353
1772785881704053000,5.172052978515625,7.48891373988688,-1.1717027694493531,-1.1172110816095024
1772785881714069000,5.182069091796875,6.631248278281093,-1.380008104624599,-1.637355995388329
1772785881724084700,5.192084716796875,6.115832658046483,-1.733891392905265,-2.270001279991865
1772785881734100000,5.202099853515625,5.0551276728391645,-2.373552547620237,-3.6744828777462244
1772785881744116000,5.212115966796875,2.9389930124789476,-1.373931999581307,-4.827887189438939
1772785881754132000,5.222132080078125,-1.3646926082015036,1.2759351512096822,-4.5171889628902075
1772785881764147000,5.23214697265625,-8.487244978767633,2.269673363211751,-4.706974160382151
1772785881774163000,5.242162841796875,-16.406496008801458,4.612956152513623,-2.758286024455726
1772785881784179000,5.252178955078125,-23.549026168513297,6.06609978210628,0.03563599805925041
1772785881794195000,5.26219482421875,-28.937181680870054,2.3124802392810584,1.5198660726480184
1772785881804210000,5.2722099609375,-26.183536467957495,-1.1827283135935664,5.13104128421843
1772785881814226000,5.282225830078125,-18.79845778107643,1.4093566564448177,6.487078292277455
1772785881824242000,5.292241943359375,-15.717041918522119,4.693749352627992,5.4133852306813
1772785881834257000,5.3022568359375,-15.937513053917884,6.952450655448437,4.840663961164653
1772785881844273200,5.312273193359375,-17.434306440144777,8.012406868115066,3.4594489649683235
1772785881854289200,5.3222890625,-17.722507295942304,7.128107082083821,2.6012349295690655
1772785881864304000,5.33230419921875,-17.863005315434933,6.2277943188846105,2.3703635423205793
1772785881874320100,5.342320068359375,-18.01108809096813,6.915678967890143,1.3669595302201807
1772785881884335900,5.3523359375,-19.12123076856136,6.458802045863867,-0.19941512255929408
1772785881894351000,5.36235107421875,-21.544069325137137,3.6194063026905057,-1.9424150470063088
1772785881904366800,5.372366943359375,-21.95030034803152,0.47280353608503933,-3.2873531534239646
1772785881914382800,5.3823828125,-19.343388834130764,-1.2163827459141612,-3.5323686552286144
1772785881924398800,5.39239892578125,-16.480419323146343,-1.8187011351846158,-4.123277031081915
1772785881934413800,5.402413818359375,-13.551555490493774,-2.0241838141545654,-3.7722891719818112
1772785881944429800,5.412429931640625,-10.595129112654924,-1.8984300670683383,-2.9966783087283373
1772785881954446000,5.422446044921875,-7.713561868706345,-1.6268717185139656,-2.5521368444010615
1772785881964461000,5.4324609375,-5.753000631895661,-0.7445704128235578,-2.186129987606406
1772785881974477000,5.44247705078125,-3.0347388670533895,-0.035349253539741034,-2.084103591457754
1772785881984493000,5.4524931640625,-0.1409194597750902,0.12375906613767146,-1.9226174367330968
1772785881994508000,5.462508056640625,3.3437726675212383,-0.5391194441661238,-1.6658140281096099
1772785882004524000,5.47252392578125,6.40394700460434,-1.686189292140305,-1.520641879326105
1772785882014540000,5.4825400390625,8.516722417664527,-2.81577667491585,-1.671284276214242
1772785882024556000,5.49255615234375,10.502598128473759,-3.8489766903430223,-1.9319325236976146
1772785882034571000,5.502571044921875,12.72805299525261,-4.898278822526335,-2.207898751822114
1772785882044587000,5.5125869140625,15.128848062324524,-5.4731052476286886,-2.2566689202100036
1772785882054602800,5.522602783203125,16.84117103589177,-5.52360618533194,-2.166927566747367
1772785882064618000,5.532617919921875,16.84721849936247,-4.84530360366404,-1.8759958246812223
1772785882074634000,5.542634033203125,15.282972456109523,-3.3155136645033956,-1.5114879742726683
1772785882084650000,5.55264990234375,13.684413808888197,-1.5989692738488315,-1.040804060690105
1772785882094665000,5.5626650390625,12.024174073779582,-0.15494213990867137,-0.4746130697250366
1772785882104681000,5.572680908203125,11.033290228295325,0.8752408657848835,0.11600246066153048
1772785882114697000,5.582697021484375,10.399382084149122,1.5282242972791193,0.4052726992562413
1772785882124713000,5.592712890625,9.874923325759172,1.7439771719813346,0.1922308370783925
1772785882134728000,5.60272802734375,9.79279098599553,1.5638050214871764,-0.19839257457852363
1772785882144744000,5.612743896484375,10.153013121908902,0.8151619523972272,-0.5498486357122659
1772785882154760000,5.622760009765625,10.7407931366086,-0.6087020989581943,-1.1389110914379357
1772785882164775000,5.63277490234375,11.024877789258957,-1.6243509678646921,-2.040693634928763
1772785882174791000,5.642791015625,10.712232228034734,-2.2991356045395133,-2.5775194151997565
1772785882184807200,5.65280712890625,10.01312183613777,-2.988324906402826,-2.9940140579551455
1772785882194823000,5.662822998046875,8.910410185328125,-3.1447260129481553,-3.5210777381464835
1772785882204838100,5.672838134765625,7.4878586778759955,-3.227760269987583,-4.3379576003775
1772785882214854000,5.68285400390625,6.1642275633811945,-3.5528766057282684,-4.889658293697238
1772785882224870000,5.692869873046875,6.567447129499912,-3.549486671029031,-4.5952632594347
1772785882234885000,5.702885009765625,7.76506409240663,-3.5487680013656613,-4.318842857801914
1772785882244901000,5.712901123046875,8.929768381270765,-3.3991055554255842,-4.208415566924214
1772785882254917000,5.722917236328125,9.769435244849324,-2.7267107364967464,-3.9995846004396673
1772785882264932000,5.73293212890625,10.20111576629877,-1.8859188144110142,-3.722161743766069
1772785882274948000,5.742947998046875,10.223556730687617,-1.173637975295633,-3.359756418594718
1772785882284964000,5.752964111328125,9.735748079302907,-0.6412666902154683,-3.0008512104988094
1772785882294980000,5.76297998046875,9.04729118336737,-0.4603315925247967,-2.6458032623529433
1772785882304995000,5.7729951171875,8.22557147988975,-0.6372071856915951,-1.9986273480936885
1772785882315011000,5.783010986328125,6.938774596795439,-1.2102898358665406,-1.3635869850471616
1772785882325027000,5.793027099609375,5.58832152634859,-1.6852746615134178,-1.0801324469938873
1772785882335042000,5.8030419921875,4.42368153489232,-2.102292159099132,-0.9108905635759234
1772785882345058300,5.813058349609375,3.9489463000923393,-2.156153659276664,-0.34077830751389265
1772785882355074000,5.823073974609375,3.401946039548516,-1.2892058439321816,0.6128910750806331
1772785882365090000,5.833090087890625,1.2408487863898277,0.37429742301702495,1.0649700953058898
1772785882375105000,5.84310498046875,-3.1411019772320983,2.8995594122350212,0.21224676627740263
1772785882385121000,5.85312109375,-11.519689597404003,7.007009928631782,-0.7152929534781723
1772785882395137000,5.863136962890625,-18.43452276211977,5.755052303728461,1.77527101265043
1772785882405152000,5.873152099609375,-22.836821317243576,-2.5563661525338888,0.1176902676180005
1772785882415168000,5.88316796875,-26.864097642207145,-2.1355903253279624,1.2577419073931873
1772785882425184000,5.89318408203125,-26.31360895502567,1.397513366176933,1.7105919119909405
1772785882435199000,5.903198974609375,-23.468126000893115,1.851096653485298,1.9593727576784787
1772785882445215000,5.913215087890625,-20.202745902085304,2.534177993862331,2.490487905217707
1772785882455231200,5.923231201171875,-17.479741326630116,4.626313062214851,2.913933974546194
1772785882465247200,5.933247314453125,-15.779554196536541,5.631944394975901,3.221152542285621
1772785882475262200,5.94326220703125,-16.987134335052968,4.7280981969535345,2.9481518859684464
1772785882485278200,5.9532783203125,-20.85026522295475,4.541770446439087,1.5220912013515828
1772785882495294200,5.963294189453125,-23.000209213936326,5.200880544120073,0.8704918446268886
1772785882505309200,5.97330908203125,-22.32969714001417,4.575065690058469,0.39511966363023965
1772785882515325200,5.9833251953125,-20.526564014708995,3.371947499386966,-0.5498152814319357
1772785882525341000,5.9933408203125,-18.399432744038105,1.802064034768939,-1.982083625049889
1772785882535357000,6.00335693359375,-16.115019492334127,-0.48198242944926023,-3.3998306548297403
1772785882545372000,6.013371826171875,-12.708529964137076,-2.308265836456418,-3.4900831726849075
1772785882555388200,6.02338818359375,-8.053269624379277,-3.47117710442394,-3.1999910963132976
1772785882565404200,6.033404052734375,-3.401075101932883,-3.8103842170983553,-2.889608219324052
1772785882575419100,6.043419189453125,0.5986211421877146,-3.487344687631726,-2.323251516403258
1772785882585435100,6.05343505859375,3.3962668248683214,-3.2882539016559718,-2.029672766959667
1772785882595451100,6.063451171875,4.447400264132023,-2.8115830226182936,-2.062923586915433
1772785882605467100,6.073467041015625,5.234771707805991,-1.610757034537196,-1.7405824149765072
1772785882615482000,6.083482177734375,6.612209231290221,-0.9999576710388064,-1.6949346163928507
1772785882625498000,6.093498046875,8.16607884195745,-1.5853265329435466,-1.8063801444023846
1772785882635514000,6.10351416015625,9.98902784384489,-2.232845269291103,-1.8361352311968802
1772785882645529000,6.113529052734375,11.79403845345974,-2.8256416508480906,-2.036140793929994
1772785882655545000,6.123545166015625,13.036776414597034,-3.2398867611110207,-2.3106617916822434
1772785882665561000,6.13356103515625,13.88685010589957,-3.284950183935463,-2.502299631303549
1772785882675577000,6.1435771484375,14.601253928518295,-2.997165215462446,-2.4204545840486884
1772785882685592000,6.153592041015625,14.904092381477355,-2.493798052679002,-2.3316814910963175
1772785882695608000,6.163608154296875,13.692614651000499,-1.5922233067199587,-2.0948264993935823
1772785882705624000,6.1736240234375,11.567210057991742,-0.22175474546551704,-1.7707333692207932
1772785882715639000,6.18363916015625,9.279352803313731,1.0359560361370443,-1.4326128827393054
1772785882725655000,6.193655029296875,7.529200742089748,1.4651239902436732,-1.3064075924932956
1772785882735671000,6.203671142578125,6.9516422616749995,0.9844295547783374,-1.5030273121803999
1772785882745687000,6.21368701171875,7.223313422954082,-0.05723185339346528,-1.8552458821192384
1772785882755702000,6.223701904296875,8.120784240725635,-1.2367848979517817,-2.419440730831027
1772785882765718000,6.233718017578125,9.123724434706569,-2.1853860373713077,-3.176852212788164
1772785882775734300,6.243734375,9.895167656886578,-2.9371891779273747,-3.9701860719978805
1772785882785749200,6.253749267578125,10.360547618842125,-3.347344096267223,-4.484234495532513
1772785882795765200,6.26376513671875,10.112142182338237,-3.445366663601994,-4.771868949618935
1772785882805781200,6.27378125,9.330211468413472,-2.9995205464169383,-4.503327318537235
1772785882815797000,6.283796875,9.003093729722499,-2.4319237803071734,-3.7784383422613144
1772785882825812200,6.293812255859375,8.875766741970182,-2.1189500100418925,-3.0875168097779153
1772785882835828000,6.303827880859375,8.906587996691465,-1.8053399876996874,-2.6925086071655153
1772785882845844000,6.313843994140625,9.368746658512949,-1.3673986522898076,-2.2475401495978233
1772785882855859000,6.32385888671875,10.033294855594635,-0.9984895712476223,-1.8256363412752747
1772785882865875000,6.333875,10.432665929591655,-0.8085035904865712,-1.5274784473478793
1772785882875891200,6.34389111328125,10.467297682511806,-0.9225153887875378,-1.423119808859378
1772785882885907200,6.3539072265625,10.071210452491044,-1.0500215324990452,-1.2724036160826682
1772785882895922200,6.363922119140625,8.812467112970351,-1.164192174623534,-1.1452622140303252
1772785882905938200,6.373938232421875,7.113563008424639,-1.1297823938909917,-1.0405006938293575
1772785882915954200,6.3839541015625,5.873944640612602,-1.0521958077982068,-0.38199250756427644
1772785882925969200,6.39396923828125,5.010457340985536,-0.9693284317582845,0.4133924389563501
1772785882935985200,6.403985107421875,4.29764575599432,-0.613653145494312,1.0074088638275862
1772785882946001200,6.414001220703125,3.871392520290613,0.22572912898920475,2.227764020504057
1772785882956017000,6.424016845703125,2.975307603919506,2.3066411578640342,4.00398254313767
1772785882966032100,6.4340322265625,-1.346457863330841,6.102126788777112,4.985685887822508
1772785882976047900,6.4440478515625,-11.308775394904613,5.015798702013492,4.3046059503957625
1772785882986064100,6.454064208984375,-22.47416289409399,0.8631281839910894,3.8973099286183714
1772785882996079000,6.4640791015625,-28.018956244361398,2.4694366416215896,5.457076488369703
1772785883006095000,6.47409521484375,-27.338107485342025,6.816914057755469,2.9723166054099797
1772785883016111000,6.484111083984375,-23.75204231123924,6.472125053295493,-1.8486743947744368
1772785883026127000,6.494127197265625,-19.704845480275154,2.621169171833992,-7.377202838939428
1772785883036142000,6.50414208984375,-12.853166398608684,1.0747877980303018,-8.903568356609345
1772785883046158000,6.514157958984375,-6.299605755642056,-0.7009730439636855,-10.524336497551202
1772785883056174000,6.524174072265625,-5.881285651025176,-2.4080332016319037,-11.031931799423694
1772785883066189000,6.53418896484375,-5.28520367192626,-0.8819692972570657,-7.754864769953489
1772785883076205000,6.544205078125,-6.531451102489233,-0.17590630974322558,-3.866435190144181
1772785883086221000,6.554220947265625,-9.096638274860382,-0.661383303309977,-1.298378307555616
1772785883096237000,6.564237060546875,-11.533748517894745,-1.1856760574832559,-0.4046095591723919
1772785883106252300,6.574252197265625,-14.841520482230186,-1.8146357854418456,-0.6891170403447002
1772785883116268000,6.58426806640625,-17.986162908548117,-2.3724857951715586,-1.7919364623777567
1772785883126284000,6.594283935546875,-18.72837126841545,-2.901967934681475,-2.5255343764185905
1772785883136300000,6.604300048828125,-16.721949613183735,-3.5404438251346346,-2.7421181489869952
1772785883146315000,6.61431494140625,-13.608590798401831,-3.6220968569487333,-2.8094986175596715
1772785883156331000,6.6243310546875,-10.422497586798666,-3.2924411242127416,-2.3053575477942823
1772785883166347000,6.634346923828125,-7.398279529237747,-3.529203469195962,-1.3031255020827055
1772785883176362000,6.644362060546875,-4.9630514466881746,-4.209547493563592,-0.3912679566381499
1772785883186378000,6.6543779296875,-2.785757676488161,-4.597200949499011,0.2814283659879118
1772785883196394200,6.664394287109375,-1.1864549329012632,-4.899306412008404,0.4746158462040126
1772785883206410200,6.67441015625,-0.6374205361813307,-5.178358915710449,0.477083916817978
1772785883216425200,6.68442529296875,-1.0999643979281186,-5.135258609652519,1.0762363163381814
1772785883226441200,6.694441162109375,-2.1384113740980624,-4.2305996339425445,2.0942131898008287
1772785883236457500,6.70445751953125,-2.811712786477804,-2.896673043143749,2.780627035601437
1772785883246472400,6.714472412109375,-2.6911007861942053,-1.3096543193295598,3.2513971661627292
1772785883256488400,6.724488525390625,-1.525755861338973,-0.05937541846053209,3.87170553176254
1772785883266504200,6.734504150390625,0.6884978124678135,0.04195414996379986,4.703165708009898
1772785883276520400,6.7445205078125,2.0805062976181508,-0.44815793779138474,4.786702069352567
1772785883286535400,6.754535400390625,2.127380861517787,-1.1101621129460633,3.8567271583393214
1772785883296551400,6.764551513671875,0.4895318219155073,-1.1905632450029253,2.885177543400228
1772785883306567400,6.7745673828125,-2.1716215697824954,-0.16441711187632754,1.1365082680799066
1772785883316582400,6.78458251953125,-4.270251553112268,2.0157278282374143,-0.33184228299483653
1772785883326598400,6.794598388671875,-4.0730940732866525,4.434021142598986,-0.6873067029871046
1772785883336614400,6.804614501953125,-2.6996915044069287,5.83508036468923,-0.38667986166290935
1772785883346630400,6.81463037109375,-1.258752107349038,6.018343174675107,-0.5398915245171636
1772785883356645400,6.824645263671875,0.29042203897833824,5.700301307365298,-0.3833012520752847
1772785883366661400,6.834661376953125,1.2553992897897959,4.946660283857583,0.1815598054602742
1772785883376677400,6.844677490234375,2.4818337663799523,4.134152060839534,0.2009705718403682
1772785883386693400,6.854693359375,3.6320816598683594,3.3628190210357305,0.17602891320958733
1772785883396708600,6.86470849609375,4.577576211574673,2.8151600043222307,-0.07567103479504585
1772785883406724400,6.874724365234375,4.95571160531938,2.932660594587028,-0.6105089291844517
1772785883416740400,6.884740234375,4.774074350708723,3.8315830724716182,-1.00263441596739
1772785883426755300,6.89475537109375,4.690704578104615,4.785579787324369,-0.662059449005872
1772785883436771300,6.904771240234375,5.398437252396345,4.841477323374152,-0.38145299386009573
1772785883446787300,6.914787353515625,5.75546497618258,4.609028165414929,-0.3886189399667084
1772785883456803300,6.92480322265625,6.024346214482188,4.681618769851327,-0.7592113709859549
1772785883466818300,6.934818359375,5.904364328795671,4.7609576795041555,-0.9612657560076564
1772785883476834300,6.944834228515625,5.592714792871475,4.400328131833672,-0.9899699455097317
1772785883486850600,6.9548505859375,5.477101039266586,3.9416836156129835,-1.1682705299783498
1772785883496865300,6.964865234375,5.538879742309451,3.827325415027141,-1.4647922740712762
1772785883506881500,6.974881591796875,5.894678216561675,3.933403863045573,-1.9010792664028704
1772785883516897500,6.9848974609375,6.088082481333613,4.08786961761415,-1.8721625301286577
1772785883526913300,6.994913330078125,6.319486514154076,3.7681142243847248,-1.2811799199953675
1772785883536928500,7.004928466796875,6.274585296154022,2.898494997873902,-0.8364696749724447
1772785883546944300,7.0149443359375,5.7439043022483585,2.543890117320418,-0.3805737633401528
1772785883556960300,7.024960205078125,5.4100388428628445,2.5120722527772186,-0.2559249818211421
1772785883566976300,7.034976318359375,5.264218751564622,2.4473309005364774,-0.4142485808616504
1772785883576991200,7.0449912109375,5.122658655798435,2.2008128852143884,-0.41974644762556995
1772785883587007200,7.05500732421875,5.164337404620647,1.6889073189273476,-0.41965087829660624
1772785883597023500,7.0650234375,5.215692328804731,1.241125849765539,-0.26811463784128425
1772785883607038500,7.07503857421875,5.077798938852548,0.929046982513368,-0.16900111519834027
1772785883617054500,7.085054443359375,4.9580087763458485,0.8019035346344113,-0.32848453353215007
1772785883627070500,7.095070556640625,4.578885540607572,1.1089914617314933,-0.6703505997501313
1772785883637086500,7.10508642578125,3.876957168680429,1.524000834365189,-0.982184990721941
1772785883647101400,7.115101318359375,2.9043723654747007,1.7843018758460878,-1.0977882229328155
1772785883657117400,7.125117431640625,1.729656970205903,1.8294851256579159,-1.1310090861417352
1772785883667133400,7.135133544921875,0.5282347697973251,1.6114768732443452,-1.3789046734273434
1772785883677149200,7.145149169921875,-0.19960545749962327,1.2824413182333112,-1.5393001103058457
1772785883687164400,7.155164306640625,-0.07991875536739826,0.8087202289119363,-1.3437043268389999
1772785883697180200,7.16518017578125,1.0693073938578366,-0.11332272005826234,-1.0170542056597769
1772785883707196400,7.175196533203125,1.9551596700280904,-1.02367829997465,-0.7726282672461122
1772785883717212400,7.18521240234375,2.43090495865345,-1.7854827561937272,-0.685133815927431
1772785883727227400,7.195227294921875,2.702179229569435,-2.241833608519286,-0.3093008539061993
1772785883737243400,7.205243408203125,1.7893132742673157,-2.311899078392237,-0.7511494989529252
1772785883747259400,7.21525927734375,0.7003676984816789,-1.9811831690788269,-1.219730960363522
1772785883757274400,7.2252744140625,-0.8102449542611837,-1.7008400410443543,-1.7067754224427043
1772785883767290400,7.235290283203125,-1.9317519064337014,-1.4569211023047566,-2.2499875427499414
1772785883777306400,7.245306396484375,-2.0322715512812137,-1.111107430972159,-2.3192506101988255
1772785883787322400,7.255322265625,-1.4609668705642223,-0.9243032951176166,-2.0401026832982896
1772785883797337300,7.26533740234375,-0.5737602571755648,-1.0554385891117155,-1.5623884326875208
1772785883807353600,7.275353515625,0.21610358783602712,-1.149598051277548,-1.2675374713510275
1772785883817369300,7.285369384765625,0.6197796655505895,-1.1997466684117912,-1.0059569114536047
1772785883827385300,7.29538525390625,0.47365036217272277,-1.004618648587167,-0.889707636424154
1772785883837400300,7.305400390625,0.10924480309486388,-0.6183974174119532,-0.7131730387147516
1772785883847416300,7.315416259765625,-0.08286708377897739,-0.34745573945119973,-0.40000506105162204
1772785883857432300,7.325432373046875,-0.38420916070044037,-0.08629340496584773,-0.3014358926847577
1772785883867447300,7.335447265625,-0.5984498772740364,0.2560753866098821,-0.3618535730401054
1772785883877463300,7.34546337890625,-0.5240606989830732,0.46867111245542764,-0.3147766184361651
1772785883887479300,7.355479248046875,-0.3836047650665045,0.5023423497803509,-0.24053614616720004
1772785883897495300,7.365495361328125,-0.33174598301351066,0.27986491606347264,-0.3291523863237351
1772785883907510300,7.37551025390625,-0.21496844632625578,-0.06955372095853089,-0.3428483552535996
1772785883917526500,7.385526611328125,0.09183014243543147,-0.39176973214782773,-0.28626027965638784
1772785883927542500,7.39554248046875,0.343933264413476,-0.6210685363173485,-0.21029322105683385
1772785883937558500,7.40555859375,0.30963585801422594,-0.7292445411369204,-0.2118627536621876
1772785883947573500,7.415573486328125,0.09815934545695781,-0.7214114363584667,-0.3532780158638954
1772785883957589500,7.425589599609375,-0.3013467530965805,-0.41421332688517865,-0.549413020773977
1772785883967605200,7.435605224609375,-0.5462099869489669,0.12352554964274168,-0.6159155374683439
1772785883977621200,7.445621337890625,-0.598342325246334,0.23552914992645382,-0.4828464989326894
1772785883987636200,7.45563623046875,-0.39468320844173427,0.11363931172676384,-0.3032146841266192
1772785883997652200,7.46565234375,-0.19513152695596217,-0.236533577728644,-0.10389587981496005
1772785884007668500,7.47566845703125,0.051557168757915495,-0.5379069265712052,0.03417577104726806
1772785884017683500,7.485683349609375,0.18264906200170516,-0.5930135314390063,0.03339965384192765
1772785884027699500,7.495699462890625,-0.07446984231173992,-0.39965880489721894,-0.0897761964471545
1772785884037715500,7.505715576171875,-0.4939274265259504,-0.20017631619013845,-0.2790308763921261
1772785884047731500,7.5157314453125,-0.6350351023495197,0.05836999057792127,-0.42414106585532424
