time,seconds_elapsed,z,y,x
1772785876596058600,0.06405859375,1.1164661645889282,-0.2881537675857544,1.2501696348190308
1772785876606074600,0.07407470703125,1.2980971336364746,-0.36598271131515503,1.278320550918579
1772785876616090600,0.084090576171875,1.422386646270752,-0.37406301498413086,1.307737112045288
1772785876626105600,0.094105712890625,1.5280534029006958,-0.3168831467628479,1.3214932680130005
1772785876636121600,0.10412158203125,1.6353193521499634,-0.22193853557109833,1.3241242170333862
1772785876646137600,0.1141376953125,1.7552735805511475,-0.153589129447937,1.3334583044052124
1772785876656152600,0.124152587890625,1.871438980102539,-0.09643715620040894,1.336477518081665
1772785876666168600,0.13416845703125,1.937107801437378,-0.05476319044828415,1.3139690160751343
1772785876676184600,0.1441845703125,1.9153127670288086,-0.04237682744860649,1.2166470289230347
1772785876686199600,0.154199462890625,1.8020312786102295,-0.058386482298374176,1.098927617073059
1772785876696215600,0.164215576171875,1.6391942501068115,-0.03889293968677521,1.0604372024536133
1772785876706231600,0.1742314453125,1.4782829284667969,0.038489457219839096,1.1028729677200317
1772785876716246500,0.18424658203125,1.3519902229309082,0.14973369240760803,1.1440579891204834
1772785876726262500,0.194262451171875,1.2541934251785278,0.23231342434883118,1.0962285995483398
1772785876736278500,0.204278564453125,1.1630926132202148,0.1916711926460266,0.9892994165420532
1772785876746293500,0.21429345703125,1.057652473449707,0.15868879854679108,0.8560255765914917
1772785876756309500,0.2243095703125,0.9163331985473633,0.24603915214538574,0.6834567189216614
1772785876766325800,0.23432568359375,0.7708175778388977,0.4576653242111206,0.4553619623184204
1772785876776340500,0.244340576171875,0.6740680932998657,0.6298890709877014,0.16022354364395142
1772785876786356700,0.254356689453125,0.6576126217842102,0.6566213965415955,-0.19494174420833588
1772785876796372700,0.264372802734375,0.7026988863945007,0.5556644201278687,-0.5447671413421631
1772785876806387700,0.2743876953125,0.7656226754188538,0.4375762939453125,-0.796635627746582
1772785876816403700,0.28440380859375,0.7606516480445862,0.444491982460022,-0.8990882039070129
1772785876826419700,0.294419677734375,0.6419706344604492,0.5422136187553406,-0.9000883102416992
1772785876836434700,0.3044345703125,0.46338650584220886,0.5625202059745789,-0.8629207015037537
1772785876846450700,0.31445068359375,0.3098823130130768,0.4769373834133148,-0.8005595207214355
1772785876856466400,0.324466552734375,0.23629091680049896,0.3771146535873413,-0.7111236453056335
1772785876866481700,0.334481689453125,0.26221880316734314,0.3424905836582184,-0.5661735534667969
1772785876876497400,0.344497314453125,0.34218552708625793,0.37169772386550903,-0.3166220188140869
1772785876886513700,0.354513671875,0.4411270320415497,0.478990375995636,-0.0935085117816925
1772785876896528400,0.3645283203125,0.5788569450378418,0.6097337603569031,0.0075097158551216125
1772785876906544600,0.374544677734375,0.6968788504600525,0.707988440990448,-0.0343439057469368
1772785876916560600,0.384560546875,0.7361524701118469,0.7072936296463013,-0.20704084634780884
1772785876926575600,0.39457568359375,0.6990085244178772,0.6847790479660034,-0.4179844558238983
1772785876936591600,0.404591552734375,0.6550442576408386,0.6885223984718323,-0.5966652631759644
1772785876946607600,0.414607666015625,0.6129103899002075,0.7171109914779663,-0.6609143614768982
1772785876956622600,0.42462255859375,0.597994863986969,0.7938470840454102,-0.6287398934364319
1772785876966638600,0.434638671875,0.5699977874755859,0.8779416680335999,-0.46574556827545166
1772785876976654600,0.444654541015625,0.48492738604545593,1.0341615676879883,-0.1584322303533554
1772785876986669600,0.454669677734375,0.3702356517314911,1.255368709564209,0.20921091735363007
1772785876996685600,0.464685546875,0.2601432502269745,1.5232230424880981,0.4905291497707367
1772785877006701800,0.474701904296875,0.21471793949604034,1.7618286609649658,0.6009637713432312
1772785877016717600,0.484717529296875,0.2765115201473236,1.781629204750061,0.5134938359260559
1772785877026732800,0.49473291015625,0.33001387119293213,1.540174126625061,0.310962051153183
1772785877036748500,0.50474853515625,0.35269734263420105,1.0673359632492065,0.1500258594751358
1772785877046764500,0.5147646484375,0.39606961607933044,0.5161034464836121,0.08663101494312286
1772785877056779500,0.524779541015625,0.6460485458374023,0.029520265758037567,0.110988549888134
1772785877066795500,0.53479541015625,0.824859619140625,-0.03626827523112297,-0.03220890834927559
1772785877076811500,0.5448115234375,0.6635250449180603,0.061547234654426575,-0.32437872886657715
1772785877086826500,0.554826416015625,0.6318811178207397,0.2658899128437042,-0.43669602274894714
1772785877096842500,0.564842529296875,0.684462308883667,0.29314735531806946,-0.34667450189590454
1772785877106858500,0.5748583984375,0.5823504328727722,0.20301969349384308,-0.291731059551239
1772785877116873500,0.58487353515625,0.35064631700515747,-0.02165043167769909,-0.3486124575138092
1772785877126889700,0.5948896484375,0.14912721514701843,-0.42498597502708435,-0.5067605972290039
1772785877136905700,0.60490576171875,0.09016777575016022,-0.825532853603363,-0.7932780981063843
1772785877146920700,0.614920654296875,0.21361985802650452,-1.376311182975769,-1.1863549947738647
1772785877156936700,0.624936767578125,0.4275353252887726,-1.933722734451294,-1.4119065999984741
1772785877166952700,0.63495263671875,0.6146055459976196,-2.1592018604278564,-1.2081447839736938
1772785877176967700,0.6449677734375,0.7297686338424683,-2.0514283180236816,-0.7696273326873779
1772785877186983700,0.654983642578125,0.6873849034309387,-1.8135148286819458,-0.3562830090522766
1772785877196999400,0.66499951171875,0.3125297725200653,-1.5765624046325684,-0.026559973135590553
1772785877207014700,0.6750146484375,-0.46444588899612427,-1.161624550819397,0.15713581442832947
1772785877217030400,0.685030517578125,-1.548146367073059,-0.6850066781044006,0.0740680918097496
1772785877227046400,0.69504638671875,-2.7339887619018555,-0.3415329158306122,-0.27978289127349854
1772785877237060900,0.705060791015625,-3.6894819736480713,-0.05847086012363434,-0.7563853859901428
1772785877247076900,0.715076904296875,-4.321403503417969,0.2187442034482956,-1.2383229732513428
1772785877257092600,0.725092529296875,-4.741663455963135,0.46424317359924316,-1.5316523313522339
1772785877267107800,0.73510791015625,-4.808252811431885,0.9405377507209778,-1.4977816343307495
1772785877277123600,0.74512353515625,-4.424466133117676,1.6802831888198853,-1.2781223058700562
1772785877287139600,0.7551396484375,-3.819925308227539,2.2856028079986572,-1.0434328317642212
1772785877297154600,0.765154541015625,-3.2532005310058594,2.6661770343780518,-0.9128468632698059
1772785877307170800,0.7751708984375,-2.782196521759033,2.695444345474243,-0.9042773246765137
1772785877317186800,0.785186767578125,-2.4110569953918457,2.539691925048828,-0.9573514461517334
1772785877327201800,0.795201904296875,-2.0618696212768555,2.1487035751342773,-1.0062355995178223
1772785877337217800,0.8052177734375,-1.7543107271194458,1.8012282848358154,-1.060416579246521
1772785877347233800,0.81523388671875,-1.563036561012268,1.2760225534439087,-0.9633308053016663
1772785877357248800,0.825248779296875,-1.477095365524292,1.0526102781295776,-0.6988336443901062
1772785877367264800,0.8352646484375,-1.3072904348373413,0.6571685671806335,-0.2792888581752777
1772785877377280800,0.84528076171875,-0.9221320748329163,0.16108663380146027,-0.009712759405374527
1772785877387295700,0.855295654296875,-0.40919917821884155,-0.4828157424926758,0.10113751888275146
1772785877397311700,0.865311767578125,0.09868825972080231,-1.0157771110534668,0.14236752688884735
1772785877407327700,0.87532763671875,0.48647159337997437,-1.3590914011001587,0.16074275970458984
1772785877417342700,0.8853427734375,0.718210756778717,-1.610119104385376,0.12727907299995422
1772785877427359000,0.89535888671875,0.7907460331916809,-1.856278657913208,0.01672639697790146
1772785877437374700,0.905374755859375,0.7067374587059021,-2.0029006004333496,-0.09891417622566223
1772785877447390000,0.915389892578125,0.47081437706947327,-2.023104190826416,-0.1781855672597885
1772785877457405700,0.92540576171875,0.13725027441978455,-1.8442355394363403,-0.1920422613620758
1772785877467421700,0.935421630859375,-0.11548392474651337,-1.4485194683074951,-0.13973279297351837
1772785877477437700,0.945437744140625,-0.07917331904172897,-0.9274682402610779,-0.09078016132116318
1772785877487452700,0.95545263671875,0.2524365484714508,-0.441296249628067,-0.05768701434135437
1772785877497468700,0.96546875,0.6665229201316833,-0.02472725883126259,0.02825426124036312
1772785877507484700,0.975484619140625,0.9366921782493591,0.3797977864742279,0.1629021018743515
1772785877517499600,0.985499755859375,1.0305720567703247,0.6733229160308838,0.21795442700386047
1772785877527515600,0.995515625,1.0211026668548584,0.7568286061286926,0.10566039383411407
1772785877537532000,1.005531982421875,0.9596906900405884,0.562770664691925,-0.1717858761548996
1772785877547547000,1.015546875,0.8872346878051758,0.3437610864639282,-0.447368323802948
1772785877557563000,1.02556298828125,0.876617968082428,0.4052391052246094,-0.5244852304458618
1772785877567579000,1.035578857421875,1.0058289766311646,0.7279288172721863,-0.3811749219894409
1772785877577593900,1.04559375,1.2682735919952393,0.9348649978637695,-0.0806875228881836
1772785877587609900,1.05560986328125,1.5474516153335571,0.9081792235374451,0.23985375463962555
1772785877597625900,1.0656259765625,1.738216757774353,0.6557422280311584,0.41706234216690063
1772785877607640800,1.075640869140625,1.7584679126739502,0.13224567472934723,0.43517041206359863
1772785877617656800,1.08565673828125,1.798905849456787,-0.8826404809951782,0.35492298007011414
1772785877627672600,1.095672607421875,2.1829307079315186,-2.207399368286133,0.3172093629837036
1772785877637687800,1.105687744140625,3.1132400035858154,-3.4358510971069336,0.3716731369495392
1772785877647703600,1.11570361328125,3.994452476501465,-4.04428768157959,0.572563111782074
1772785877657719800,1.1257197265625,3.3730673789978027,-3.165677309036255,0.09740830212831497
1772785877667734800,1.13573486328125,2.192063570022583,-1.738633632659912,-1.300194501876831
1772785877677750800,1.145750732421875,2.218435287475586,-0.45300939679145813,-2.326555013656616
1772785877687766800,1.155766845703125,2.4328930377960205,-0.09436019510030746,-2.028212547302246
1772785877697781800,1.16578173828125,1.7159563302993774,-0.026071950793266296,-0.5832549929618835
1772785877707797800,1.1757978515625,0.5858169198036194,0.07495057582855225,0.3090238869190216
1772785877717813800,1.185813720703125,-0.7598336338996887,0.06664524227380753,0.10858505964279175
1772785877727828700,1.195828857421875,-1.8536317348480225,-0.110525943338871,-0.6769002676010132
1772785877737844700,1.2058447265625,-2.276466131210327,-0.48714083433151245,-1.4902222156524658
1772785877747860700,1.21586083984375,-2.0508811473846436,-0.38521334528923035,-1.6467124223709106
1772785877757875700,1.225875732421875,-1.321249008178711,0.3250439763069153,-1.0475730895996094
1772785877767891700,1.2358916015625,-0.7618725299835205,1.2576563358306885,-0.021315766498446465
1772785877777908000,1.245907958984375,-0.8119674324989319,2.2487363815307617,0.8962380290031433
1772785877787923000,1.2559228515625,-1.466202974319458,2.8944482803344727,1.224833369255066
1772785877797939000,1.26593896484375,-2.2915074825286865,3.307544469833374,0.8470576405525208
1772785877807954700,1.27595458984375,-2.7915542125701904,3.2351324558258057,-0.20121729373931885
1772785877817970000,1.285969970703125,-2.8504700660705566,2.602184534072876,-1.5380181074142456
1772785877827985700,1.295985595703125,-2.5331971645355225,1.8742154836654663,-2.5818512439727783
1772785877838001700,1.306001708984375,-2.021204948425293,1.6314421892166138,-2.8701705932617188
1772785877848016600,1.3160166015625,-1.3750566244125366,1.9077563285827637,-2.3531575202941895
1772785877858032600,1.32603271484375,-0.6921377182006836,2.2007036209106445,-1.4415793418884277
1772785877868048600,1.336048583984375,0.04315827414393425,2.138704299926758,-0.5910850167274475
1772785877878063600,1.346063720703125,0.6113985776901245,1.580491542816162,0.23223015666007996
1772785877888080000,1.356079833984375,1.0581083297729492,0.8494128584861755,0.812748908996582
1772785877898095900,1.366095947265625,1.2780731916427612,0.0905536562204361,1.0551774501800537
1772785877908110800,1.37611083984375,1.3542190790176392,-0.652289092540741,1.0167592763900757
1772785877918126800,1.386126953125,1.3682630062103271,-1.339749813079834,0.8670973181724548
1772785877928142800,1.396142822265625,1.2125440835952759,-1.806666374206543,0.8090189695358276
1772785877938157800,1.40615771484375,0.95551598072052,-1.8898298740386963,0.8899585604667664
1772785877948173800,1.416173828125,0.8523918986320496,-1.650169014930725,0.982459306716919
1772785877958189800,1.42618994140625,0.9371408820152283,-1.4716607332229614,0.9579398036003113
1772785877968204800,1.436204833984375,1.128914475440979,-1.375614047050476,0.7595106959342957
1772785877978220800,1.446220703125,1.330343246459961,-1.3412377834320068,0.4850066900253296
1772785877988236500,1.456236572265625,1.3353873491287231,-1.1942219734191895,0.31097039580345154
1772785877998252800,1.466252685546875,1.1120338439941406,-0.9489685297012329,0.21734696626663208
1772785878008267800,1.476267822265625,0.7843874096870422,-0.6323290467262268,0.0739581361413002
1772785878018283800,1.48628369140625,0.49065643548965454,-0.43707218766212463,-0.15098656713962555
1772785878028299800,1.4962998046875,0.2973553538322449,-0.406265527009964,-0.3911508023738861
1772785878038314800,1.506314697265625,0.12770108878612518,-0.4620515704154968,-0.6166051626205444
1772785878048330800,1.516330810546875,-0.08424412459135056,-0.49676424264907837,-0.7996171712875366
1772785878058346800,1.5263466796875,-0.3178268074989319,-0.409292995929718,-0.8567898869514465
1772785878068361700,1.53636181640625,-0.5274646282196045,-0.17156748473644257,-0.7118775248527527
1772785878078377700,1.546377685546875,-0.6270537972450256,0.192765474319458,-0.44257232546806335
1772785878088393700,1.556393798828125,-0.5938287973403931,0.5078306198120117,-0.21051743626594543
1772785878098408700,1.56640869140625,-0.4452483355998993,0.5005178451538086,-0.1685635894536972
1772785878108424700,1.5764248046875,-0.25533032417297363,0.20802703499794006,-0.30033570528030396
1772785878118441000,1.58644091796875,-0.08604463189840317,-0.15922154486179352,-0.4457041025161743
1772785878128456000,1.5964560546875,-0.011361251585185528,-0.49367496371269226,-0.4702528417110443
1772785878138472000,1.606471923828125,-0.10139793157577515,-0.6721698641777039,-0.34944918751716614
1772785878148487700,1.61648779296875,-0.24701684713363647,-0.6268303394317627,-0.08466427028179169
1772785878158503000,1.6265029296875,-0.30267560482025146,-0.7639496326446533,0.20127427577972412
1772785878168518700,1.6365185546875,-0.08715905249118805,-1.5612797737121582,0.3978250324726105
1772785878178534700,1.64653466796875,0.38254907727241516,-2.8916563987731934,0.5427936315536499
1772785878188549600,1.656549560546875,0.8737470507621765,-4.442503929138184,0.8074495792388916
1772785878198565600,1.666565673828125,0.9663019776344299,-5.119319915771484,1.2606159448623657
1772785878208581600,1.67658154296875,0.9460422396659851,-4.659674167633057,1.9551641941070557
1772785878218596600,1.6865966796875,1.118901014328003,-4.25457239151001,2.9847264289855957
1772785878228612600,1.696612548828125,0.8383334875106812,-2.886695146560669,2.606163263320923
1772785878238628900,1.70662890625,-0.055230796337127686,-0.7605351805686951,-0.06248018518090248
1772785878248643800,1.716643798828125,-0.5547376871109009,1.0691417455673218,-2.209712028503418
1772785878258660000,1.72666015625,-0.9892275929450989,1.2800332307815552,-2.6385836601257324
1772785878268676000,1.736676025390625,-1.764744520187378,0.7662447690963745,-1.5743414163589478
1772785878278691000,1.746691162109375,-2.319392204284668,0.24493977427482605,-0.5751808881759644
1772785878288707000,1.75670703125,-2.443532943725586,-0.2039031684398651,-0.6337490081787109
1772785878298723000,1.76672314453125,-2.0294554233551025,-0.44452589750289917,-1.0472947359085083
1772785878308738000,1.776738037109375,-0.9590501189231873,-0.687372088432312,-1.1119259595870972
1772785878318754000,1.786754150390625,0.672371506690979,-0.6594815850257874,-0.476689875125885
1772785878328770000,1.79677001953125,1.935835361480713,-0.0004751835949718952,0.17900249361991882
1772785878338785000,1.806784912109375,2.3262298107147217,0.4397487938404083,0.6479443907737732
1772785878348801000,1.816801025390625,1.9877873659133911,0.739956796169281,0.8874056935310364
1772785878358816800,1.826816650390625,0.3224826455116272,0.925853431224823,0.6335742473602295
1772785878368832000,1.83683203125,-1.4036880731582642,1.3116888999938965,0.059362974017858505
1772785878378848000,1.846847900390625,-2.484508991241455,1.564271092414856,-0.5690988302230835
1772785878388864000,1.856864013671875,-2.9030656814575195,2.072124481201172,-1.1165034770965576
1772785878398879000,1.86687890625,-2.783761739730835,2.8156495094299316,-1.31401526927948
1772785878408895000,1.87689501953125,-2.388387680053711,3.5398685932159424,-0.909078061580658
1772785878418911000,1.886910888671875,-1.8443814516067505,4.190896034240723,-0.20012620091438293
1772785878428926000,1.896926025390625,-1.2782185077667236,4.559566020965576,0.29896819591522217
1772785878438942000,1.90694189453125,-0.8270255327224731,4.489593029022217,0.3815879821777344
1772785878448958000,1.9169580078125,-0.5377549529075623,3.928013563156128,0.1200992614030838
1772785878458973000,1.926972900390625,-0.39672860503196716,2.8967912197113037,-0.3141944110393524
1772785878468989000,1.936989013671875,-0.34549009799957275,1.6138578653335571,-0.6325724124908447
1772785878479005000,1.9470048828125,-0.33643054962158203,0.4930042624473572,-0.6396836042404175
1772785878489020000,1.95702001953125,-0.33839648962020874,-0.3240884244441986,-0.31384924054145813
1772785878499036200,1.9670361328125,-0.24456720054149628,-0.8519498705863953,0.24071118235588074
1772785878509052200,1.97705224609375,-0.05559857189655304,-1.053592562675476,0.8305971026420593
1772785878519067100,1.987067138671875,0.1837540864944458,-1.0495598316192627,1.2686668634414673
1772785878529083100,1.997083251953125,0.42743709683418274,-0.9454298615455627,1.3989604711532593
1772785878539099000,2.007098876953125,0.5868064761161804,-0.8482668399810791,1.1809325218200684
1772785878549114000,2.017114013671875,0.6781150698661804,-0.7492523193359375,0.7693573832511902
1772785878559129900,2.0271298828125,0.6978738903999329,-0.7952520251274109,0.3334980309009552
1772785878569145900,2.037145751953125,0.6768178343772888,-0.9599939584732056,-0.005765811540186405
1772785878579160800,2.047160888671875,0.6161768436431885,-1.1365476846694946,-0.09872185438871384
1772785878589176800,2.0571767578125,0.5311481952667236,-1.0663021802902222,-0.041701264679431915
1772785878599192800,2.06719287109375,0.474893182516098,-0.7487621307373047,0.047836072742938995
1772785878609209000,2.077208984375,0.5554683804512024,-0.35317710041999817,0.10468299686908722
1772785878619224000,2.08722412109375,0.6786864995956421,0.003190871560946107,0.05944788083434105
1772785878629240000,2.097239990234375,0.7285236120223999,0.16459637880325317,-0.09472239762544632
1772785878639256000,2.107256103515625,0.696025013923645,0.2220546156167984,-0.26849499344825745
1772785878649271000,2.11727099609375,0.6599667072296143,0.22013729810714722,-0.3108518123626709
1772785878659287000,2.127287109375,0.6474378705024719,0.1442318856716156,-0.2462933510541916
1772785878669303000,2.137302978515625,0.6415513157844543,-0.045715656131505966,-0.14498010277748108
1772785878679318000,2.147318115234375,0.6481820344924927,-0.2604956030845642,-0.02643321454524994
1772785878689334000,2.157333984375,0.6550359129905701,-0.38715362548828125,0.09654995054006577
1772785878699349800,2.167349853515625,0.6618232727050781,-0.3966912031173706,0.16708935797214508
1772785878709365000,2.177364990234375,0.6471720337867737,-0.3147222399711609,0.14561466872692108
1772785878719380700,2.187380615234375,0.6362858414649963,-0.11904434859752655,0.04797597974538803
1772785878729397000,2.19739697265625,0.6195829510688782,0.07137513905763626,-0.13281521201133728
1772785878739412000,2.207411865234375,0.5906351804733276,0.24781888723373413,-0.35838332772254944
1772785878749428000,2.217427978515625,0.47789812088012695,0.3845798671245575,-0.532275378704071
1772785878759444000,2.22744384765625,0.3431336581707001,0.3415658175945282,-0.6029239892959595
1772785878769459000,2.237458984375,0.23059071600437164,-0.21494218707084656,-0.5701495409011841
1772785878779475000,2.247474853515625,0.21996550261974335,-1.1295055150985718,-0.4400070011615753
1772785878789491000,2.257490966796875,0.3344925343990326,-2.0881807804107666,0.03747403994202614
1772785878799506000,2.267505859375,0.7841811180114746,-2.4383530616760254,0.8750096559524536
1772785878809522000,2.27752197265625,1.408318042755127,-2.287546157836914,1.4528921842575073
1772785878819538000,2.287537841796875,0.7130637168884277,-0.8752778768539429,-0.13718168437480927
1772785878829553000,2.297552978515625,0.35751771926879883,-0.2854750156402588,-1.898170828819275
1772785878839569000,2.30756884765625,0.10087820142507553,-0.2903033196926117,-2.549377918243408
1772785878849585200,2.317585205078125,-0.3093984127044678,-0.9296587109565735,-1.9301526546478271
1772785878859600100,2.32760009765625,-0.6676028370857239,-1.556347131729126,-0.749004602432251
1772785878869616000,2.3376162109375,-0.6364030838012695,-1.9442510604858398,-0.2537955641746521
1772785878879632000,2.3476318359375,-0.35695680975914,-2.0270307064056396,-0.36857885122299194
1772785878889647000,2.357647216796875,0.12885695695877075,-1.3818271160125732,-0.48045775294303894
1772785878899662800,2.367662841796875,0.7092779874801636,-0.22031304240226746,-0.3921145796775818
1772785878909678800,2.377678955078125,1.2046666145324707,0.8709692358970642,-0.17641974985599518
1772785878919693800,2.38769384765625,1.2097841501235962,1.6071830987930298,0.0476389080286026
1772785878929709800,2.397709716796875,0.6014575958251953,2.0647547245025635,0.25688520073890686
1772785878939725800,2.407725830078125,-0.41395989060401917,2.4670827388763428,0.3706445097923279
1772785878949740800,2.41774072265625,-1.576337456703186,2.6083922386169434,0.39758849143981934
1772785878959757000,2.427757080078125,-2.4261441230773926,2.7139925956726074,0.37463682889938354
1772785878969773000,2.43777294921875,-2.8790037631988525,2.869311809539795,0.23004300892353058
1772785878979788000,2.4477880859375,-2.9128661155700684,3.0239813327789307,-0.17650504410266876
1772785878989804000,2.457803955078125,-2.566439628601074,3.344047784805298,-0.8651320934295654
1772785878999820000,2.467820068359375,-2.1601386070251465,3.707288980484009,-1.4006210565567017
1772785879009835000,2.4778349609375,-1.7948440313339233,4.029773712158203,-1.506735920906067
1772785879019851000,2.48785107421875,-1.4271961450576782,4.286976337432861,-1.289683222770691
1772785879029867000,2.497866943359375,-1.035215139389038,4.178143501281738,-0.9517922401428223
1772785879039882000,2.507882080078125,-0.7205184698104858,3.567185640335083,-0.687390923500061
1772785879049898000,2.51789794921875,-0.5468974709510803,2.564962148666382,-0.3445803225040436
1772785879059914000,2.5279140625,-0.48074108362197876,1.4103262424468994,0.19030706584453583
1772785879069929000,2.537928955078125,-0.4269101321697235,0.16593408584594727,0.8784193396568298
1772785879079945000,2.547945068359375,-0.2987724244594574,-0.8337841033935547,1.519574522972107
1772785879089961000,2.5579609375,-0.053229156881570816,-1.3349840641021729,1.9072613716125488
1772785879099977000,2.56797705078125,0.2928584814071655,-1.5477441549301147,1.954986572265625
1772785879109992000,2.577991943359375,0.6631840467453003,-1.6297959089279175,1.7036325931549072
1772785879120008000,2.588008056640625,1.0142154693603516,-1.693790078163147,1.264528751373291
1772785879130024000,2.59802392578125,1.336812973022461,-1.7452865839004517,0.7896374464035034
1772785879140039000,2.608038818359375,1.5880526304244995,-1.6831376552581787,0.3313111960887909
1772785879150055000,2.618054931640625,1.6930402517318726,-1.518429160118103,-0.059592850506305695
1772785879160071000,2.62807080078125,1.5969188213348389,-1.2272825241088867,-0.3548862934112549
1772785879170086000,2.6380859375,1.3758574724197388,-0.8545076251029968,-0.5502660870552063
1772785879180102000,2.648101806640625,1.15422785282135,-0.30935028195381165,-0.7246317863464355
1772785879190118100,2.6581181640625,1.0966304540634155,0.4446190595626831,-1.0358543395996094
1772785879200133000,2.668133056640625,1.0837913751602173,0.6285406947135925,-1.2893397808074951
1772785879210149000,2.678149169921875,1.0878517627716064,0.6719731092453003,-1.1613621711730957
1772785879220165000,2.6881650390625,1.1687763929367065,0.8900687098503113,-0.869268536567688
1772785879230180000,2.69818017578125,1.2102738618850708,0.9173210859298706,-0.6980146169662476
1772785879240195600,2.708195556640625,1.1498602628707886,0.7073960900306702,-0.7340397834777832
1772785879250211600,2.718211669921875,1.0109506845474243,0.41072699427604675,-0.7628819346427917
1772785879260226600,2.7282265625,0.8777779340744019,0.22112137079238892,-0.6408524513244629
1772785879270242600,2.73824267578125,0.7886806726455688,0.10685547441244125,-0.36677831411361694
1772785879280258300,2.74825830078125,0.772979199886322,0.034770093858242035,-0.00408613495528698
1772785879290273500,2.7582734375,0.8180103898048401,-0.06263193488121033,0.30772432684898376
1772785879300289300,2.768289306640625,0.8680157661437988,-0.19487519562244415,0.5120598673820496
1772785879310305300,2.77830517578125,0.7876845002174377,-0.41793522238731384,0.6207829117774963
1772785879320320300,2.7883203125,0.6281686425209045,-0.9400564432144165,0.6870229244232178
1772785879330336500,2.79833642578125,0.5778049230575562,-1.8597679138183594,0.7935614585876465
1772785879340352500,2.8083525390625,0.7323271036148071,-3.19801926612854,0.9573115110397339
1772785879350367500,2.818367431640625,0.8154792189598083,-4.0826592445373535,1.1901558637619019
1772785879360383500,2.828383544921875,0.5870258212089539,-3.627547025680542,1.5990121364593506
1772785879370399500,2.8383994140625,0.293785959482193,-2.6247408390045166,1.908963918685913
1772785879380414500,2.84841455078125,0.24844245612621307,-1.8853673934936523,1.6033464670181274
1772785879390430500,2.858430419921875,0.04823147878050804,-0.34064045548439026,0.255921870470047
1772785879400446500,2.868446533203125,-0.5927066802978516,0.8646016120910645,-1.731088399887085
1772785879410461400,2.87846142578125,-0.9914305806159973,1.1612331867218018,-2.371211051940918
1772785879420477400,2.8884775390625,-1.3537914752960205,0.8447466492652893,-1.844575047492981
1772785879430493400,2.898493408203125,-1.7252025604248047,0.004672440700232983,-0.9760986566543579
1772785879440508400,2.90850830078125,-1.790827989578247,-0.7150599360466003,-0.13859117031097412
1772785879450524700,2.918524658203125,-1.612367868423462,-1.3065385818481445,0.39410871267318726
1772785879460540400,2.92854052734375,-1.4046887159347534,-1.8748035430908203,0.5917709469795227
1772785879470555600,2.9385556640625,-1.0691313743591309,-2.3762636184692383,0.4156467616558075
1772785879480571400,2.9485712890625,-0.5730872750282288,-2.5561563968658447,0.03728668764233589
1772785879490587400,2.95858740234375,-0.10533703863620758,-2.3998069763183594,-0.2265784740447998
1772785879500602400,2.968602294921875,0.2973582148551941,-1.9188220500946045,-0.3400467038154602
1772785879510618400,2.978618408203125,0.5721213817596436,-1.2609068155288696,-0.4470287263393402
1772785879520634400,2.98863427734375,0.45334115624427795,0.11613128334283829,-0.6298180222511292
1772785879530649300,2.9986494140625,-0.34862786531448364,1.6240112781524658,-0.8515153527259827
1772785879540665300,3.008665283203125,-1.48788321018219,2.665011405944824,-0.9740902781486511
1772785879550681600,3.018681640625,-2.206181526184082,3.2683675289154053,-0.9987509250640869
1772785879560696300,3.0286962890625,-2.500356912612915,3.4836103916168213,-1.0700764656066895
1772785879570712600,3.038712646484375,-2.5321784019470215,3.519382953643799,-1.0770593881607056
1772785879580728600,3.048728515625,-2.4188878536224365,3.5108113288879395,-0.887869119644165
1772785879590744600,3.05874462890625,-2.0842044353485107,3.4545724391937256,-0.6206842064857483
1772785879600759600,3.068759521484375,-1.562093734741211,3.2562105655670166,-0.4308253228664398
1772785879610775600,3.078775634765625,-1.02625572681427,3.0644783973693848,-0.2999512255191803
1772785879620791600,3.08879150390625,-0.5603497624397278,2.8698320388793945,-0.09986633062362671
1772785879630806500,3.098806640625,-0.20253188908100128,2.528337240219116,0.10740558058023453
1772785879640822500,3.108822509765625,0.05135604739189148,2.0245702266693115,0.2488095909357071
1772785879650838300,3.11883837890625,0.1985487937927246,1.4054957628250122,0.34648236632347107
1772785879660853500,3.128853515625,0.27796104550361633,0.7121479511260986,0.3991418480873108
1772785879670869500,3.138869384765625,0.35165199637413025,-0.028816381469368935,0.4257325232028961
1772785879680885500,3.148885498046875,0.480746328830719,-0.7064220309257507,0.3742259442806244
1772785879690900500,3.158900390625,0.7270760536193848,-1.1397480964660645,0.3174603581428528
1772785879700916500,3.16891650390625,1.0148985385894775,-1.3321641683578491,0.33654165267944336
1772785879710932500,3.178932373046875,1.2569503784179688,-1.3899697065353394,0.41387614607810974
1772785879720947500,3.188947509765625,1.4201220273971558,-1.4419894218444824,0.5816465020179749
1772785879730963500,3.19896337890625,1.5200350284576416,-1.4845774173736572,0.7983015179634094
1772785879740979500,3.2089794921875,1.5288026332855225,-1.5336557626724243,1.0286754369735718
1772785879750994400,3.218994384765625,1.4401854276657104,-1.5786617994308472,1.178779125213623
1772785879761010400,3.229010498046875,1.2320570945739746,-1.5703045129776,1.1339293718338013
1772785879771026400,3.2390263671875,0.898770272731781,-1.5277385711669922,0.8672608733177185
1772785879781041400,3.24904150390625,0.5295853018760681,-1.417372703552246,0.4211864173412323
1772785879791057700,3.2590576171875,0.2616863548755646,-1.3285425901412964,-0.11099325120449066
1772785879801073700,3.26907373046875,0.21685203909873962,-1.2816795110702515,-0.5638326406478882
1772785879811088600,3.279088623046875,0.36038950085639954,-1.2341430187225342,-0.8189536929130554
1772785879821104600,3.289104736328125,0.5085352659225464,-1.1445204019546509,-0.8728308081626892
1772785879831120400,3.299120361328125,0.512482762336731,-0.8895398378372192,-0.8406763076782227
1772785879841135600,3.309135498046875,0.39364874362945557,-0.591362714767456,-0.794617772102356
1772785879851151400,3.3191513671875,0.2425014078617096,-0.3428831696510315,-0.7997145056724548
1772785879861167400,3.32916748046875,0.13234640657901764,-0.18803554773330688,-0.8565926551818848
1772785879871182300,3.339182373046875,0.08623363077640533,-0.14565111696720123,-0.9471885561943054
1772785879881198300,3.3491982421875,0.096765898168087,-0.19586396217346191,-0.9919506907463074
1772785879891214300,3.35921435546875,0.10342306643724442,-0.1974954605102539,-0.9054833650588989
1772785879901229300,3.369229248046875,0.06481707841157913,-0.1544414758682251,-0.5943406820297241
1772785879911245600,3.37924560546875,-0.11224877089262009,-0.2340196967124939,-0.027447804808616638
1772785879921261600,3.389261474609375,-0.3640080392360687,-0.6266668438911438,0.5974336862564087
1772785879931276500,3.399276611328125,-0.700019121170044,-1.3059965372085571,1.1068615913391113
1772785879941292500,3.40929248046875,-1.0856873989105225,-1.9285777807235718,1.4279407262802124
1772785879951308500,3.41930859375,-1.4260507822036743,-2.1741364002227783,1.5054540634155273
1772785879961323500,3.429323486328125,-1.615864872932434,-1.9110417366027832,1.474100947380066
1772785879971339500,3.439339599609375,-1.523098349571228,-1.6871626377105713,1.3032500743865967
1772785879981355500,3.44935546875,-1.416117548942566,-0.5525915026664734,0.4354562759399414
1772785879991370500,3.45937060546875,-1.464145541191101,0.4334622323513031,-1.157572865486145
1772785880001386500,3.469386474609375,-1.345046043395996,1.1576719284057617,-1.7625173330307007
1772785880011402500,3.479402587890625,-0.8687559962272644,1.252623200416565,-1.0650510787963867
1772785880021418500,3.48941845703125,-0.6813077926635742,0.8511378765106201,-0.04688393324613571
1772785880031433500,3.49943359375,-0.38827672600746155,0.33267590403556824,0.45113152265548706
1772785880041449500,3.509449462890625,-0.2757627069950104,-0.2537207305431366,0.26990899443626404
1772785880051465500,3.519465576171875,-0.24722282588481903,-0.7349642515182495,0.018378539010882378
1772785880061480400,3.52948046875,-0.1682441234588623,-1.1658233404159546,-0.1218416839838028
1772785880071496400,3.539496337890625,0.11184777319431305,-1.3991082906723022,-0.19681186974048615
1772785880081512400,3.549512451171875,0.440927654504776,-1.410106897354126,-0.18936887383460999
1772785880091527400,3.55952734375,0.7850375175476074,-1.2350635528564453,-0.0735970214009285
1772785880101543400,3.56954345703125,0.9890010356903076,-0.9600565433502197,0.16824623942375183
1772785880111559400,3.579559326171875,0.9692458510398865,-0.4926447570323944,0.5039701461791992
1772785880121574400,3.589574462890625,0.5017894506454468,0.4018503427505493,0.6378089189529419
1772785880131590400,3.59959033203125,-0.21776922047138214,1.531153917312622,0.4029300808906555
1772785880141606700,3.609606689453125,-0.9876216650009155,2.6609952449798584,-0.12380537390708923
1772785880151621600,3.61962158203125,-1.2756633758544922,3.5743496417999268,-0.7986076474189758
1772785880161637600,3.6296376953125,-1.4083596467971802,4.155149459838867,-1.4140409231185913
1772785880171653600,3.639653564453125,-1.549987554550171,4.407130241394043,-1.714829921722412
1772785880181668600,3.649668701171875,-1.8066073656082153,4.303110599517822,-1.5059634447097778
1772785880191684600,3.6596845703125,-1.8173316717147827,4.073688983917236,-0.9501832723617554
1772785880201700400,3.669700439453125,-1.7285877466201782,3.906205654144287,-0.3839542269706726
1772785880211715600,3.679715576171875,-1.4173777103424072,3.86773681640625,0.02045748569071293
1772785880221731300,3.6897314453125,-1.1070911884307861,3.867656946182251,0.22520983219146729
1772785880231747600,3.69974755859375,-0.6538643836975098,3.627706289291382,0.20787504315376282
1772785880241762300,3.70976220703125,-0.31294912099838257,3.0110323429107666,0.04490983486175537
1772785880251778600,3.719778564453125,0.06726837158203125,2.109609365463257,-0.1414920538663864
1772785880261794600,3.729794677734375,0.2367871105670929,1.1465548276901245,-0.24671222269535065
1772785880271809500,3.7398095703125,0.4130561947822571,0.17078742384910583,-0.1808362454175949
1772785880281825500,3.749825439453125,0.48525553941726685,-0.7434302568435669,-0.014769775792956352
1772785880291841500,3.759841552734375,0.6299968361854553,-1.4733214378356934,0.16977310180664062
1772785880301857500,3.769857421875,0.8698000907897949,-1.9485777616500854,0.3418615162372589
1772785880311872500,3.77987255859375,1.204298496246338,-2.0478742122650146,0.5561667680740356
1772785880321888500,3.789888427734375,1.5629833936691284,-1.8383046388626099,0.8755913376808167
1772785880331904500,3.799904541015625,1.8624478578567505,-1.5371780395507812,1.241255283355713
1772785880341919500,3.80991943359375,1.9808470010757446,-1.1960431337356567,1.5361751317977905
1772785880351935700,3.819935791015625,1.919342279434204,-0.8867478966712952,1.6549471616744995
1772785880361951500,3.829951416015625,1.7004791498184204,-0.7024664878845215,1.5737152099609375
1772785880371966700,3.839966796875,1.385343074798584,-0.6469258666038513,1.2883193492889404
1772785880381982500,3.849982421875,1.043379783630371,-0.7029651999473572,0.8949719667434692
1772785880391998500,3.85999853515625,0.7667582631111145,-0.7984998822212219,0.4640638828277588
1772785880402013400,3.870013427734375,0.615129292011261,-0.875222384929657,0.04671857878565788
1772785880412029400,3.880029541015625,0.6167280673980713,-0.838688850402832,-0.27747276425361633
1772785880422045400,3.89004541015625,0.7034273147583008,-0.7385220527648926,-0.389606237411499
1772785880432060400,3.900060302734375,0.789448618888855,-0.5817123055458069,-0.2678552567958832
1772785880442076400,3.910076416015625,0.841240406036377,-0.3562224209308624,0.022840242832899094
1772785880452092400,3.920092529296875,0.8514823913574219,-0.18956315517425537,0.2683895528316498
1772785880462107400,3.930107421875,0.8585480451583862,-0.1289365589618683,0.3592701852321625
1772785880472123600,3.94012353515625,0.8711739182472229,-0.13641540706157684,0.33986252546310425
1772785880482139600,3.9501396484375,0.8481453061103821,-0.128148153424263,0.2701912820339203
1772785880492154600,3.960154541015625,0.7154743075370789,-0.23318874835968018,0.2457512766122818
1772785880502170600,3.970170654296875,0.5369511842727661,-0.5026447176933289,0.2682155966758728
1772785880512186600,3.9801865234375,0.46612313389778137,-0.9355493783950806,0.29131096601486206
1772785880522201600,3.99020166015625,0.6214338541030884,-1.5529489517211914,0.3731967806816101
1772785880532217600,4.000217529296875,0.9578332901000977,-2.192466974258423,0.5641738176345825
1772785880542233300,4.0102333984375,1.555237889289856,-2.721430778503418,0.952670693397522
1772785880552249300,4.020249267578125,2.221355676651001,-2.8779444694519043,1.3613728284835815
1772785880562264300,4.030264404296875,1.9881958961486816,-1.5508428812026978,0.35435569286346436
1772785880572280300,4.0402802734375,1.6051409244537354,-0.5988860726356506,-1.2949740886688232
1772785880582296600,4.050296630859375,1.3665608167648315,0.12034770846366882,-2.228607654571533
1772785880592311600,4.0603115234375,0.8696874380111694,0.26987355947494507,-1.9929860830307007
1772785880602327600,4.07032763671875,0.17456458508968353,0.35275834798812866,-0.9226414561271667
1772785880612343600,4.080343505859375,-0.4355781674385071,0.06162460893392563,0.13860949873924255
1772785880622358500,4.090358642578125,-0.7287977933883667,-0.2164275050163269,0.6125221848487854
1772785880632374500,4.10037451171875,-0.915028989315033,-0.44483891129493713,0.4873409569263458
1772785880642390500,4.110390625,-0.9451692700386047,-0.44387057423591614,0.12032858282327652
1772785880652405500,4.120405517578125,-0.7765228152275085,-0.3141532242298126,-0.4155138432979584
1772785880662421500,4.13042138671875,-0.4580138325691223,-0.11955153197050095,-0.923058271408081
1772785880672437500,4.1404375,-0.2509559690952301,0.011767987161874771,-1.1555613279342651
1772785880682452500,4.150452392578125,-0.13351349532604218,0.0892057865858078,-1.0526810884475708
1772785880692468500,4.160468505859375,0.02215886302292347,0.24328283965587616,-0.9134148359298706
1772785880702484500,4.170484375,0.049087148159742355,0.4790911078453064,-0.8519392013549805
1772785880712499700,4.180499755859375,-0.04406765103340149,0.6555877923965454,-0.7180064916610718
1772785880722515500,4.190515380859375,-0.09116805344820023,0.8212950229644775,-0.45600441098213196
1772785880732531500,4.200531494140625,-0.12346793711185455,1.096110224723816,-0.21853601932525635
1772785880742546400,4.21054638671875,-0.21345561742782593,1.4457443952560425,-0.14331850409507751
1772785880752562400,4.2205625,-0.4656248986721039,1.7034839391708374,-0.24009346961975098
1772785880762578400,4.230578369140625,-0.863609790802002,1.8810291290283203,-0.4081876873970032
1772785880772594400,4.240594482421875,-1.1848069429397583,2.2237637042999268,-0.5196398496627808
1772785880782609400,4.250609375,-1.3782024383544922,2.559734344482422,-0.6022404432296753
1772785880792625400,4.26062548828125,-1.4250094890594482,2.806593656539917,-0.6284084320068359
1772785880802641700,4.2706416015625,-1.3620787858963013,2.9666314125061035,-0.6093758344650269
1772785880812656400,4.280656494140625,-1.213517189025879,2.84098219871521,-0.5963845252990723
1772785880822672600,4.290672607421875,-1.0175340175628662,2.265320301055908,-0.6374070644378662
1772785880832688600,4.300688720703125,-0.7605396509170532,1.5134766101837158,-0.6586809754371643
1772785880842703600,4.31070361328125,-0.4379744231700897,0.8225201368331909,-0.5774609446525574
1772785880852719600,4.3207197265625,-0.03667619824409485,0.20726484060287476,-0.36979687213897705
1772785880862735600,4.330735595703125,0.41901302337646484,-0.2608102262020111,-0.1294947862625122
1772785880872750600,4.34075048828125,0.8289417028427124,-0.6143041253089905,0.09572847187519073
1772785880882766600,4.3507666015625,1.111350417137146,-0.9204121232032776,0.2844160795211792
1772785880892782300,4.3607822265625,1.2219738960266113,-1.2169277667999268,0.43909159302711487
1772785880902797600,4.370797607421875,1.1939008235931396,-1.546868920326233,0.5558991432189941
1772785880912813300,4.380813232421875,1.0913563966751099,-1.8749207258224487,0.6331151723861694
1772785880922829600,4.39082958984375,0.9631065130233765,-2.1335058212280273,0.6670896410942078
1772785880932844300,4.40084423828125,0.8290383219718933,-2.259359121322632,0.6540198922157288
1772785880942860500,4.410860595703125,0.6877656579017639,-2.241334915161133,0.648245096206665
1772785880952876500,4.42087646484375,0.5158993005752563,-2.034088373184204,0.6800453662872314
1772785880962891500,4.4308916015625,0.31015652418136597,-1.6308481693267822,0.720661997795105
1772785880972907500,4.440907470703125,0.14382554590702057,-1.1439642906188965,0.7110637426376343
1772785880982923500,4.450923583984375,0.06854357570409775,-0.7447084188461304,0.6137944459915161
1772785880992938500,4.4609384765625,0.12460028380155563,-0.5419778823852539,0.43165871500968933
1772785881002954500,4.47095458984375,0.2329683005809784,-0.42755353450775146,0.22266235947608948
1772785881012970500,4.480970458984375,0.3027000427246094,-0.3737940788269043,0.02433890290558338
1772785881022986500,4.490986572265625,0.3040425479412079,-0.3436151444911957,-0.1587853878736496
1772785881033001500,4.50100146484375,0.24094901978969574,-0.3607032597064972,-0.3633917272090912
1772785881043017700,4.511017822265625,0.14429810643196106,-0.3774758577346802,-0.5780187845230103
1772785881053033500,4.521033447265625,0.04456119239330292,-0.40525832772254944,-0.7178953289985657
1772785881063048700,4.531048583984375,-0.04973628371953964,-0.44796743988990784,-0.7231361865997314
1772785881073064400,4.541064453125,-0.15727466344833374,-0.4525679051876068,-0.6101122498512268
1772785881083080400,4.55108056640625,-0.23432764410972595,-0.3830210566520691,-0.42263421416282654
1772785881093095400,4.561095458984375,-0.29859521985054016,-0.40488529205322266,-0.2663407027721405
1772785881103111400,4.571111328125,-0.37812864780426025,-0.8127862215042114,-0.19375494122505188
1772785881113127400,4.58112744140625,-0.4885805547237396,-1.5824543237686157,-0.11595439165830612
1772785881123142400,4.591142333984375,-0.5791663527488708,-2.3231966495513916,0.11020923405885696
1772785881133158400,4.601158447265625,-0.5104663968086243,-2.9114418029785156,0.56423419713974
1772785881143174400,4.61117431640625,-0.25238507986068726,-2.808685302734375,1.2010607719421387
1772785881153189400,4.621189453125,0.2495114505290985,-2.1111929416656494,1.5717946290969849
1772785881163205600,4.63120556640625,0.3008241653442383,-1.1424994468688965,0.9727445840835571
1772785881173221600,4.6412216796875,0.13926897943019867,-0.18874846398830414,-0.7280495166778564
1772785881183236600,4.651236572265625,-0.020169952884316444,0.1305757313966751,-2.2443506717681885
1772785881193252600,4.661252685546875,-0.21984775364398956,0.036778707057237625,-2.592764377593994
1772785881203268600,4.6712685546875,-0.452130526304245,0.07348931580781937,-1.8749295473098755
1772785881213284600,4.68128466796875,-0.6504090428352356,0.32925906777381897,-0.8515321612358093
1772785881223299600,4.691299560546875,-0.6483104228973389,0.6554747223854065,-0.3117527961730957
1772785881233315800,4.70131591796875,-0.5669117569923401,0.5773137807846069,-0.27769601345062256
1772785881243331800,4.711331787109375,-0.3578069508075714,-0.05652738735079765,-0.3455195426940918
1772785881253346800,4.721346923828125,-0.0612124465405941,-1.0643196105957031,-0.25297269225120544
1772785881263362800,4.73136279296875,0.29028913378715515,-1.814499855041504,0.02095392718911171
1772785881273379000,4.741379150390625,0.6721276640892029,-1.8612583875656128,0.33409810066223145
1772785881283393800,4.751393798828125,0.7234422564506531,-1.450366735458374,0.37801921367645264
1772785881293410000,4.76141015625,0.16081947088241577,-0.8217093348503113,-0.014059923589229584
1772785881303426000,4.771426025390625,-0.7975219488143921,-0.20406979322433472,-0.6096873879432678
1772785881313441000,4.78144091796875,-1.6363160610198975,0.3480243682861328,-1.0089553594589233
1772785881323457000,4.79145703125,-2.254552125930786,0.9216780662536621,-1.1011757850646973
1772785881333473000,4.80147314453125,-2.5202507972717285,1.450911283493042,-1.0203605890274048
1772785881343488000,4.811488037109375,-2.334665060043335,2.0147202014923096,-0.9038869738578796
1772785881353504000,4.82150390625,-1.9893985986709595,2.4956936836242676,-0.6961604952812195
1772785881363520000,4.83152001953125,-1.7264423370361328,2.8947982788085938,-0.2944389283657074
1772785881373535700,4.84153564453125,-1.463407278060913,3.171698808670044,0.17810478806495667
1772785881383551000,4.851551025390625,-1.117078185081482,3.3383474349975586,0.5212416648864746
1772785881393567000,4.86156689453125,-0.6877103447914124,3.361583709716797,0.5941027998924255
1772785881403583000,4.8715830078125,-0.28323933482170105,3.241359233856201,0.41133004426956177
1772785881413598000,4.881597900390625,-0.02408083714544773,2.992408514022827,0.094987653195858
1772785881423614000,4.891614013671875,0.0446404367685318,2.660165548324585,-0.20500598847866058
1772785881433630000,4.9016298828125,-0.00005631381645798683,2.259875535964966,-0.42993104457855225
1772785881443645000,4.91164501953125,-0.09731016308069229,1.7973833084106445,-0.5471479296684265
1772785881453661000,4.921660888671875,-0.1643534153699875,1.2621201276779175,-0.5177764296531677
1772785881463677000,4.931677001953125,-0.10385757684707642,0.7580676674842834,-0.341117262840271
1772785881473692000,4.94169189453125,0.09806341677904129,0.3251255452632904,-0.08651477098464966
1772785881483708000,4.9517080078125,0.4193732440471649,-0.0847969725728035,0.15107914805412292
1772785881493724000,4.961723876953125,0.8616957664489746,-0.4055923521518707,0.2933768332004547
1772785881503739000,4.97173876953125,1.2978699207305908,-0.6014595627784729,0.35844290256500244
1772785881513755100,4.981755126953125,1.6618282794952393,-0.7507186532020569,0.3984786868095398
1772785881523771100,4.991771240234375,1.8674964904785156,-0.9556997418403625,0.5091245174407959
1772785881533787100,5.001787109375,1.923516869544983,-1.1966323852539062,0.691158652305603
1772785881543802000,5.011802001953125,1.8881529569625854,-1.4007537364959717,0.8715446591377258
1772785881553818000,5.021818115234375,1.7749757766723633,-1.5003677606582642,0.9928304553031921
1772785881563833900,5.031833740234375,1.602837324142456,-1.4642877578735352,1.0184823274612427
1772785881573849000,5.04184912109375,1.3997399806976318,-1.235844373703003,0.9241469502449036
1772785881583864800,5.05186474609375,1.1685949563980103,-0.842069685459137,0.7290088534355164
1772785881593880800,5.061880859375,0.9532067179679871,-0.39853382110595703,0.4492157995700836
1772785881603895800,5.071895751953125,0.7761160731315613,-0.005454983562231064,0.09186432510614395
1772785881613911800,5.081911865234375,0.6706986427307129,0.20240886509418488,-0.27129727602005005
1772785881623928000,5.091927978515625,0.5975890159606934,0.28218570351600647,-0.584450900554657
1772785881633943000,5.101943115234375,0.5169143080711365,0.3183024823665619,-0.8348394632339478
1772785881643959000,5.111958984375,0.43606337904930115,0.2883419394493103,-0.9955423474311829
1772785881653975000,5.12197509765625,0.3726736605167389,0.2232528030872345,-1.009895920753479
1772785881663991000,5.131990966796875,0.31418663263320923,0.19248849153518677,-0.8493245840072632
1772785881674006000,5.142006103515625,0.2746228277683258,0.17012432217597961,-0.5724002122879028
1772785881684022000,5.15202197265625,0.24545028805732727,0.057664625346660614,-0.2972152531147003
1772785881694038000,5.1620380859375,0.16736853122711182,-0.14128682017326355,-0.03655384108424187
1772785881704053000,5.172052978515625,0.06003115326166153,-0.3711301386356354,0.2334696501493454
1772785881714069000,5.182069091796875,-0.13695529103279114,-0.6635964512825012,0.4782291054725647
1772785881724084700,5.192084716796875,-0.5456940531730652,-1.1441324949264526,0.6659092903137207
1772785881734100000,5.202099853515625,-1.0140455961227417,-1.7641912698745728,0.7576332688331604
1772785881744116000,5.212115966796875,-1.1445045471191406,-2.4248616695404053,0.8058032393455505
1772785881754132000,5.222132080078125,-1.1102873086929321,-2.8036391735076904,0.811928391456604
1772785881764147000,5.23214697265625,-0.7104856371879578,-2.391784429550171,0.8094130158424377
1772785881774163000,5.242162841796875,0.34793856739997864,-1.5378719568252563,0.7177345156669617
1772785881784179000,5.252178955078125,0.33923906087875366,0.4271976053714752,-0.8742219805717468
1772785881794195000,5.26219482421875,-0.23318669199943542,2.228562593460083,-2.2065751552581787
1772785881804210000,5.2722099609375,-0.2316061109304428,2.615463972091675,-2.1474721431732178
1772785881814226000,5.282225830078125,-0.04071318358182907,1.9574326276779175,-1.1965172290802002
1772785881824242000,5.292241943359375,0.24183115363121033,0.9010669589042664,-0.05036744102835655
1772785881834257000,5.3022568359375,0.4505508244037628,-0.12767910957336426,0.5975227355957031
1772785881844273200,5.312273193359375,0.3156561255455017,-0.9011135697364807,0.5674886703491211
1772785881854289200,5.3222890625,0.12484964728355408,-1.4273126125335693,0.3515835404396057
1772785881864304000,5.33230419921875,0.12984973192214966,-1.7538774013519287,0.04941382631659508
1772785881874320100,5.342320068359375,0.31168845295906067,-1.8814960718154907,-0.24132144451141357
1772785881884335900,5.3523359375,0.30320867896080017,-1.623555064201355,-0.5397339463233948
1772785881894351000,5.36235107421875,0.044247593730688095,-0.961330771446228,-1.0007354021072388
1772785881904366800,5.372366943359375,-0.11112069338560104,-0.43982845544815063,-1.5868492126464844
1772785881914382800,5.3823828125,-0.1686590611934662,-0.09570470452308655,-2.003450393676758
1772785881924398800,5.39239892578125,-0.34260502457618713,0.12247610092163086,-1.9468079805374146
1772785881934413800,5.402413818359375,-0.5670756697654724,0.36325958371162415,-1.5218526124954224
1772785881944429800,5.412429931640625,-0.8109959363937378,0.6737250089645386,-0.9695811867713928
1772785881954446000,5.422446044921875,-1.0157735347747803,1.1395373344421387,-0.4010072946548462
1772785881964461000,5.4324609375,-1.0836350917816162,1.67350172996521,0.08323738723993301
1772785881974477000,5.44247705078125,-1.0304938554763794,2.100203037261963,0.4652479588985443
1772785881984493000,5.4524931640625,-0.8256022930145264,2.3833465576171875,0.63709956407547
1772785881994508000,5.462508056640625,-0.5267536044120789,2.669847011566162,0.6024550199508667
1772785882004524000,5.47252392578125,-0.2579461634159088,3.026068925857544,0.4622017741203308
1772785882014540000,5.4825400390625,-0.13018836081027985,3.488760471343994,0.23046736419200897
1772785882024556000,5.49255615234375,-0.2112690955400467,3.863158702850342,-0.08551535755395889
1772785882034571000,5.502571044921875,-0.44877392053604126,3.93953537940979,-0.42775875329971313
1772785882044587000,5.5125869140625,-0.7653864622116089,3.6292009353637695,-0.7095664739608765
1772785882054602800,5.522602783203125,-1.0786670446395874,3.0006394386291504,-0.8327917456626892
1772785882064618000,5.532617919921875,-1.2781870365142822,2.2907636165618896,-0.6986947059631348
1772785882074634000,5.542634033203125,-1.329060673713684,1.6488786935806274,-0.3710378110408783
1772785882084650000,5.55264990234375,-1.2100822925567627,1.0857163667678833,0.07028499990701675
1772785882094665000,5.5626650390625,-0.9202408194541931,0.5623854994773865,0.45993080735206604
1772785882104681000,5.572680908203125,-0.4599488377571106,0.13472974300384521,0.6376243829727173
1772785882114697000,5.582697021484375,0.11387902498245239,-0.13190817832946777,0.5802646279335022
1772785882124713000,5.592712890625,0.6967613697052002,-0.29953762888908386,0.33437126874923706
1772785882134728000,5.60272802734375,1.1865547895431519,-0.48718878626823425,0.016776418313384056
1772785882144744000,5.612743896484375,1.5029339790344238,-0.7870444655418396,-0.1586204469203949
1772785882154760000,5.622760009765625,1.6842689514160156,-1.0827457904815674,-0.14389142394065857
1772785882164775000,5.63277490234375,1.8339167833328247,-1.2875418663024902,-0.06062956154346466
1772785882174791000,5.642791015625,1.88790762424469,-1.4278968572616577,0.053050924092531204
1772785882184807200,5.65280712890625,1.7808908224105835,-1.4292821884155273,0.16363361477851868
1772785882194823000,5.662822998046875,1.5727285146713257,-1.207589864730835,0.22783689200878143
1772785882204838100,5.672838134765625,1.3171993494033813,-0.712057888507843,0.2583490014076233
1772785882214854000,5.68285400390625,1.1020861864089966,-0.20672369003295898,0.19186469912528992
1772785882224870000,5.692869873046875,0.9420658946037292,0.08056135475635529,0.013606551103293896
1772785882234885000,5.702885009765625,0.8382522463798523,0.1625892072916031,-0.19517077505588531
1772785882244901000,5.712901123046875,0.7739696502685547,0.12280505150556564,-0.3573037385940552
1772785882254917000,5.722917236328125,0.7458108067512512,-0.030679279938340187,-0.39878830313682556
1772785882264932000,5.73293212890625,0.7507928013801575,-0.2793405055999756,-0.3212849795818329
1772785882274948000,5.742947998046875,0.7950396537780762,-0.5265884399414062,-0.21249574422836304
1772785882284964000,5.752964111328125,0.8461710214614868,-0.7176308035850525,-0.16360490024089813
1772785882294980000,5.76297998046875,0.918220043182373,-0.9000288844108582,-0.14815248548984528
1772785882304995000,5.7729951171875,0.9833716154098511,-1.0233583450317383,-0.09634149074554443
1772785882315011000,5.783010986328125,1.001387119293213,-1.0602281093597412,0.04938153922557831
1772785882325027000,5.793027099609375,0.8911791443824768,-1.0370138883590698,0.2586367726325989
1772785882335042000,5.8030419921875,0.668677031993866,-1.2067105770111084,0.40131089091300964
1772785882345058300,5.813058349609375,0.47885438799858093,-1.788874626159668,0.3630066514015198
1772785882355074000,5.823073974609375,0.4884088337421417,-2.589920997619629,0.15175311267375946
1772785882365090000,5.833090087890625,0.8116068243980408,-3.3550543785095215,-0.07416816055774689
1772785882375105000,5.84310498046875,1.7160437107086182,-3.5391926765441895,-0.06790602952241898
1772785882385121000,5.85312109375,2.567018747329712,-2.9801807403564453,0.033848825842142105
1772785882395137000,5.863136962890625,1.221428394317627,-2.061718702316284,-0.4134003221988678
1772785882405152000,5.873152099609375,0.6206335425376892,-0.5618520379066467,-0.646839439868927
1772785882415168000,5.88316796875,0.6529122591018677,0.4170568585395813,-1.2078981399536133
1772785882425184000,5.89318408203125,0.38200536370277405,0.6974868774414062,-1.6029151678085327
1772785882435199000,5.903198974609375,-0.2780516743659973,0.5530394315719604,-0.8544014692306519
1772785882445215000,5.913215087890625,-0.7900965213775635,0.15503908693790436,0.21810780465602875
1772785882455231200,5.923231201171875,-1.0629096031188965,-0.4662282168865204,0.6055319309234619
1772785882465247200,5.933247314453125,-1.2958290576934814,-0.9939314723014832,0.34399908781051636
1772785882475262200,5.94326220703125,-1.4908883571624756,-0.9997860193252563,0.0003140355693176389
1772785882485278200,5.9532783203125,-1.615658164024353,-0.5103321671485901,-0.342255562543869
1772785882495294200,5.963294189453125,-1.5889630317687988,0.003867512568831444,-0.6280446648597717
1772785882505309200,5.97330908203125,-1.4220726490020752,0.4809488356113434,-0.7009979486465454
1772785882515325200,5.9833251953125,-1.2828011512756348,0.9207344055175781,-0.5163296461105347
1772785882525341000,5.9933408203125,-1.3324286937713623,1.4683334827423096,-0.27235081791877747
1772785882535357000,6.00335693359375,-1.6218397617340088,2.02746319770813,-0.02065473608672619
1772785882545372000,6.013371826171875,-1.8938571214675903,2.5162224769592285,0.21529893577098846
1772785882555388200,6.02338818359375,-2.0392887592315674,2.850236177444458,0.3752027451992035
1772785882565404200,6.033404052734375,-2.0942723751068115,3.027939796447754,0.38638588786125183
1772785882575419100,6.043419189453125,-2.1150717735290527,3.052271604537964,0.25123292207717896
1772785882585435100,6.05343505859375,-2.162905693054199,3.066445827484131,0.09122805297374725
1772785882595451100,6.063451171875,-2.132502794265747,3.1016292572021484,0.02516866661608219
1772785882605467100,6.073467041015625,-1.9027129411697388,3.219501256942749,0.08313342928886414
1772785882615482000,6.083482177734375,-1.5052037239074707,3.347482681274414,0.17454789578914642
1772785882625498000,6.093498046875,-0.9984982013702393,3.335469961166382,0.23996418714523315
1772785882635514000,6.10351416015625,-0.4687880277633667,3.136509895324707,0.2528543174266815
1772785882645529000,6.113529052734375,-0.04236719012260437,2.73642897605896,0.24399720132350922
1772785882655545000,6.123545166015625,0.20692051947116852,2.203933000564575,0.24924296140670776
1772785882665561000,6.13356103515625,0.2917347550392151,1.5318158864974976,0.23530371487140656
1772785882675577000,6.1435771484375,0.33387479186058044,0.7163155674934387,0.1475684493780136
1772785882685592000,6.153592041015625,0.38494035601615906,-0.09669239073991776,0.023404162377119064
1772785882695608000,6.163608154296875,0.5222594738006592,-0.8018836379051208,-0.032251082360744476
1772785882705624000,6.1736240234375,0.8071218132972717,-1.2909395694732666,0.017574528232216835
1772785882715639000,6.18363916015625,1.2176153659820557,-1.4770547151565552,0.12507344782352448
1772785882725655000,6.193655029296875,1.636303186416626,-1.518088698387146,0.26243075728416443
1772785882735671000,6.203671142578125,1.9793379306793213,-1.484757423400879,0.4084876775741577
1772785882745687000,6.21368701171875,2.1866841316223145,-1.479290246963501,0.5591815710067749
1772785882755702000,6.223701904296875,2.2458832263946533,-1.597618818283081,0.7121565937995911
1772785882765718000,6.233718017578125,2.201488971710205,-1.7839895486831665,0.8298944234848022
1772785882775734300,6.243734375,2.0644826889038086,-1.9622259140014648,0.881077766418457
1772785882785749200,6.253749267578125,1.7823978662490845,-2.082296371459961,0.8805770874023438
1772785882795765200,6.26376513671875,1.4384478330612183,-2.0358428955078125,0.8878500461578369
1772785882805781200,6.27378125,1.1469624042510986,-1.8561307191848755,0.8840802907943726
1772785882815797000,6.283796875,0.9184458255767822,-1.6355234384536743,0.8756779432296753
1772785882825812200,6.293812255859375,0.7387426495552063,-1.4503532648086548,0.8482010364532471
1772785882835828000,6.303827880859375,0.6248924136161804,-1.3231462240219116,0.7644144296646118
1772785882845844000,6.313843994140625,0.5777190923690796,-1.2436474561691284,0.6273713707923889
1772785882855859000,6.32385888671875,0.5579583048820496,-1.2116026878356934,0.44866883754730225
1772785882865875000,6.333875,0.5143296122550964,-1.1707780361175537,0.23445694148540497
1772785882875891200,6.34389111328125,0.42430922389030457,-1.1278001070022583,0.009436732158064842
1772785882885907200,6.3539072265625,0.2859551012516022,-1.0244065523147583,-0.15500813722610474
1772785882895922200,6.363922119140625,0.1133291944861412,-0.8363076448440552,-0.19464139640331268
1772785882905938200,6.373938232421875,-0.0634559616446495,-0.6275200247764587,-0.16283926367759705
1772785882915954200,6.3839541015625,-0.20663505792617798,-0.4970480501651764,-0.13964708149433136
1772785882925969200,6.39396923828125,-0.24403515458106995,-0.5327426195144653,-0.1305483877658844
1772785882935985200,6.403985107421875,-0.14518125355243683,-0.984664261341095,-0.10967345535755157
1772785882946001200,6.414001220703125,0.1575668901205063,-2.1840882301330566,-0.027064060792326927
1772785882956017000,6.424016845703125,1.1058976650238037,-4.033382892608643,0.3184853792190552
1772785882966032100,6.4340322265625,1.2391010522842407,-4.939791202545166,0.48872050642967224
1772785882976047900,6.4440478515625,0.39616790413856506,-4.140280723571777,0.3424467444419861
1772785882986064100,6.454064208984375,0.6100327968597412,-2.0404295921325684,0.3748299777507782
1772785882996079000,6.4640791015625,1.9509702920913696,-0.2332780510187149,0.15931755304336548
1772785883006095000,6.47409521484375,3.2328968048095703,1.0912834405899048,0.20324160158634186
1772785883016111000,6.484111083984375,3.586395502090454,2.3484301567077637,0.5945326685905457
1772785883026127000,6.494127197265625,3.395841360092163,3.0503885746002197,0.7322210669517517
1772785883036142000,6.50414208984375,2.9308366775512695,2.7601168155670166,0.04194829612970352
1772785883046158000,6.514157958984375,2.1224966049194336,2.0966408252716064,-0.8640090227127075
1772785883056174000,6.524174072265625,1.4727641344070435,0.8942838311195374,-1.4115476608276367
1772785883066189000,6.53418896484375,1.1577411890029907,-0.6617119908332825,-1.3792494535446167
1772785883076205000,6.544205078125,1.0721182823181152,-2.16977858543396,-0.8255451321601868
1772785883086221000,6.554220947265625,0.9843580722808838,-3.2514519691467285,-0.09830109775066376
1772785883096237000,6.564237060546875,0.7591270804405212,-3.649245500564575,0.5778816938400269
1772785883106252300,6.574252197265625,0.3476217985153198,-3.126741409301758,1.0174510478973389
1772785883116268000,6.58426806640625,-0.1670670211315155,-1.9188801050186157,0.98731529712677
1772785883126284000,6.594283935546875,-0.5670290589332581,-0.5661652088165283,0.52699214220047
1772785883136300000,6.604300048828125,-0.7580534815788269,0.5194268226623535,0.013016763143241405
1772785883146315000,6.61431494140625,-0.9302952885627747,1.2269089221954346,-0.2336321771144867
1772785883156331000,6.6243310546875,-1.1538562774658203,1.5496824979782104,-0.20672740042209625
1772785883166347000,6.634346923828125,-1.4135932922363281,1.6100808382034302,0.0026878691278398037
1772785883176362000,6.644362060546875,-1.6343014240264893,1.4260083436965942,0.3061634600162506
1772785883186378000,6.6543779296875,-1.8224049806594849,1.1281629800796509,0.5886598825454712
1772785883196394200,6.664394287109375,-1.9757901430130005,0.8101437091827393,0.8175062537193298
1772785883206410200,6.67441015625,-2.1181480884552,0.6512272953987122,1.0523765087127686
1772785883216425200,6.68442529296875,-2.176208019256592,0.5746387839317322,1.3310186862945557
1772785883226441200,6.694441162109375,-2.08473801612854,0.6455712914466858,1.5951929092407227
1772785883236457500,6.70445751953125,-1.876985788345337,0.8297847509384155,1.7713847160339355
1772785883246472400,6.714472412109375,-1.5686819553375244,0.9151502251625061,1.8205887079238892
1772785883256488400,6.724488525390625,-1.2086994647979736,0.6890904903411865,1.6183160543441772
1772785883266504200,6.734504150390625,-0.9113378524780273,0.11684484034776688,1.1835148334503174
1772785883276520400,6.7445205078125,-0.8108736872673035,-0.5153533220291138,0.6442965865135193
1772785883286535400,6.754535400390625,-0.9967011213302612,-0.9852438569068909,0.17257964611053467
1772785883296551400,6.764551513671875,-1.4369560480117798,-1.095826268196106,-0.07713983952999115
1772785883306567400,6.7745673828125,-1.9408985376358032,-0.6502658128738403,-0.14004077017307281
1772785883316582400,6.78458251953125,-2.2428297996520996,0.08526771515607834,-0.17407871782779694
1772785883326598400,6.794598388671875,-2.179828643798828,0.6924207210540771,-0.2862122058868408
1772785883336614400,6.804614501953125,-1.8322794437408447,1.1292554140090942,-0.43672874569892883
1772785883346630400,6.81463037109375,-1.3800222873687744,1.3808519840240479,-0.5436165928840637
1772785883356645400,6.824645263671875,-0.9645975232124329,1.447413444519043,-0.5153848528862
1772785883366661400,6.834661376953125,-0.6884894967079163,1.3676083087921143,-0.36968886852264404
1772785883376677400,6.844677490234375,-0.551949679851532,1.2048660516738892,-0.1285223811864853
1772785883386693400,6.854693359375,-0.5376203060150146,0.8455779552459717,0.22072109580039978
1772785883396708600,6.86470849609375,-0.6228370666503906,0.35644131898880005,0.6258231401443481
1772785883406724400,6.874724365234375,-0.7881436944007874,-0.0080903060734272,1.0446821451187134
1772785883416740400,6.884740234375,-0.9034017324447632,-0.26861363649368286,1.4905552864074707
1772785883426755300,6.89475537109375,-0.9146008491516113,-0.5974370241165161,1.8756529092788696
1772785883436771300,6.904771240234375,-0.8264722228050232,-0.8960630297660828,2.12951922416687
1772785883446787300,6.914787353515625,-0.6824082732200623,-1.1018146276474,2.2477786540985107
1772785883456803300,6.92480322265625,-0.5105070471763611,-1.1974743604660034,2.274705410003662
1772785883466818300,6.934818359375,-0.34112870693206787,-1.1979172229766846,2.261545181274414
1772785883476834300,6.944834228515625,-0.2135687619447708,-1.1553900241851807,2.193589210510254
1772785883486850600,6.9548505859375,-0.12373954057693481,-0.9831383228302002,2.0309970378875732
1772785883496865300,6.964865234375,-0.06865343451499939,-0.7099773287773132,1.7670209407806396
1772785883506881500,6.974881591796875,-0.01763579063117504,-0.36658456921577454,1.4396252632141113
1772785883516897500,6.9848974609375,0.08267958462238312,-0.05967014282941818,1.1159067153930664
1772785883526913300,6.994913330078125,0.19316694140434265,0.10199518501758575,0.833477795124054
1772785883536928500,7.004928466796875,0.30162644386291504,0.2182869166135788,0.6208897233009338
1772785883546944300,7.0149443359375,0.39194807410240173,0.321132630109787,0.4772036671638489
1772785883556960300,7.024960205078125,0.4531557261943817,0.38408493995666504,0.39147713780403137
1772785883566976300,7.034976318359375,0.5056405067443848,0.3960281312465668,0.37069061398506165
1772785883576991200,7.0449912109375,0.5502839684486389,0.33857446908950806,0.4040178656578064
1772785883587007200,7.05500732421875,0.5888446569442749,0.20241448283195496,0.46471184492111206
1772785883597023500,7.0650234375,0.5992203950881958,-0.03779468312859535,0.543380856513977
1772785883607038500,7.07503857421875,0.5602980256080627,-0.3292190730571747,0.5879755020141602
1772785883617054500,7.085054443359375,0.4933924078941345,-0.5475972890853882,0.5816677212715149
1772785883627070500,7.095070556640625,0.4571060240268707,-0.6669042706489563,0.5331923365592957
1772785883637086500,7.10508642578125,0.4968516230583191,-0.6579736471176147,0.41253721714019775
1772785883647101400,7.115101318359375,0.6539198160171509,-0.4866842031478882,0.2111702859401703
1772785883657117400,7.125117431640625,0.9206619262695312,-0.181052565574646,-0.08246597647666931
1772785883667133400,7.135133544921875,1.1896370649337769,0.1567973792552948,-0.39519885182380676
1772785883677149200,7.145149169921875,1.3343429565429688,0.4328814744949341,-0.5708324313163757
1772785883687164400,7.155164306640625,1.3276647329330444,0.6068292856216431,-0.6579154133796692
1772785883697180200,7.16518017578125,1.2916940450668335,0.6507186889648438,-0.796209454536438
1772785883707196400,7.175196533203125,1.2183806896209717,0.6401908993721008,-0.8512164950370789
1772785883717212400,7.18521240234375,1.1013230085372925,0.2929997444152832,-0.9500311613082886
1772785883727227400,7.195227294921875,0.9752960801124573,0.14375829696655273,-1.0734565258026123
1772785883737243400,7.205243408203125,0.831224262714386,0.09199036657810211,-1.093900442123413
1772785883747259400,7.21525927734375,0.7298084497451782,0.09223964065313339,-1.0852811336517334
1772785883757274400,7.2252744140625,0.6127007603645325,0.28371450304985046,-1.0255993604660034
1772785883767290400,7.235290283203125,0.48951390385627747,0.526390790939331,-0.9070652723312378
1772785883777306400,7.245306396484375,0.4099313020706177,0.6799852848052979,-0.7546241283416748
1772785883787322400,7.255322265625,0.3619009256362915,0.7274337410926819,-0.626982569694519
1772785883797337300,7.26533740234375,0.29674166440963745,0.6703007817268372,-0.5433022975921631
1772785883807353600,7.275353515625,0.19016753137111664,0.5598536729812622,-0.48859986662864685
1772785883817369300,7.285369384765625,0.06221742182970047,0.4578254222869873,-0.4602340757846832
1772785883827385300,7.29538525390625,-0.04109671339392662,0.39083707332611084,-0.4746987521648407
1772785883837400300,7.305400390625,-0.1101212427020073,0.2549618184566498,-0.4663666784763336
1772785883847416300,7.315416259765625,-0.14686539769172668,0.1727367341518402,-0.430886447429657
1772785883857432300,7.325432373046875,-0.12812352180480957,0.1880445033311844,-0.39407697319984436
1772785883867447300,7.335447265625,-0.059593189507722855,0.21079722046852112,-0.3791006803512573
1772785883877463300,7.34546337890625,0.02925063669681549,0.2193654328584671,-0.3956557810306549
1772785883887479300,7.355479248046875,0.07971061766147614,0.25584807991981506,-0.3749358654022217
1772785883897495300,7.365495361328125,0.10538416355848312,0.28018617630004883,-0.3141259253025055
1772785883907510300,7.37551025390625,0.10691734403371811,0.2563013434410095,-0.2312837541103363
1772785883917526500,7.385526611328125,0.090992771089077,0.16334526240825653,-0.16275839507579803
1772785883927542500,7.39554248046875,0.054235026240348816,0.036542315036058426,-0.13075119256973267
1772785883937558500,7.40555859375,0.01666758581995964,-0.073062464594841,-0.14934265613555908
1772785883947573500,7.415573486328125,-0.014432277530431747,-0.10740792006254196,-0.19695544242858887
1772785883957589500,7.425589599609375,0.007908232510089874,-0.09364739805459976,-0.0924798846244812
1772785883967605200,7.435605224609375,0.033615726977586746,-0.032282307744026184,-0.08878501504659653
1772785883977621200,7.445621337890625,0.018556252121925354,-0.10112672299146652,-0.032383378595113754
1772785883987636200,7.45563623046875,-0.028907136991620064,-0.118116095662117,0.012575838714838028
1772785883997652200,7.46565234375,-0.055755335837602615,-0.1320648342370987,0.03940698131918907
1772785884007668500,7.47566845703125,-0.06931375712156296,-0.16297055780887604,0.04186880961060524
1772785884017683500,7.485683349609375,-0.08044376224279404,-0.1749529391527176,-0.002909355331212282
1772785884027699500,7.495699462890625,-0.07899819314479828,-0.10865301638841629,-0.12031933665275574
1772785884037715500,7.505715576171875,-0.06360543519258499,-0.02757028490304947,-0.23360392451286316
1772785884047731500,7.5157314453125,-0.04084393382072449,0.019678190350532532,-0.25255683064460754
