time,seconds_elapsed,z,y,x
1772619187847100700,0.0661005859375,-0.2258732867002487,0.12113470898345112,0.2012041979331523
1772619187857131800,0.0761318359375,-0.013823358169198035,0.08191314405500888,0.2212167113323696
1772619187867162600,0.08616259765625,0.16812193947732448,0.033261195219308134,0.2337278726581484
1772619187877193700,0.09619384765625,0.2584334940433502,0.005901479128748178,0.16031448059678077
1772619187887225600,0.1062255859375,0.26574469383955,0.014207827442139387,0.10198233781121671
1772619187897256700,0.116256591796875,0.2005284175634384,0.06797507346495986,0.09060332232052459
1772619187907287600,0.12628759765625,0.11534487353563308,0.1561278425619006,0.15353230964336542
1772619187917318700,0.136318603515625,0.03666647361814976,0.19126973696127533,0.19041660899696872
1772619187927349500,0.146349609375,0.004302081108093261,0.18968626716211437,0.14707294090352951
1772619187937380600,0.156380615234375,0.03818447696566581,0.15987901178896427,0.06542303262827917
1772619187947412700,0.166412841796875,0.10564765538573265,0.10397197725847362,0.020441771661955863
1772619187957443800,0.17644384765625,0.17057517784833906,0.03750438574701547,-0.004314538730867207
1772619187967474700,0.186474609375,0.1618552802979946,-0.005958177752047777,0.002195025826245546
1772619187977505800,0.196505859375,0.06260054081976413,-0.026656390126794573,-0.0011946166120469569
1772619187987536600,0.20653662109375,-0.10130348870158194,0.016330080293118953,0.018926088135689495
1772619187997567700,0.216567626953125,-0.2100795052409172,0.07080956623852253,0.03795644036345184
1772619188007599600,0.226599609375,-0.21467326277196405,0.053768122805655,0.07512885420974344
1772619188017630500,0.23663037109375,-0.17658932357132434,0.010703472582995891,0.07292575467489659
1772619188027661600,0.24666162109375,-0.12922843745946883,-0.019432576353102922,-0.029001090089417994
1772619188037692700,0.256692626953125,-0.09779986449480056,-0.032658407020568846,-0.0835442158555612
1772619188047723500,0.2667236328125,-0.09819090963900089,-0.09353796926662325,-0.024153576993010937
1772619188057755000,0.2767548828125,-0.11394435908794402,-0.05959054534882307,-0.058204351687431335
1772619188067785700,0.28678564453125,-0.13338088096380232,-0.04525222339481115,-0.06986033922228961
1772619188077817600,0.296817626953125,-0.20362463001310824,-0.0203168118417263,-0.020527276254631577
1772619188087848700,0.3068486328125,-0.2492009707957506,-0.008715221375226973,-0.006727664287202059
1772619188097879600,0.316879638671875,-0.2641021873295307,0.019016542898118494,-0.019735650952905415
1772619188107910700,0.32691064453125,-0.15688801327943802,0.002599368843436241,-0.03336611689850688
1772619188117941500,0.33694140625,0.02879179472029209,-0.036786592866480346,-0.03239898889940232
1772619188127972600,0.34697265625,0.1945382372379303,-0.08263985089436172,0.0052147024409845465
1772619188138004500,0.35700439453125,0.25048808799684047,-0.07215791210755705,0.03019369740746915
1772619188148035800,0.367035888671875,0.2388748070925474,-0.06591536445617675,0.05868676490951329
1772619188158066700,0.377066650390625,0.2238829896658659,-0.07415142401233316,0.07287811614088714
1772619188168097800,0.387097900390625,0.1942892309129238,-0.09766498606875539,0.03243729334948584
1772619188178128600,0.397128662109375,0.16284721394479273,-0.09689473234862088,-0.01198437923900783
1772619188188159700,0.40715966796875,0.16011106697916982,-0.08947685730755328,-0.07180555500593036
1772619188198191600,0.417191650390625,0.16942425424754617,-0.07915989982411265,-0.0550960104085505
1772619188208222700,0.42722265625,0.13559154275059698,-0.08194470823705195,-0.001833170243911445
1772619188218253600,0.437253662109375,0.0961333925873041,-0.041067777317017315,0.06701198232015594
1772619188228284700,0.44728466796875,0.05831131919324398,-0.009825520704686641,0.10915096906526013
1772619188238315500,0.4573154296875,0.010111059647798537,-0.012337795786559582,0.1208003624625504
1772619188248346600,0.4673466796875,-0.050776247513294216,0.007648176665604114,0.09253860123204066
1772619188258378800,0.477378662109375,-0.08156652257442473,0.012280366510897874,0.08410882746838033
1772619188268409900,0.487409912109375,-0.06347498556673527,-0.012432780593633652,0.06230586872212589
1772619188278440700,0.497440673828125,-0.029367548781633376,-0.012702829706668852,0.08998115356788039
1772619188288471800,0.507471923828125,-0.042916766184568404,-0.008208733157813548,0.09344916760516353
1772619188298502400,0.51750244140625,-0.06172141989767551,0.009993716878443956,0.04355468962877057
1772619188308533500,0.527533447265625,-0.06470832675397396,0.006458966881036758,0.0428048211095389
1772619188318565400,0.5375654296875,-0.040700259178876874,-0.01590732483640313,0.04540267384932376
1772619188328596500,0.547596435546875,-0.0035778584867715833,-0.010224895285815,0.04120634553749114
1772619188338627300,0.55762744140625,-0.01252045887708664,-0.009860299757122992,0.026456227912195027
1772619188348658400,0.567658447265625,-0.04749883327782154,0.010224164633452892,0.027127912062103857
1772619188358689300,0.577689208984375,-0.07401449975967407,0.025585984416306017,0.045682892729924054
1772619188368720400,0.587720458984375,-0.08728548474311829,0.037276422210037706,0.06112778311977163
1772619188378752500,0.59775244140625,-0.052285483032464976,0.015002338820695876,0.047902244713250546
1772619188388783400,0.607783447265625,-0.057442135143280025,-0.019427754047513006,0.01458508380629355
1772619188398814500,0.617814453125,-0.02721709274947643,-0.06409180229082703,-0.013100142478162888
1772619188408845300,0.62784521484375,0.00797813927233219,-0.07437398072183132,-0.028674751061748247
1772619188418876400,0.63787646484375,0.06550970626473426,-0.07034282550960778,-0.02737482689472381
1772619188428907500,0.647907470703125,0.09597615619897842,-0.055937283538281916,0.014944688066036904
1772619188438938400,0.6579384765625,0.08929974717497825,-0.020476678578555584,0.06551349652386271
1772619188448970200,0.66797021484375,0.04381634537279606,0.011866963404417038,0.0770191432020627
1772619188459001300,0.67800146484375,0.01421089618206024,0.020741466994583607,0.05899059299456421
1772619188469032200,0.6880322265625,-0.03186111916303634,0.03586363280266523,0.052015538950706826
1772619188479063600,0.6980634765625,-0.04228665158748626,0.0669701342061162,0.08047867253879085
1772619188489094400,0.708094482421875,0.0011135141998529433,0.08252864560484886,0.059841926294006406
1772619188499125500,0.71812548828125,0.04976736273169517,0.07422697346657514,0.05456631484548561
1772619188509157400,0.728157470703125,0.06747662242352961,0.07107903082966804,0.0634590938778594
1772619188519188500,0.7381884765625,0.09161386933624743,0.06320902810692787,0.052931681114668026
1772619188529219300,0.74821923828125,0.11621288854181766,0.07325695939064025,0.05529077036224771
1772619188539250400,0.75825048828125,0.11907996841073036,0.05172931045442819,0.042655525999073865
1772619188549281300,0.76828125,0.06927168914675712,0.06194178465008735,0.05001455612552817
1772619188559312400,0.7783125,0.03402560372054576,0.07149374911040067,0.06389902423166204
1772619188569344300,0.78834423828125,0.11177812096476554,0.047451487004756925,0.02942641196255572
1772619188579375600,0.798375732421875,0.16007073496878146,-0.0022980478093028067,-0.0025494287544861436
1772619188589406500,0.808406494140625,0.17637831116914748,-0.03006225304752588,-0.0027693551154807207
1772619188599437600,0.8184375,0.14879472319483755,-0.029954993280768394,-0.01786674267533235
1772619188609468400,0.828468505859375,0.12007540918886661,-0.026529402746260165,-0.0018203472949564455
1772619188619499500,0.83849951171875,0.0964081178754568,0.012379296840727328,0.015712427885388024
1772619188629531400,0.848531494140625,0.0338671982884407,0.025939327898621557,0.013501003480190411
1772619188639562500,0.8585625,0.01141454346179962,0.028810791681706905,-0.014167961222631855
1772619188649593300,0.86859326171875,0.03256955969333648,0.012031506316363811,-0.03204615687374025
1772619188659624400,0.87862451171875,0.08345394375622273,0.006789514009654522,-0.049139120431290935
1772619188669655300,0.8886552734375,0.11368190875947475,-0.02217909858226776,-0.0652819162576925
1772619188679686400,0.898686279296875,0.12287819164991379,-0.030545360389351843,-0.0862424510967452
1772619188689718500,0.908718505859375,0.07479249839484692,-0.034901509772241116,-0.06921032348149456
1772619188699749400,0.918749267578125,-0.01822071634531021,-0.02679506794512272,-0.03862709703347646
1772619188709780500,0.928780517578125,-0.08359773614108562,0.019618600444495676,0.006777887503942474
1772619188719811300,0.938811279296875,-0.11157295378148555,0.018125147016346453,0.022475515112420543
1772619188729842400,0.948842529296875,-0.1309726507782936,-0.023713176281750202,0.037951882919343184
1772619188739873500,0.95887353515625,-0.13619652290642262,-0.021784546306729314,0.02961630851146765
1772619188749905400,0.968905517578125,-0.1147732111275196,-0.015643851594626904,0.031231388158444312
1772619188759936300,0.978936279296875,-0.1001122330904007,-0.027991291992366312,0.045963988393358884
1772619188769967400,0.98896728515625,-0.10105389785468578,-0.03677840956002473,0.04961592589649372
1772619188779998200,0.998998291015625,-0.05222177014648914,-0.0340001770183444,0.033102159599540756
1772619188790029300,1.009029296875,-0.014775544327497482,-0.04236731560826301,0.05222861087922938
1772619188800060400,1.019060302734375,-0.0039782559812068935,-0.046722880469262595,0.058669539780076586
1772619188810092500,1.029092529296875,-0.05265840799808502,-0.013795593379437922,0.05895935303950682
1772619188820123400,1.039123291015625,-0.12375672805011272,0.04995908591151237,0.09633105231756343
1772619188830154500,1.049154541015625,-0.1365758776128292,0.07535159358233214,0.11503069301992654
1772619188840185300,1.059185302734375,-0.1384931094110012,0.0838885357812047,0.12069765100674704
1772619188850216400,1.069216552734375,-0.11695406229794025,0.07298135731965304,0.13003893185844645
1772619188860247300,1.079247314453125,-0.08171674470007419,0.06502952153235673,0.1284700933728367
1772619188870278400,1.0892783203125,-0.0358627560198307,0.07801350626796484,0.12432071860842406
1772619188880310300,1.099310302734375,-0.009845686709880829,0.08050035464763641,0.13879870476145295
1772619188890341400,1.10934130859375,0.05566343503296375,0.0682534520149231,0.15555261822352184
1772619188900372500,1.11937255859375,0.08993336890339851,0.06135054075866937,0.13489749607183038
1772619188910403600,1.129403564453125,0.11922551436126232,0.03359305752217769,0.1399540122764185
1772619188920434400,1.139434326171875,0.10085165328085421,0.009056289897859096,0.12321531464979052
1772619188930465500,1.149465576171875,0.06965922715961932,0.02607172210663557,0.09411100164791568
1772619188940497400,1.159497314453125,0.07656769137382508,0.05420914457142353,0.06774594088420272
1772619188950528300,1.1695283203125,0.06194353821575641,0.049101884560286996,0.1144755433551967
1772619188960559400,1.179559326171875,0.03213175279796123,0.06428074899166822,0.1518391871909611
1772619188970590500,1.189590576171875,0.10757774666547774,0.062012804059684276,0.09767866753423586
1772619188980621300,1.199621337890625,0.33685061267614363,-0.018983955802768467,0.05953655013926327
1772619188990652400,1.20965234375,0.5318588055133819,-0.10650310317128896,0.031923772603087125
1772619189000684500,1.2196845703125,0.5427332507491112,-0.15131459706127642,0.02918240147307515
1772619189010715400,1.22971533203125,0.3921569048345089,-0.14466712187081573,0.025035090801585464
1772619189020746500,1.23974658203125,0.14919336712360382,-0.09516352464184165,-0.02265855266228318
1772619189030777300,1.24977734375,-0.09250234260857104,-0.045228257997334,-0.06317236762465908
1772619189040808400,1.259808349609375,-0.24723463915884494,0.0024864099882543084,-0.07752596021303906
1772619189050839600,1.269839599609375,-0.3685767072826624,0.005349105942994356,-0.07976371093615889
1772619189060871400,1.279871337890625,-0.4191863660573959,0.0043462125107645985,-0.10960709706861525
1772619189070902300,1.28990234375,-0.38781273815035816,-0.023304595480859277,-0.1255253086252138
1772619189080933400,1.299933349609375,-0.3389899627923965,-0.0500808125950396,-0.09328863414805381
1772619189090964200,1.309964111328125,-0.276865807312727,-0.02918517795205116,-0.04491736541725695
1772619189100995300,1.319995361328125,-0.2185620869040489,0.0021887422159314156,0.017882314703799782
1772619189111026200,1.330026123046875,-0.16501637467741964,0.0210499484218657,0.054795292162615805
1772619189121058600,1.34005859375,-0.14585925426483154,0.00038300796821713444,0.06642956105601042
1772619189131089400,1.35008935546875,-0.09738777656257153,-0.013017887005209922,0.046572567012067884
1772619189141120500,1.36012060546875,-0.06495382594764232,-0.01464037364050746,0.05184573990833014
1772619189151151400,1.3701513671875,-0.05420856004953384,-0.00940378816127777,0.06507710526743904
1772619189161182500,1.380182373046875,-0.055253685188293454,0.035186610323935746,0.10951574725704268
1772619189171213300,1.39021337890625,-0.05704992095530033,0.098399583953619,0.15299734425013883
1772619189181244400,1.400244384765625,-0.022566052073240278,0.08582301097512245,0.14515485058883204
1772619189191276300,1.4102763671875,0.002689385214447975,0.105139705863595,0.11731518722791225
1772619189201307400,1.420307373046875,0.06005787059962749,0.09228183172568678,0.09516208160342648
1772619189211338200,1.430338134765625,0.13125497485101223,0.0627278204612434,0.09055484353629872
1772619189221369600,1.44036962890625,0.18612579820156097,0.035143209573626516,0.0703225864391774
1772619189231400400,1.450400390625,0.14884206946790218,0.048317163923382755,0.07716627832148223
1772619189241431600,1.460431640625,0.03326864787340164,0.058659109717607495,0.07395630329903215
1772619189251463400,1.47046337890625,-0.029551088654994964,0.06311681977882981,0.06244228151813149
1772619189261494300,1.480494384765625,-0.04209317484200001,0.07727247864231467,0.10766447510086
1772619189271525400,1.490525390625,-0.06424830802679062,0.08204451534971595,0.10542020330540836
1772619189281556500,1.500556396484375,-0.05500058721005916,0.10852759473621845,0.09521132757263258
1772619189291587300,1.51058740234375,-0.011634908214211464,0.10527458428964018,0.10008280606651677
1772619189301618200,1.5206181640625,0.015045008918642997,0.07389262694567442,0.07773772153388708
1772619189311650000,1.530650146484375,-0.010509703576564788,0.003924479967355728,-0.0027010756522417067
1772619189321681200,1.54068115234375,-0.028571429967880247,-0.09878653744459151,-0.1392438912456855
1772619189331712300,1.550712158203125,-0.017215338695049286,-0.19891279906034467,-0.28610377392042424
1772619189341743000,1.5607431640625,-0.01368073482811451,-0.268719325736165,-0.32122557537984103
1772619189351774200,1.570774169921875,0.0021878654330968854,-0.2519546534180641,-0.3121968676086515
1772619189361805300,1.580805419921875,0.010559387937188148,-0.20345731062218544,-0.207942127886042
1772619189371837200,1.590837158203125,-0.05895253970623016,-0.12680252548679707,-0.08246292342487722
1772619189381868000,1.600867919921875,-0.15684534318149088,-0.039326340477168556,0.005061228912323713
1772619189391899100,1.610899169921875,-0.24033143564164638,0.04339519735127687,0.04074029892832041
1772619189401930000,1.620929931640625,-0.2882879495590925,0.0689602851100266,0.052596302547305816
1772619189411961000,1.630961181640625,-0.3112684276521206,0.06583031652122735,0.043323776082880794
1772619189421992000,1.640991943359375,-0.28630408226549625,0.029954116497933864,0.016509857306815683
1772619189432023000,1.65102294921875,-0.2235200015723705,-0.0149511931553483,-0.028264117584377524
1772619189442055200,1.66105517578125,-0.14864391654729842,-0.014598141933977604,-0.016801789458096027
1772619189452086300,1.671086181640625,-0.042127077111601824,-0.011490239046514033,0.01617836033012718
1772619189462117000,1.6811171875,0.03657645724713802,0.00430105819478631,0.03470277232974767
1772619189472148200,1.691148193359375,0.1135012914955616,0.02514963882565498,0.04715491521097719
1772619189482179000,1.701178955078125,0.15946633933484552,0.06492474598363042,0.03971789707802236
1772619189492210200,1.711210205078125,0.175122173628211,0.08551642924398184,0.06288651815429329
1772619189502242000,1.721241943359375,0.19332944597005844,0.12555851677507163,0.1400903154745698
1772619189512273200,1.731273193359375,0.19287351889610288,0.1968159729115665,0.22189977995939553
1772619189522304000,1.741303955078125,0.19420739784836769,0.21907675842791793,0.2462155983094126
1772619189532335000,1.751335205078125,0.19637305144965647,0.1842822161614895,0.19503186597377062
1772619189542366200,1.7613662109375,0.1741945373892784,0.08783318175375461,0.11313362722694874
1772619189552397300,1.771397216796875,0.1601262645483017,-0.0019105097964406013,0.02483611589707434
1772619189562429200,1.78142919921875,0.1995920134961605,-0.045290217317640775,0.00047251288257539267
1772619189572460300,1.791460205078125,0.27142507756352424,-0.05069777544960379,0.022052257332205772
1772619189582491100,1.8014912109375,0.35029520066082476,-0.03276172126457095,0.061116512807086104
1772619189592522200,1.811522216796875,0.39859833605885503,-0.02652808757200837,0.07683160300701856
1772619189602553000,1.821552978515625,0.37888124367594717,-0.011186872185766696,0.04128682689517736
1772619189612584200,1.831584228515625,0.26794015805721283,0.021577041035890577,0.048371524459123606
1772619189622615000,1.841614990234375,0.11467910310328006,0.045509997548162935,0.04090316133983433
1772619189632647000,1.85164697265625,-0.04389467130601406,0.0822298087887466,0.0304660846080631
1772619189642678300,1.86167822265625,-0.15889818405807019,0.07694646155834198,0.031656828762590884
1772619189652709000,1.871709228515625,-0.22811434362530708,0.07788505758270621,0.03437836268097162
1772619189662740200,1.881740234375,-0.26328561024963854,0.08242576975226402,0.07104461710341274
1772619189672771300,1.891771240234375,-0.24234862068295476,0.09045797729939221,0.07282331721372902
1772619189682802200,1.90180224609375,-0.1775888560026884,0.06492679181024431,0.08995010084249079
1772619189692834000,1.911833984375,-0.13734978459477423,0.03492123738601804,0.11163206355758011
1772619189702865200,1.921865234375,-0.10469196209609508,0.017726795348525046,0.11176394630894064
1772619189712896000,1.93189599609375,-0.04746434648633003,0.006539484771341085,0.12232713363841176
1772619189722927000,1.941927001953125,-0.01863280427753925,0.0011458090342581272,0.15855667714402077
1772619189732958000,1.9519580078125,-0.02146890448629856,0.022737755378335712,0.16316592450514436
1772619189742989000,1.961989013671875,-0.0034013328760862348,0.02145370691716671,0.15531879120133815
1772619189753021200,1.972021240234375,-0.02322480824291706,0.013453063552081585,0.13791808600202202
1772619189763052300,1.98205224609375,-0.04312017980217933,0.02602291452884674,0.13854147859737276
1772619189773083100,1.992083251953125,-0.05650690011978149,0.028076047666370868,0.13007387530766426
1772619189783114200,2.0021142578125,-0.049260582253336904,0.04379968649893999,0.09722104169353842
1772619189793145000,2.01214501953125,-0.02599368843436241,0.04337298551946878,0.08460479429177939
1772619189803176200,2.02217626953125,-0.0202080907702446,0.03756999832913279,0.09752155901007353
1772619189813207000,2.03220703125,0.005169511592388153,0.0481811164535582,0.09344415350332856
1772619189823239200,2.0422392578125,0.04288461748063564,0.07753770544975995,0.08487133627347648
1772619189833270000,2.05227001953125,0.07739537436962127,0.07859057550355791,0.11857625667229293
1772619189843301000,2.062301025390625,0.0745358932852745,0.0715878571346402,0.1284240622740239
1772619189853332000,2.07233203125,0.04722410798966884,0.06819353852123022,0.09885288067907094
1772619189863363300,2.08236328125,0.01648351728916168,0.04234554216787219,0.0713745066449046
1772619189873394200,2.092394287109375,0.04342880735993385,0.02949643585830927,0.06647972034066915
1772619189883426300,2.10242626953125,0.06698211690485477,0.018967004667967555,0.05495543289408088
1772619189893457200,2.11245703125,0.034007483541965484,-0.008663491187989711,0.025374387492239473
1772619189903488300,2.12248828125,0.0145873282790184,-0.007535802332311868,0.0035300007570534943
1772619189913519000,2.13251904296875,-0.0007686462849378586,-0.00858428847193718,0.016129443154484033
1772619189923550200,2.14255029296875,-0.012337503525614737,-0.024441928947716948,-0.0038519992530345916
1772619189933581000,2.1525810546875,-0.022373159849643706,-0.019606325484812257,-0.0010438099645078182
1772619189943613000,2.162613037109375,-0.018512392768263816,-0.02285188327729702,0.024916341526433825
1772619189953644000,2.17264404296875,-0.04240764761865139,0.00974719477146864,0.03480301783382892
1772619189963675100,2.182675048828125,-0.02708382175862789,0.01366305304095149,0.057868105470389126
1772619189973706200,2.192706298828125,0.006994973453879356,-0.01079568091109395,0.08684906608723103
1772619189983737300,2.2027373046875,0.024833997005224227,-0.025575901413708923,0.04896561789475381
1772619189993768200,2.212768310546875,-0.010581015247106551,-0.0314490312308073,0.047341596889495845
1772619190003799300,2.22279931640625,-0.040672202128171915,-0.05004135736748576,0.01581606635637581
1772619190013831200,2.2328310546875,-0.077446227774024,-0.03964066712334752,0.020295184531807897
1772619190023862000,2.242862060546875,-0.07156769112944603,-0.01919891372770071,0.013107757245749235
1772619190033893000,2.25289306640625,-0.056011810079216955,0.0036669980749487875,0.03426920321807265
1772619190043924000,2.262924072265625,-0.03293663944005966,-0.007722264815121889,0.029526319539919493
1772619190053955000,2.272955078125,-0.024992986959218977,-0.03348857423439622,0.02073299142718315
1772619190063986200,2.282986083984375,-0.03145896810293197,-0.02437178632095456,0.038187326509878036
1772619190074018300,2.293018310546875,-0.051370121753215786,-0.011121405734121799,0.047775312131643294
1772619190084049200,2.303049072265625,-0.05947685584127903,-0.01580707933232188,0.0732411042343825
1772619190094080300,2.313080322265625,-0.04221884704828262,-0.02449073652550578,0.05622282248139381
1772619190104111000,2.323111083984375,-0.035542438024282454,-0.02996887567564845,0.05984437397941947
1772619190114142200,2.33314208984375,0.023210195195674896,-0.04128901885226369,0.046434199720993635
1772619190124173000,2.343173095703125,0.07036708316802978,-0.04280205376371741,0.03522811137810349
1772619190134204200,2.3532041015625,0.06560673689842224,-0.02158522434234619,0.05697312939204275
1772619190144236000,2.363236083984375,0.0465028079777956,-0.006558481732755899,0.05907857723869383
1772619190154267100,2.37326708984375,-0.02085983267724514,-0.002706044088304043,0.06104403209276497
1772619190164298000,2.383298095703125,-0.06656944445073604,0.020554712250828742,0.08107881212271749
1772619190174329000,2.3933291015625,-0.09721125095188617,0.031803689887374635,0.06966565690040588
1772619190184360200,2.403360107421875,-0.06403904919028282,0.04490604030564427,0.07092961242161691
1772619190194391300,2.413391357421875,0.0019248305827379226,0.049666240444779394,0.07300853758752346
1772619190204423200,2.423423095703125,0.030744682353734967,0.03473711299076676,0.09056333737000823
1772619190214454300,2.433454345703125,0.05693301657736301,0.034278701698780056,0.06021605683602392
1772619190224485000,2.443485107421875,0.06527239037752151,0.03677519468963146,0.04401391377151012
1772619190234516200,2.45351611328125,0.027777064719796178,0.03064531363248825,0.040877734637632966
1772619190244547000,2.463547119140625,0.010073650246858596,0.0522168017104268,0.0270420284435153
1772619190254578200,2.473578125,-0.005046177473664284,0.05805296051800251,0.025733064736798403
1772619190264610000,2.483610107421875,-0.006291793620586395,0.06532821221798658,0.05742554933466017
1772619190274641200,2.49364111328125,-0.012326982131600378,0.08825783690661192,0.06694302700348198
1772619190284672300,2.50367236328125,-0.020689152285456657,0.0849316150933504,0.08202011156082153
1772619190294703400,2.513703369140625,-0.004780220013856888,0.07872779201716185,0.08356273789294064
1772619190304734500,2.523734375,-0.0016594576448202133,0.032981647625565526,0.05811272788122296
1772619190314765600,2.533765625,0.011724924585223197,0.003255933056026697,0.03060995005816221
1772619190324796400,2.54379638671875,-0.014606617501378058,-0.03077069357782602,-0.002608867324143648
1772619190334828500,2.55382861328125,0.009471592700481415,-0.037455432038754226,0.01590264866128564
1772619190344859600,2.563859619140625,-0.02754267144203186,-0.03610840134397149,0.021084873604774474
1772619190354890500,2.573890380859375,-0.03194412127137184,-0.02838599039837718,0.031082609071210025
1772619190364921600,2.583921630859375,-0.005240823262929916,0.017951397884637118,0.029359730801358817
1772619190374952400,2.593952392578125,0.0022159224838018414,0.02238046637326479,0.03950198930501938
1772619190384983600,2.603983642578125,0.015616086804866789,0.04194748276099562,0.024677710464969277
1772619190395015400,2.614015380859375,0.039783144333958624,0.03515402322858572,0.026304873275384305
1772619190405046500,2.624046630859375,0.05253332031369209,0.04895078565180301,0.02916742309965193
1772619190415077400,2.634077392578125,0.06876373962461949,0.04941884155496955,0.015565964052826165
1772619190425108500,2.6441083984375,0.07552198171317577,0.06308920111954212,0.025939985485747455
1772619190435139300,2.654139404296875,0.062413493815064426,0.07756283989101648,0.016644406939297914
1772619190445170700,2.664170654296875,0.05523790309727192,0.0627042934551835,0.022663448033109306
1772619190455201500,2.674201416015625,0.03753974932134151,0.06699424573406576,0.04816401918828487
1772619190465233700,2.684233642578125,0.015507365733385086,0.05993117548003792,0.04228307139091193
1772619190475264500,2.694264404296875,-0.045183542072772975,0.0469295089572668,0.030564576546475288
1772619190485295600,2.704295654296875,-0.10907646079063416,0.029392244831472635,0.03417312243245542
1772619190495326500,2.714326416015625,-0.14032441649138927,0.04447334797680378,0.06557926436960697
1772619190505357600,2.724357666015625,-0.2154477542757988,0.0674596712887287,0.14298874032981693
1772619190515388400,2.734388427734375,-0.25339608439803124,0.09819967746734619,0.12532076249644158
1772619190525420500,2.744420654296875,-0.21643325818181036,0.09368453813046217,0.12416421287246047
1772619190535451400,2.754451416015625,-0.15187164642214773,0.02368044305592775,0.10798895781487226
1772619190545482800,2.764482666015625,-0.053070495930314064,-0.02086070946007967,0.07277977033294737
1772619190555513600,2.774513671875,0.059656888583302495,-0.06872749926745891,0.039180429200455544
1772619190565544700,2.784544677734375,0.1276350307881832,-0.08074936097264289,0.052240913238376374
1772619190575575600,2.794575439453125,0.14174480468332767,-0.057981941108405585,0.02963789015561342
1772619190585607400,2.804607421875,0.12769056036770343,-0.03550444410145283,0.010800503216683865
1772619190595638500,2.814638427734375,0.14286942479908465,-0.009185469235479832,-0.020453882224857806
1772619190605669400,2.82466943359375,0.15982991195023058,0.0008782441392540931,-0.03330181949064135
1772619190615700500,2.834700439453125,0.1641337466239929,0.009086685036122798,-0.04416662011519074
1772619190625731600,2.844731689453125,0.17268997804522512,0.02100830123722553,-0.04108618975654244
1772619190635762400,2.854762451171875,0.15070435620844364,0.04433686211556196,-0.00107325525470078
1772619190645793500,2.86479345703125,0.11491174281537532,0.06264496448338032,0.021330957320332525
1772619190655825700,2.87482568359375,0.11208207234740257,0.08988485358655453,0.05020495043136179
1772619190665856500,2.8848564453125,0.12662731505036354,0.07255056468695402,0.049371056890487666
1772619190675887600,2.8948876953125,0.18333295261263846,0.06699760673493146,0.06110387252122163
1772619190685918500,2.90491845703125,0.18297580973803995,0.046268999221920966,0.06925817207805812
1772619190695949600,2.914949462890625,0.16068156034350395,0.038892332974076266,0.06660984952636062
1772619190705980400,2.92498046875,0.14046294817924498,0.08562982649058103,0.06609101328402757
1772619190716011500,2.935011474609375,0.12514905919134617,0.09914923327714205,0.07150690085291862
1772619190726043400,2.94504345703125,0.12953238884210586,0.11936141570061444,0.11921535829342901
1772619190736074500,2.955074462890625,0.08751753993332385,0.12268500716537237,0.14344744388274847
1772619190746105300,2.965105224609375,0.02683423091173172,0.11872194875329732,0.1580498236004263
1772619190756136400,2.975136474609375,-0.0788403124809265,0.13067659044116733,0.1814835253536701
1772619190766167600,2.98516748046875,-0.18424071510732173,0.10029489618092775,0.1731307075500488
1772619190776198700,2.99519873046875,-0.2892430583268404,0.09173530375882982,0.1492359641563147
1772619190786230500,3.00523046875,-0.3209282364010811,0.06742635354101657,0.1655311923317611
1772619190796261600,3.01526171875,-0.3036597062140703,0.010247545509040355,0.16395057207681238
1772619190806292500,3.02529248046875,-0.27647417764663695,-0.03185731977075338,0.11583726016245782
1772619190816323600,3.035323486328125,-0.26352877135574815,-0.07247764558121561,0.08416421091742814
1772619190826354400,3.0453544921875,-0.2558808869510889,-0.09250774943605065,0.058621042729541654
1772619190836385500,3.055385498046875,-0.24341420408785341,-0.09680208562910556,0.04359437318518757
1772619190846417400,3.06541748046875,-0.21019056439995765,-0.07959244602248072,0.04462364316768944
1772619190856448500,3.075448486328125,-0.2095131035298109,-0.09575374561995267,0.02604519942589104
1772619190866479600,3.085479736328125,-0.17039689867198465,-0.09130188077762723,0.017169380661472677
1772619190876510700,3.0955107421875,-0.1516167948782444,-0.07492854586467146,0.007929916216433047
1772619190886541600,3.10554150390625,-0.12062778237462043,-0.04911211369335651,0.010982874046266078
1772619190896572700,3.11557275390625,-0.10205343028604984,-0.019279431618005036,0.0024872867710888386
1772619190906603500,3.125603515625,-0.11304477989971637,0.003062310180068016,-0.004262698945775628
1772619190916635400,3.135635498046875,-0.11278525218069553,0.02034048497825861,-0.023377952978014944
1772619190926666500,3.14566650390625,-0.07845160542428493,0.0351930400647223,-0.028683877366408705
1772619190936697600,3.155697509765625,-0.03579436695873737,0.04260346245169639,-0.03840235750004649
1772619190946728400,3.165728515625,0.024874329015612602,0.046130467534065245,-0.047691360175237056
1772619190956759600,3.175759521484375,0.0780477007985115,0.013980448427051305,-0.030846462227776646
1772619190966790400,3.185790283203125,0.02766542103886604,0.0017279928363859653,-0.01928425392359495
1772619190976822500,3.195822509765625,-0.07305646838247776,0.02479176529869437,-0.02030241799019277
1772619190986853600,3.205853515625,-0.15950550230145452,0.06726224902048707,0.014590616214647889
1772619190996884500,3.215884521484375,-0.20001286925673484,0.08750380366891622,0.08980871961042285
1772619191006915600,3.22591552734375,-0.161632577458024,0.09663871176093816,0.13084931665956973
1772619191016946400,3.235946533203125,-0.06762392193973064,0.08039806331694126,0.14500190678313374
1772619191026977500,3.2459775390625,0.030241993528604506,0.039031449183821676,0.12681823451258242
1772619191037008600,3.256008544921875,0.09605915830731392,-0.01617284390479326,0.09321713981442153
1772619191047040500,3.26604052734375,0.1324666887283325,-0.021385902377963065,0.05769961703568697
1772619191057071400,3.2760712890625,0.18010113108456133,-0.009917290641367435,0.046467955860123034
1772619191067102500,3.2861025390625,0.1839192280679941,-0.006157061325013637,0.06471680232137442
1772619191077133300,3.29613330078125,0.1406803903222084,0.02701280234903097,0.08929682456552981
1772619191087164700,3.30616455078125,0.06630757864415646,0.055149348030984396,0.11909385080561041
1772619191097195500,3.316195556640625,-0.030068975049257277,0.10395517225414513,0.12263269245624542
1772619191107227600,3.3262275390625,-0.06895955445766448,0.13607815722376107,0.0977305986508727
1772619191117258500,3.336258544921875,-0.08323357900381088,0.10270254184454679,0.04255772361382842
1772619191127289600,3.34628955078125,-0.04282032007277012,0.07347703188210726,0.018223273628577587
1772619191137320400,3.356320556640625,-0.01783434737622738,0.06805442231148481,0.010797069150581956
1772619191147351600,3.3663515625,0.02778407898247242,0.061112640349566934,-0.016646306635439395
1772619191157382400,3.37638232421875,0.06410743825137614,0.0667939008563757,-0.035501886818185446
1772619191167413500,3.38641357421875,0.08642623756527901,0.07668985644876956,-0.0017801614150404928
1772619191177445400,3.3964453125,0.10038871194422244,0.08108867592960596,0.03460128471665084
1772619191187476700,3.406476806640625,0.08939970041811465,0.10759411327838897,0.06289214417748153
1772619191197507600,3.416507568359375,0.054879006657004355,0.09248568373471498,0.06990523780994116
1772619191207538700,3.42653857421875,0.014364040917158125,0.06587415566295385,0.04073986053690314
1772619191217569500,3.436569580078125,0.025503274568915366,0.06748685155659914,0.016199658846482633
1772619191227600600,3.4466005859375,0.06306991189718246,0.06257891350984573,0.023499387400597333
1772619191237632500,3.456632568359375,0.10616320369243622,0.04676671961098909,0.04246164282821119
1772619191247663600,3.46666357421875,0.12316343833208084,0.02759498615115881,0.049949879691749806
1772619191257694500,3.476694580078125,0.11051496916115283,0.031305531106889245,0.0355549321796745
1772619191267725600,3.4867255859375,0.07251520111262798,0.022420213861763474,0.0429741223949939
1772619191277756400,3.49675634765625,0.04039513875246048,0.02814619029313326,0.045511751113831996
1772619191287787500,3.50678759765625,-0.002234627184271812,0.01414075355529785,0.049392099678516384
1772619191297818000,3.516818115234375,-0.05127893633842468,0.02090864025503397,0.0507403724823147
1772619191307850200,3.526850341796875,-0.11473346363902091,0.03266512902230024,0.07208221652284263
1772619191317881000,3.536881103515625,-0.18460253415703773,0.027663959734141826,0.05473521427214145
1772619191327912200,3.546912109375,-0.22185002253353595,0.032624797011911864,0.06603278029076755
1772619191337943000,3.556943115234375,-0.21497136893570423,0.05608107592314481,0.06582490969374775
1772619191347974400,3.566974365234375,-0.22775836979448794,0.03396452118307352,0.07387260707095265
1772619191358005200,3.577005126953125,-0.17653730112314223,0.014616846634447574,0.04956847915872931
1772619191368036400,3.587036376953125,-0.1419312671661377,-0.017379589346051216,0.05182677947953343
1772619191378068200,3.597068115234375,-0.0860603268623352,-0.022892507548630238,0.01712232664935291
1772619191388099000,3.60709912109375,-0.030638299369812008,-0.027917057712376115,0.032274960660934444
1772619191398130200,3.617130126953125,0.013506547304987907,-0.057495618896186346,0.027530104221403597
1772619191408161300,3.627161376953125,0.019826982498168944,-0.044641105759143825,0.019586817066743967
1772619191418192100,3.637192138671875,-0.023120763346552848,-0.019906185214221477,0.025265812551230192
1772619191428223200,3.64722314453125,-0.0385118092238903,0.0110647071108222,-0.005345744942128658
1772619191438255000,3.657255126953125,0.022561375898122786,0.02326309442669153,0.005581088067963719
1772619191448286200,3.6672861328125,0.05417816491127014,0.017867372862994668,0.022721023439243433
1772619191458317300,3.6773173828125,0.02664952199459076,0.0032671851024031638,0.03559511805959046
1772619191468348200,3.68734814453125,0.012990998998284339,0.012884908275306224,0.021364494263753295
1772619191478379300,3.697379150390625,0.005959785187244415,0.015482231292128562,0.01846292760334909
1772619191488410000,3.70741015625,0.03141922061443329,-0.0016819617375731467,0.021204116070270538
1772619191498442200,3.717442138671875,0.060464113312959665,-0.011489362263679503,0.011087868790701031
1772619191508473000,3.72747314453125,0.09867547828555107,-0.02891600562185049,0.016261545101553202
1772619191518504200,3.737504150390625,0.10131810174882411,-0.033463585923612114,0.01961282829083502
1772619191528535000,3.74753515625,0.0735994892179966,-0.029465163937211034,0.005441533466801047
1772619191538566100,3.757566162109375,0.06839665987789631,-0.014570084883272647,-0.02632686591148376
1772619191548597000,3.767596923828125,0.059947395962476724,0.019160335282981396,0.0022017478279769418
1772619191558628000,3.777628173828125,0.05899170267283916,0.04651625198125839,0.015875833719596267
1772619191568660200,3.78766015625,0.051287119644880294,0.023535189366340636,0.05258475823998451
1772619191578691300,3.79769140625,0.011948211947083473,0.028662907643616196,0.04849814651347697
1772619191588722200,3.80772216796875,-0.0015425532668828963,0.005396306085586547,0.03858436300344765
1772619191598753300,3.817753173828125,-0.0049205052673816675,-0.018593933571875096,0.01887611151412129
1772619191608784100,3.8277841796875,-0.03785305305421352,-0.028056466183066366,-0.0008754676602780819
1772619191618815200,3.837815185546875,-0.03657704176902771,-0.018854338073730468,-0.005205532753840088
1772619191628846000,3.84784619140625,-0.05014262578487396,-0.020109598831832408,0.002975581744685769
1772619191638878200,3.857878173828125,-0.06794716254472732,0.0038180969834327697,0.015519640693068503
1772619191648909000,3.867908935546875,-0.06522796671390534,0.018243220438063142,0.012382730906829236
1772619191658940200,3.877940185546875,-0.07885024935305118,0.01488455765992403,0.026379472881555555
1772619191668971300,3.88797119140625,-0.08278057453930378,0.012789046685397624,0.03307626710645854
1772619191679002400,3.89800244140625,-0.020025135418772697,0.012459668600559234,0.02675897371843457
1772619191689033200,3.908033203125,0.021253800430893897,0.010913900463283062,0.02969721912741661
1772619191699064300,3.918064208984375,0.07919979344308375,-0.004138999500870704,0.05594860864989459
1772619191709096200,3.92809619140625,0.1316740770459175,-0.010941080731153487,0.06410254288055002
1772619191719127300,3.938127197265625,0.15572598376274108,-0.0026081366717815397,0.060485083035752174
1772619191729158100,3.948158203125,0.14002923293709754,-0.016237725834548473,0.04719838902652263
1772619191739189200,3.958189208984375,0.08283318150937556,-0.0013075754672288893,0.03261778274923563
1772619191749220000,3.96822021484375,0.059924015086889264,0.02807984705865383,0.058983227105438706
1772619191759251200,3.978251220703125,0.025053192713856694,0.03177782479375601,0.052898573429509994
1772619191769283300,3.988283447265625,0.002345686343312263,0.024342998617887496,0.0767076113011688
1772619191779314200,3.998314208984375,-0.002237549793720245,0.05331950225532055,0.09334361573830247
1772619191789345300,4.00834521484375,-0.0009627075523138045,0.03838935188800096,0.08895999382659793
1772619191799376100,4.018376220703125,-0.01930909610390663,0.02812251715660095,0.0725511492088437
1772619191809407200,4.0284072265625,-0.04173310935795307,0.027953882591426372,0.08206073583215474
1772619191819438300,4.038438232421875,-0.045672786894440646,0.028004151473939417,0.07464147255159914
1772619191829469200,4.04846923828125,-0.025548282754421232,0.011014145967364311,0.07809504707157612
1772619191839501000,4.0585009765625,-0.01077975268959999,0.006173720198869705,0.08289587148204446
1772619191849532200,4.0685322265625,-0.018908114087581633,0.013913959062099456,0.07978197724521159
1772619191859563000,4.07856298828125,-0.059549336555600164,0.02081628579646349,0.08811623647883533
1772619191869594000,4.088593994140625,-0.10607435636520385,0.032410862000286575,0.09160853557400404
1772619191879625000,4.098625,-0.09469488421678543,0.048500119274854654,0.07242138534933328
1772619191889656300,4.10865625,-0.06305705241560935,0.025415011763572692,0.06467610498480499
1772619191899688200,4.118688232421875,-0.023439327776432036,0.012624796034395694,0.03866824189461768
1772619191909719300,4.12871923828125,0.043942602100968356,0.03230038736313581,0.09450798334255814
1772619191919750100,4.138750244140625,0.07825929772257804,0.031825463327765466,0.1367291684783995
1772619191929781200,4.14878125,0.10656710831820965,0.031440555663406845,0.11702917336076497
1772619191939812000,4.15881201171875,0.12378887675404548,-0.001778407849371433,0.07713803860768675
1772619191949843200,4.16884326171875,0.1116273143172264,-0.02075783360749483,0.015582257600501179
1772619191959874000,4.1788740234375,0.09223053992986678,-0.054469256812334055,-0.03831256032474339
1772619191969906200,4.18890625,0.04007657432258129,-0.06940875952988862,-0.047596229237690565
1772619191979937000,4.19893701171875,-0.00016015899777412413,-0.02312193239033222,-0.017319310526177287
1772619191989968400,4.208968505859375,-0.019680267503857613,0.018390519954264162,-0.014874620787799357
1772619191999999200,4.218999267578125,-0.04112345302700996,0.017756021443009376,0.017120353887975216
1772619192010030300,4.2290302734375,-0.05807634139358997,0.03501841415017843,0.01927797031328082
1772619192020061200,4.239061279296875,-0.08471241938471794,0.019188976855576037,0.027548662791401148
1772619192030092300,4.24909228515625,-0.09609539866447449,0.025519933442771432,0.02793342432528734
1772619192040124200,4.259124267578125,-0.08047931185960769,0.025655834782123563,0.04264562109299004
1772619192050155300,4.2691552734375,-0.07971417270600795,0.025698212619125842,0.08214512617997825
1772619192060186000,4.27918603515625,-0.03866553848087787,0.021321020448207852,0.06446984182298184
1772619192070217200,4.28921728515625,-0.00022211831808090208,-0.010338730923831462,0.04283595603331923
1772619192080248000,4.299248046875,0.0009714753806591034,-0.02939209870100021,0.011784253557026385
1772619192090279200,4.309279052734375,-0.02089548851251602,-0.04601414767801761,-0.02396437456384301
1772619192100311300,4.319311279296875,-0.030264205360412594,-0.01630494585186243,-0.008203399395570158
1772619192110342100,4.329342041015625,-0.08291326100826263,-0.016716449262201786,0.02883329577445984
1772619192120373200,4.339373291015625,-0.10182079057395457,0.018677520202100277,0.037329686767235394
1772619192130404400,4.349404296875,-0.08837035737037659,0.04601297863423824,0.04776427928097546
1772619192140435200,4.359435302734375,-0.04188508504927158,-0.00006868132203817368,0.049804772132635115
1772619192150466300,4.36946630859375,-0.033411271214485165,-0.030574001961946484,0.05005144037008285
1772619192160497200,4.3794970703125,-0.012902736192941664,-0.010827391223609447,0.031244886960834262
1772619192170529000,4.389529052734375,0.02840191861987114,0.009980419005453586,0.07110453059710561
1772619192180560100,4.39956005859375,0.06871580882966517,-0.010880290454626082,0.10346724260672926
1772619192190591000,4.409591064453125,0.06417816540002823,0.008480243575572966,0.1349699037209153
1772619192200622000,4.4196220703125,0.033118425747752187,0.026625556597113607,0.09985365521945058
1772619192210653200,4.429653076171875,0.026425650110840797,0.03960778776705265,0.09143515176847576
1772619192220684300,4.439684326171875,0.04560439783334732,0.055558221092820166,0.10960757199265062
1772619192230715400,4.44971533203125,0.09961889661550521,0.09939239438325166,0.1028524717092514
1772619192240747300,4.459747314453125,0.1764770953685045,0.11222264986187219,0.11140870313048362
1772619192250778000,4.469778076171875,0.2290408108204603,0.10106588055342436,0.11961670563593506
1772619192260809200,4.479809326171875,0.26428748076856134,0.09983429293185472,0.11370704320073127
1772619192270840000,4.489840087890625,0.21288287222385405,0.09361819489598273,0.08954217762872577
1772619192280871200,4.49987109375,0.14113573287427425,0.06033961015045643,0.08478599607758223
1772619192290902000,4.509902099609375,0.044778468403220174,0.029688743560016155,0.05422996816374361
1772619192300935000,4.519934814453125,-0.07021978365182877,0.04631283836364746,0.03148234897851944
1772619192310965800,4.5299658203125,-0.14283376896381378,0.052986909300088876,0.0329132585644722
1772619192320996900,4.539996826171875,-0.1781295387506485,0.043454818584024904,0.03845291864350438
1772619192331027700,4.55002783203125,-0.15855390066504477,0.04060059819668531,0.03185220520421862
1772619192341058800,4.560058837890625,-0.14304419684410094,0.017983400458097456,0.02855594013780355
1772619192351089700,4.570089599609375,-0.12914952700436114,-0.0019546411991119383,0.020650573840737343
1772619192361120800,4.580120849609375,-0.1527139424651861,-0.008567045076191425,0.00949248935803771
1772619192371152600,4.590152587890625,-0.17091536958813666,-0.0040390462577342984,0.01349456460624933
1772619192381183700,4.600183837890625,-0.18080080378651617,0.0033981180056929586,0.013606719743832945
1772619192391214600,4.610214599609375,-0.14449030399918555,0.014672960735857487,0.019707520836964247
1772619192401245700,4.62024560546875,-0.09987667076885699,0.0008586626559495925,0.024230551219359037
1772619192411276500,4.630276611328125,-0.09298749577701092,0.0021709142982959746,0.009534940260276199
1772619192421308000,4.640307861328125,-0.07257891399860382,0.007041442944109439,-0.011892536237090825
1772619192431338800,4.6503388671875,-0.07335632811188697,0.0035281741261482236,-0.026594138545542954
1772619192441370600,4.66037060546875,-0.049344753405451774,0.009447919563949107,-0.05579451406672597
1772619192451401700,4.670401611328125,-0.027375498181581494,-0.0006815525233745574,-0.06203085117302835
1772619192461432600,4.6804326171875,-0.010178864187002182,0.01868219637721777,-0.030692659905552862
1772619192471463700,4.690463623046875,-0.02516542091667652,0.02773030296862125,0.0005187631770968437
1772619192481494800,4.700494873046875,-0.014745733711123466,0.02633884861022234,0.00728387339785695
1772619192491525600,4.710525634765625,0.020469956576824187,0.018777765706181525,-0.0006761456958949565
1772619192501556700,4.720556640625,0.05315466708242893,0.01540478214174509,-0.0017327420767396687
1772619192511588600,4.730588623046875,0.07393149765133858,-0.004578267700970173,0.0011604951467365026
1772619192521619700,4.74061962890625,0.11596154412925243,0.002965571807324886,-0.0015635229896754025
1772619192531650800,4.75065087890625,0.13053367483913897,0.02060322756767273,0.0007530833896249533
1772619192541681700,4.760681640625,0.08182780385911465,0.0070274144187569615,-0.009244140620157121
1772619192551712800,4.770712646484375,0.05181961908638477,0.006926292131841183,-0.0032457039229571816
1772619192561743600,4.78074365234375,-0.006008885025978088,0.023451894997060296,-0.02433803018182516
1772619192571775700,4.790775634765625,-0.03299509162902832,0.03453852167874574,0.001014145478606224
1772619192581806600,4.800806640625,-0.025928221982717513,0.040242578539252276,0.033063772951066495
1772619192591837700,4.810837646484375,0.01493687236905098,0.01677723953872919,0.02612155259773135
1772619192601868500,4.82086865234375,0.04177577945590019,-0.005465864190459251,0.011928338202834128
1772619192611899600,4.830899658203125,0.03398760979771614,-0.03167407215833664,-0.02098418970927596
1772619192621930500,4.840930419921875,0.003939093014597893,-0.03931143516898155,-0.04179528787396848
1772619192631961600,4.850961669921875,-0.028380291309952736,-0.0394420758113265,-0.037631300062313675
1772619192641993700,4.86099365234375,-0.06737783822417259,-0.04152735765278339,-0.006943900853767991
1772619192652024800,4.87102490234375,-0.10345219116806983,-0.011856149749457836,0.009803528068587183
1772619192662055700,4.8810556640625,-0.1289507895618677,0.017740239351987836,0.03085048081576824
1772619192672086800,4.891086669921875,-0.13435937060713768,0.012905658802390097,0.05161847049109637
1772619192682117600,4.90111767578125,-0.16099194146692752,0.0011310498565435408,0.05819616838097572
1772619192692148700,4.911148681640625,-0.15288111572563648,-0.005308335541188716,0.04743270923905074
1772619192702179600,4.9211796875,-0.07949088534414768,-0.007350947284698486,0.07878134883530437
1772619192712211700,4.931211669921875,-0.016933014622330666,-0.013112871812283992,0.08593012461140752
1772619192722242600,4.94124267578125,0.039738720670342446,0.0008069324687123298,0.10838782093934714
1772619192732273700,4.951273681640625,0.064318450653553,0.011755027462542056,0.10060396213009953
1772619192742304800,4.9613046875,0.046480596145987506,0.01158843872398138,0.0980101462446153
1772619192752336000,4.9713359375,0.039919922456145285,0.030192016907036302,0.09285298267714678
1772619192762366700,4.98136669921875,0.05202127913832664,0.03523585629314184,0.07348908764608204
1772619192772397800,4.991397705078125,0.06460895803272723,0.050450084298849104,0.06855828018039464
1772619192782429700,5.0014296875,0.06786182234883308,0.0489122072070837,0.09859072261154651
1772619192792460800,5.011460693359375,-0.002932546320557594,0.07585194431990384,0.08757358096949755
1772619192802491600,5.02149169921875,-0.006935936743021011,0.08615881880074738,0.08729951326847075
1772619192812522800,5.031522705078125,0.002590601015090942,0.06867664586305618,0.09568988660350441
1772619192822553600,5.0415537109375,0.016033435434103013,0.01089431897997856,0.07868402594067156
1772619192832584700,5.051584716796875,0.0224082311630249,-0.004986556240916252,0.09154058490432798
1772619192842616800,5.061616943359375,0.006815525233745574,-0.0008940262302756309,0.0761013890363276
1772619192852647700,5.071647705078125,-0.02119476372003555,-0.01811959405839443,0.0663862699035555
1772619192862678800,5.0816787109375,-0.03112754419147968,-0.008825988273322581,0.08750263462513684
1772619192872709600,5.091709716796875,-0.024338322442770004,-0.018909283131361008,0.06483502187356352
1772619192882740700,5.10174072265625,-0.013373860836029051,-0.006161445239186287,0.07099595565609633
1772619192892771800,5.111771728515625,-0.01829436610341072,0.002896305963397026,0.07487842311263083
1772619192902802700,5.121802734375,-0.020105799439549446,0.0024304420173168182,0.04017418947815895
1772619192912834600,5.13183447265625,-0.012899229061603545,0.0358782458499074,0.04523476080335676
1772619192922865700,5.14186572265625,-0.0046522097200155255,0.03840162684768438,0.07697203439101577
1772619192932896500,5.151896484375,0.007487725406885147,0.030908640743792057,0.06589490619003772
1772619192942927600,5.161927734375,-0.021604513564705847,0.029458149674534796,0.047403556209802626
1772619192952958500,5.17195849609375,-0.036790976780653,0.04444441414326429,0.043196021517366165
1772619192962989800,5.18198974609375,-0.026194179442524907,0.04328004653900862,0.04375694333575666
1772619192973020700,5.192020751953125,-0.02527297294437885,0.021964725179225205,-0.002494081838056445
1772619192983052800,5.202052734375,-0.0005740004956722259,0.03294643018171191,-0.0076307871393859385
1772619192993083600,5.212083740234375,-0.00017944822013378142,0.016260668318718672,0.013292612293362616
1772619193003114800,5.22211474609375,-0.03293780848383903,0.01686243360415101,0.10107464838176965
1772619193013145600,5.2321455078125,-0.049561026504635806,0.03661474343091249,-0.054758522082492704
1772619193023176700,5.2421767578125,0.03957154740989208,-0.016254676969349385,-0.09124722798094152
1772619193033207600,5.25220751953125,0.08571487442553043,-0.06518368918076158,-0.028621041263267397
1772619193043238700,5.26223876953125,0.03564882100820541,-0.028224223965406418,-0.018864640272036194
1772619193053270500,5.2722705078125,0.07605038950145245,0.019705255814641713,-0.013651508733630179
1772619193063302000,5.282302001953125,0.06163081900477409,0.02896919711381197,0.10954356684572994
1772619193073332700,5.292332763671875,0.06137947459220886,0.04582110932394862,0.1353654789097607
1772619193083363800,5.30236376953125,0.05530570763647556,0.058903439867496486,0.0989531992483884
1772619193093394700,5.312394775390625,0.03659165481626987,0.0438362191170454,0.059742228779196736
1772619193103425800,5.32242578125,0.04194704436957836,0.0030604104839265346,0.027464053247869012
1772619193113457700,5.332457763671875,0.04258826488256454,0.0002614274151623249,0.026393574472144243
1772619193123488800,5.34248876953125,0.02132686566710472,-0.024331454310566186,0.01900185678564012
1772619193133519600,5.35251953125,0.005562894824147224,-0.027568244274705646,0.013333309629932046
1772619193143550700,5.36255078125,-0.012570727759599686,-0.003963789064437151,0.027257424759864805
1772619193153581600,5.37258154296875,-0.028434651845693586,0.029924305881559848,0.06835917741172015
1772619193163613700,5.38261376953125,-0.02402560323178768,0.03724909581169486,0.07043525303341448
1772619193173644800,5.392644775390625,-0.005101122531294822,0.020541998899728058,0.06561623537912964
1772619193183675600,5.402675537109375,0.049186932495236396,-0.0013660276561975478,0.02384294014126062
1772619193193706800,5.412706787109375,0.12202946586608886,-0.021133242791146038,-0.003082914576679468
1772619193203737900,5.42273779296875,0.21149638630151749,-0.03534165475517511,-0.013693155918270349
1772619193213768700,5.432768798828125,0.27985212964713574,-0.022196634238958356,0.012458791817724704
1772619193223799800,5.4427998046875,0.35488428201675415,0.009500672664493321,-0.010000219684466719
1772619193233831700,5.452831787109375,0.36922552658021446,0.007330050627142191,0.009279211933538317
1772619193243862500,5.462862548828125,0.3631231180518865,0.011830430786311626,0.010302928958088159
1772619193253893600,5.4728935546875,0.28570670089423655,0.028169278907775878,0.038308760932460426
1772619193263924500,5.482924560546875,0.16388474029898642,0.04016001482233405,0.04064925964400172
1772619193273955600,5.49295556640625,0.004785480710864067,0.04935001410245895,0.020727292338758706
1772619193283986700,5.502986572265625,-0.13596388319432734,0.03587678454518318,-0.0121218880135566
1772619193294017800,5.513017822265625,-0.23964286885559558,0.050019583927094935,0.012321502238884568
1772619193304049200,5.523049072265625,-0.2680114697277546,0.05763400445356965,0.04581416812650859
1772619193314080300,5.533080322265625,-0.255365923166275,0.016921470315009353,0.05286320985518395
1772619193324111000,5.543111083984375,-0.23187983363866804,-0.027577888885885474,0.0495413719560951
1772619193334142200,5.55314208984375,-0.2410924831420183,-0.05476750910654664,0.03685154786147177
1772619193344173300,5.56317333984375,-0.23046821327507494,-0.07529109556674957,0.01890153821632266
1772619193354204200,5.5732041015625,-0.2315244443297386,-0.08847454839721322,0.035527313520386815
1772619193364235300,5.5832353515625,-0.285944601303339,-0.0938278921239078,0.05792020098380744
1772619193374267100,5.59326708984375,-0.3549327973335981,-0.05878419740200042,0.025030177164450287
1772619193384298000,5.603298095703125,-0.3997767321884632,-0.04533127998039126,0.017577084679529068
1772619193394329000,5.6133291015625,-0.3574953412979841,-0.018687310943752526,0.05254764109998941
1772619193404360200,5.623360107421875,-0.28796704704165454,-0.009651625442504882,0.05977671557068824
1772619193414391300,5.633391357421875,-0.13751578881144522,0.0011715279974043368,0.06329181101955474
1772619193424422100,5.643422119140625,-0.025752865415811538,-0.009717384155094624,0.04501848770417273
1772619193434453200,5.653453369140625,0.052525721529126164,-0.016659604508429765,0.019930296742171047
1772619193444485000,5.663485107421875,0.09112403999269009,-0.03171484256014228,0.005856763204187154
1772619193454516200,5.67351611328125,0.1719640018582344,-0.009640373396128415,-0.08295812306329607
1772619193464547000,5.683547119140625,0.24253216055631635,-0.029813977374881503,-0.08846402700319886
1772619193474578200,5.693578125,0.3161170367270708,-0.020908932515978813,-0.06352306249216198
1772619193484609000,5.703609130859375,0.365259545558691,0.026401392452418803,-0.044255832768604154
1772619193494640000,5.71364013671875,0.391309932616353,0.04195186667516827,-0.03979804964214563
1772619193504671000,5.7236708984375,0.33334757299125195,0.005573416218161583,-0.02746025385558605
1772619193514703400,5.733703369140625,0.30423370670974254,0.012405892586708068,-0.08510974813923239
1772619193524734200,5.743734130859375,0.19873685797154902,-0.00009483867660164833,-0.054665948428213595
1772619193534765300,5.753765380859375,0.04068213900029659,0.03715308809131384,-0.051082098592072724
1772619193544796200,5.763796142578125,-0.053041854357719416,0.05670388399660587,-0.03188325792960822
1772619193554827300,5.7738271484375,-0.08688567177057266,0.045333910328894854,0.03266922067552805
1772619193564858000,5.783858154296875,-0.08197159624397754,0.020980974838882685,0.07976626821942627
1772619193574889200,5.79388916015625,-0.11468085666894912,0.004180062163621187,0.045141602627187964
1772619193584921000,5.803921142578125,-0.018466215538978575,-0.009580752163380384,0.04463233793079853
1772619193594952200,5.8139521484375,0.025140870997309682,-0.04520940716639161,0.11444463676027954
1772619193604983000,5.823983154296875,-0.004794833061099052,-0.04137991200610995,0.15587430619224904
1772619193615014100,5.83401416015625,-0.09883563728332519,-0.023466654174774886,0.18655359515957534
1772619193625045200,5.844045166015625,-0.17271628153026103,0.006046586687862873,0.1300052670508623
1772619193635076400,5.854076416015625,-0.21226035641133784,-0.01616129959747195,0.1637382445003837
1772619193645107200,5.864107177734375,-0.24064240128695963,-0.011469342388957738,0.1789100216038525
1772619193655139300,5.874139404296875,-0.26023089885413647,0.009886164850741624,0.19044738772772252
1772619193665170200,5.884170166015625,-0.23926176058351992,0.03643777942880988,0.19366225812099874
1772619193675201300,5.894201171875,-0.20397826575636863,0.04840279638022184,0.16911555362455546
1772619193685232000,5.904232177734375,-0.17580606423914433,0.062179831189662214,0.1561811801843345
1772619193695263200,5.91426318359375,-0.11370645867884159,0.05066650352850556,0.13819493018202483
1772619193705294000,5.924294189453125,-0.08568097215592861,0.020381109249591828,0.13461926365233956
1772619193715325200,5.9343251953125,-0.07388415137827396,0.036183220145851375,0.14557123110368847
1772619193725357300,5.944357421875,-0.07591594946682453,0.06994900388643145,0.134055200028792
1772619193735388200,5.95438818359375,-0.04997837513387203,0.09604790626093744,0.15219590994045137
1772619193745419300,5.964419189453125,-0.0051291795819997784,0.08736132645830512,0.16235731153599917
1772619193755450400,5.974450439453125,0.022197218760848045,0.09072817254289985,0.16734467149451374
1772619193765481200,5.984481201171875,0.050558805370330806,0.07728504586294294,0.1455686738204211
1772619193775512300,5.99451220703125,0.05249240378141403,0.05588379978537559,0.12258322729133068
1772619193785543200,6.004543212890625,0.06916998233795166,0.028105858282744884,0.06615903701893985
1772619193795575000,6.014574951171875,0.07967676330506801,-0.009637450786679982,0.022616320955753326
1772619193805606100,6.024606201171875,0.10314707074165344,-0.028737434184551238,0.013000716674700378
1772619193815637000,6.034636962890625,0.10675123271346092,-0.015516425822675227,-0.009292144480347634
1772619193825668000,6.044668212890625,0.10672668279409409,-0.018044775256514548,-0.028760668929666278
1772619193835699200,6.05469921875,0.08271043191254139,0.0008704992242157459,-0.0021477526184171436
1772619193845730300,6.064730224609375,0.045885552862286565,-0.0011819032609462737,0.002966156329214573
1772619193855761400,6.074761474609375,-0.02902794156372547,0.005023088859021663,0.03666289342157542
1772619193865793300,6.084793212890625,0.025597382593154906,0.010171119271963834,-0.04905979898422956
1772619193875824000,6.09482421875,0.10157003068327904,-0.047444326611608266,-0.008268792781978845
1772619193885855200,6.104855224609375,0.07614625109136104,-0.06119111241325736,0.013301453186944126
1772619193895886000,6.114885986328125,0.05324760606288909,-0.027034429658949373,-0.01429506733417511
1772619193905917200,6.124917236328125,0.04822480946481228,-0.019316548758000134,0.008772066128998994
1772619193915948000,6.134947998046875,0.05416413638591766,-0.000544628270715475,0.050873497342690824
1772619193925979100,6.144979248046875,0.09658113635480403,0.01126972816362977,0.059915393389016386
1772619193936011000,6.155010986328125,0.10162205313146114,0.008166501451283692,0.07800466537438333
1772619193946042400,6.16504248046875,0.15607611237466334,-0.006812018102407455,-0.005281885925680399
1772619193956073200,6.1750732421875,0.20243395892381666,-0.04064750607833266,0.04280044632852077
1772619193966104300,6.185104248046875,0.14675298823416233,-0.02199088253378868,0.07596015393473207
1772619193976135200,6.19513525390625,0.03825403507053852,0.021030805329978464,0.13024550554752348
1772619193986166300,6.205166259765625,-0.10656535475254059,0.07244812722578645,0.14174129755198955
1772619193996197000,6.215197021484375,-0.22494915759265421,0.09405833987891674,0.14030746535658836
1772619194006229200,6.225229248046875,-0.29722704281806944,0.05869608072713017,0.0931345760975033
1772619194016260000,6.235260009765625,-0.31768472443521023,0.04158522531986236,0.06976217607744038
1772619194026291200,6.245291259765625,-0.2702759075284004,0.021373481287807226,0.054288639548420906
1772619194036322000,6.255322021484375,-0.1995440827012062,-0.016396131266653537,0.034654257012903686
1772619194046353200,6.265353271484375,-0.11620528975725174,-0.05050692905262112,0.017821414829418063
1772619194056384000,6.275384033203125,-0.08018821995854378,-0.03775003107115626,0.023537015997245905
1772619194066416400,6.28541650390625,-0.0789145467609167,-0.030287440105527638,0.002682370951771736
1772619194076447200,6.295447265625,-0.06581482669115066,-0.026075375368446112,0.021586174190416932
1772619194086478300,6.305478271484375,-0.04741173951625824,-0.02681041164472699,0.027352263436466455
1772619194096509200,6.31550927734375,-0.03178980749249458,-0.0035839959666132924,0.03395823757275939
1772619194106540300,6.325540283203125,-0.019640520015358924,0.006899111863970756,0.027921222430840133
1772619194116571100,6.335571044921875,0.023547464326024056,-0.0011839490875601769,0.006741875475645065
1772619194126602200,6.345602294921875,0.0615647680312395,0.011934329552203415,-0.008165113211795687
1772619194136634000,6.355634033203125,0.12303250542879104,-0.011944558685272931,-0.0342587548892945
1772619194146665200,6.365665283203125,0.18655191465914248,0.0032753684088587757,-0.027189839416369793
1772619194156696000,6.375696044921875,0.19438158537149428,0.019035101468116045,-0.010840762161836028
1772619194166727400,6.3857275390625,0.17655951295495032,0.0382134107992053,-0.02388371054306626
1772619194176758300,6.39575830078125,0.14571838448941707,0.03461874730810523,-0.021169263952597973
1772619194186789400,6.405789306640625,0.1397521695613861,0.034694442892819644,-0.011895458846539258
1772619194196820200,6.4158203125,0.12332009019851684,0.03198255358561873,0.007474500599130987
1772619194206852000,6.42585205078125,0.10129062922000884,0.04594458957314491,0.039384573470428584
1772619194216883200,6.43588330078125,0.06053834759294986,0.05537511961087584,0.0955311889104545
1772619194226914000,6.4459140625,0.023368016105890274,0.045022506292164324,0.07864668960496783
1772619194236945200,6.455945068359375,0.003420622098445892,0.02404606149792671,0.07186097498759626
1772619194246976300,6.465976318359375,0.015182371562719343,0.006817863321304321,0.07594123003855348
1772619194257007000,6.476007080078125,-0.006037526598572731,-0.026695699223875997,0.04331599463522434
1772619194267038200,6.4860380859375,-0.01602466760575771,-0.03621507658883929,0.03786481655724346
1772619194277070300,6.4960703125,-0.05980944879651069,-0.04878375852182507,0.038158977198228236
1772619194287101200,6.50610107421875,-0.11586626706123351,-0.025306875213980673,0.06275375862009823
1772619194297132300,6.51613232421875,-0.18789163883030413,0.0029093115754425525,0.058649976563081144
1772619194307163100,6.5261630859375,-0.24320728333890437,0.019484744931757447,0.1069772965542972
1772619194317194200,6.5361943359375,-0.28321897573173044,0.008319061664491891,0.12495872425101696
1772619194327225000,6.54622509765625,-0.31875381497144695,-0.011240063677728175,0.10359832164049149
1772619194337256400,6.55625634765625,-0.3220113554626703,-0.030579408789426086,0.08225508936047554
1772619194347288300,6.566288330078125,-0.28779285951852795,-0.03657704176902771,0.056709656150266526
1772619194357319400,6.5763193359375,-0.2000397572636604,-0.03410407578423619,0.05731397871896624
1772619194367350300,6.586350341796875,-0.10022153868377208,-0.028497341818362474,0.06543883298560976
1772619194377381400,6.59638134765625,-0.005142039063572883,-0.04283931703418493,0.03301080065481365
1772619194387412200,6.606412109375,0.021591654083132742,-0.04504398747161031,0.0067877604439854616
1772619194397443300,6.616443359375,0.027549101182818413,-0.04367021490037441,-0.006965601228922605
1772619194407474200,6.62647412109375,0.013988777863979339,-0.04558423182815313,-0.017423136226832867
1772619194417506300,6.63650634765625,0.007882277682423592,0.011457651951164006,0.02550985044017434
1772619194427537200,6.646537109375,0.001233341187238693,0.03933364700078964,0.042936274602636694
1772619194437568500,6.656568603515625,0.027986323556303976,0.04533113384991884,0.06056735449172556
1772619194447599400,6.666599365234375,0.07454875276684761,0.03621829145923257,0.07743095713965595
1772619194457630500,6.67663037109375,0.07575520594716072,0.05892404426410794,0.08981273819841444
1772619194467661300,6.686661376953125,0.05780746132433414,0.08037570535466075,0.09665310561247169
1772619194477692400,6.6966923828125,-0.0012076222240924835,0.09107727824151515,0.1214181290347129
1772619194487724300,6.706724365234375,-0.00812894591987133,0.07638181341290473,0.11960837619900702
1772619194497755400,6.71675537109375,-0.0024485621958971024,0.07596183443516492,0.08323723226562142
1772619194507786200,6.7267861328125,0.028006197300553322,0.05253522000983357,0.05726407516263425
1772619194517817300,6.7368173828125,0.032256255960464476,0.051484541913121934,0.06523081625811755
1772619194527848200,6.74684814453125,0.04434416863918304,0.0718551297686994,0.11052264101095496
1772619194537879300,6.75687939453125,0.07755611788928508,0.09074936146140097,0.11918174828477203
1772619194547910100,6.76691015625,0.09440320779383182,0.10705781444460152,0.15316365899406373
1772619194557942300,6.7769423828125,0.10738953061699867,0.09762333888411522,0.15735935711823404
1772619194567973400,6.786973388671875,0.1292903967797756,0.08356003447920084,0.17211729272380472
1772619194578004500,6.79700439453125,0.11283084488809109,0.08351824116408825,0.14883717409707606
1772619194588035300,6.807035400390625,0.0402764808088541,0.08508695178553462,0.12097601129040121
1772619194598066400,6.81706640625,-0.01189560497701168,0.09638327569514513,0.10802950902096926
1772619194608097300,6.82709716796875,-0.08999532822370529,0.0820382317394018,0.07236132572516799
1772619194618128400,6.83712841796875,-0.1271118836969137,0.0699054570056498,0.01563917541950941
1772619194628160300,6.84716015625,-0.08039455618560314,0.05291881249994039,-0.0012151479434221982
1772619194638191000,6.857191162109375,0.0024748656809329985,0.023764175816625356,0.013231164429709315
1772619194648222200,6.86722216796875,0.058121349579095836,0.019588351436704395,0.015320976315811275
1772619194658253300,6.87725341796875,0.07091711826622486,-0.010617986256629228,0.024926935985684393
1772619194668284400,6.887284423828125,0.0067763622671365735,-0.050154900744557376,0.010514818143099547
1772619194678315500,6.8973154296875,-0.0860427912056446,-0.04233692046999931,-0.0079451137855649
1772619194688346400,6.907346435546875,-0.15711831490397452,-0.017244710920006037,0.004039703844860196
1772619194698378200,6.917378173828125,-0.1541267318725586,-0.025495968045294283,-0.018868147403374315
1772619194708409300,6.927409423828125,-0.08642740660905837,-0.014548019181936978,-0.013417334651574492
1772619194718440200,6.937440185546875,0.01293254680931568,-0.01613455772101879,-0.02897095067948103
1772619194728471300,6.94747119140625,0.07325637486875057,-0.019947686268389223,-0.03581891687810421
1772619194738502100,6.957502197265625,0.09769114342331886,-0.05118672801032662,-0.05028678349591791
1772619194748533200,6.967533203125,0.0829231978803873,-0.03823796071857214,-0.048564708943665026
1772619194758564400,6.977564453125,0.05232464599907398,-0.016799305240064857,-0.05791947033144533
1772619194768596500,6.987596435546875,0.017696400210261344,0.001427110193669796,-0.06258863118626178
1772619194778627300,6.99762744140625,0.010417933639883994,0.015384908397495746,-0.028858722476661203
1772619194788658400,7.007658447265625,0.009673252752423285,0.023283844953775404,-0.001395692142099142
1772619194798689300,7.017689208984375,0.0036567689418792724,0.015963146676868198,-0.0014495412211865187
1772619194808720400,7.027720458984375,0.02152151145637035,0.016330957075953483,0.013067863626778125
1772619194818751200,7.037751220703125,-0.0001017068088054657,0.004724982695281505,0.0023600801948457954
1772619194828782300,7.0477822265625,-0.034957331612706186,0.02218976610675454,0.00310439575612545
1772619194838814200,7.057814208984375,-0.031956980752944945,0.01979015761911869,0.02118928382731974
1772619194848845300,7.06784521484375,-0.015609072542190551,0.027535949440300463,0.04938442782871425
1772619194858876200,7.077876220703125,-0.060310968577861786,0.014117372679710386,0.08532894384786487
1772619194868907300,7.0879072265625,-0.1394604931384325,0.042908144486695526,0.10889116735160351
1772619194878938000,7.097938232421875,-0.1713099218636751,0.08252002390697598,0.0935517785962671
1772619194888969500,7.107969482421875,-0.16441431713104246,0.05106354002207517,0.07771729980036615
1772619194899000300,7.118000244140625,-0.11252221733033656,0.016955957106500864,0.08513079092726111
1772619194909031400,7.128031494140625,-0.04853986676335335,0.019862492202967406,0.027959654745087027
1772619194919063300,7.138063232421875,0.01598082846403122,0.018081892396509647,-0.0039151276171207425
1772619194929094400,7.148094482421875,0.02482464465498924,-0.0037941315859556196,0.045524172203987835
1772619194939125200,7.158125244140625,0.019760347002744674,0.026117753205448388,0.06423150302246212
1772619194949156400,7.16815625,0.0031967502146959302,0.03868585061654448,0.0503987925030291
1772619194959187200,7.178187255859375,-0.008591887256503105,0.0470766623429954,0.06413724886775016
1772619194969218300,7.18821826171875,-0.023998130702972412,0.06381532343700527,0.07106777878329157
1772619194979249200,7.198249267578125,-0.023712884020805357,0.051172699484974146,0.04615143725685775
1772619194989281500,7.208281494140625,-0.0021229835033416745,0.024219372238218784,0.035001170754432674
1772619194999312400,7.2183125,0.00032791678011417387,0.009601356559991836,0.01216360826343298
1772619195009343500,7.228343505859375,-0.03800561326742172,0.0036963702999055384,0.01750416557379067
1772619195019374300,7.238374267578125,-0.059229018560051916,0.008708353243023157,-0.005261281529068946
1772619195029405400,7.248405517578125,-0.06628536681234837,0.023424422468245026,-0.00934423999376595
1772619195039436300,7.258436279296875,-0.037388942673802376,0.01958878982812166,0.009577171966806054
1772619195049467400,7.26846728515625,-0.005607903009653091,0.00993029625341296,-0.018803703865036367
1772619195059499300,7.278499267578125,0.046188919723033905,-0.0031586101613938805,-0.01699833494350314
1772619195069530400,7.2885302734375,0.10003040002584457,-0.03976239380687475,-0.005732479237392544
1772619195079561200,7.298561279296875,0.18016250588297844,-0.06675634532496333,-0.021559213118255136
1772619195089592300,7.30859228515625,0.20845044273436067,-0.06971256478205323,-0.0029146453376859426
1772619195099623200,7.318623046875,0.19913959355354308,-0.07689853076338768,-0.013294877315685152
1772619195109654500,7.328654541015625,0.1428629950582981,-0.0590932633511722,-0.04633431954309344
1772619195119685400,7.338685302734375,0.11574351746439933,-0.042656800074130294,-0.07106953234896063
1772619195129717200,7.34871728515625,0.05440379036068916,-0.0003787701845169067,-0.06314977220036089
1772619195139748400,7.358748291015625,0.0384159476339817,0.025967823340743778,-0.059630292837321755
1772619195149779200,7.368779296875,0.025831191349029538,0.06315846696346998,-0.04461699423119426
1772619195159810300,7.378810302734375,-0.0026408698976039886,0.07868862905055284,-0.02478277827464044
1772619195169841400,7.38884130859375,0.01635141534209251,0.06770663178712129,-0.03405680257640779
1772619195179872300,7.398872314453125,0.04717500815093517,0.019524638550728557,-0.0126457657571882
1772619195189903400,7.4089033203125,0.06129121178686618,-0.005101853183656931,0.015871376740187404
1772619195199935200,7.418935302734375,-0.010657003092765807,-0.009315086964517832,0.05827084105238318
1772619195209966300,7.42896630859375,-0.13883914636969566,0.02017009684741497,0.07797258973568677
1772619195219997400,7.43899755859375,-0.21233225260376928,0.06881532368138432,0.06365699107013642
1772619195230028300,7.4490283203125,-0.18987842873334884,0.08409355683401226,0.06182473414167761
1772619195240059400,7.459059326171875,-0.1388461606323719,0.0593254646718502,0.0920982918523252
1772619195250090200,7.46909033203125,-0.11525427264273166,0.014307342293858527,0.07487878843881189
1772619195260121300,7.479121337890625,-0.09269523483216761,-0.019074118304252624,0.06454882534332573
1772619195270153200,7.4891533203125,-0.053774844807386396,-0.031926001092791555,0.042966742806136604
1772619195280184300,7.499184326171875,0.011167875224351882,-0.023950492168962955,0.05673413300439715
1772619195290215200,7.509215087890625,0.09426292254030703,-0.05348024577498436,0.068100234214589
1772619195300246300,7.519246337890625,0.10605565166473388,-0.05778744144961238,0.05667823809869587
1772619195310277600,7.529277587890625,0.10614216090440749,-0.060790276527404784,0.0474728951189667
1772619195320308700,7.539308837890625,0.06634791065454483,-0.02658303262963891,0.0328707345969975
1772619195330339600,7.549339599609375,0.07870178079307079,0.0005075111307203769,0.029185616343468425
1772619195340371700,7.559371826171875,0.19274901573359965,0.026506314131617543,0.03208477185107767
1772619195350402600,7.569402587890625,0.27384733627438546,0.028359979174286124,0.06785941119603812
1772619195360433700,7.57943359375,0.34870120946764943,0.047562546163797376,0.10789324235543608
1772619195370464800,7.58946484375,0.4067296200662851,0.05093991364240646,0.11791633145883679
1772619195380496000,7.599495849609375,0.2363309678286314,-0.004835018941015005,0.16123897503055631
1772619195390526700,7.609526611328125,-0.062190790975093835,0.046249856130033726,0.08346979891248046
1772619195400557800,7.619557861328125,-0.3744716105401516,0.11296470040082932,0.10346117819212376
1772619195410588700,7.629588623046875,-0.4812140754252672,0.12031111764088272,-0.03577573532350361
1772619195420620800,7.639620849609375,-0.3389005309432745,0.06762202224358915,-0.025315204650908706
1772619195430651600,7.649651611328125,-0.19230945527255533,0.01150236787572503,0.026032997531443832
1772619195440682800,7.659682861328125,-0.06510521711707115,0.01646554324105382,0.06940503320284187
1772619195450713600,7.669713623046875,0.016585808619856833,-0.02187368589490652,0.07739676260910928
1772619195460744700,7.67974462890625,0.023696517407894132,-0.08327844105884433,0.052128904231265184
1772619195470775600,7.689775634765625,-0.09477730180323124,-0.15516133561730383,-0.027028292179107665
