time,seconds_elapsed,z,y,x
1772619187847100700,0.0661005859375,0.16388514637947083,-0.2716667950153351,0.1508496105670929
1772619187857131800,0.0761318359375,0.18571579456329346,-0.29180383682250977,0.15980210900306702
1772619187867162600,0.08616259765625,0.19773197174072266,-0.3041350543498993,0.15921860933303833
1772619187877193700,0.09619384765625,0.19385215640068054,-0.3179781138896942,0.15564501285552979
1772619187887225600,0.1062255859375,0.178182914853096,-0.33424124121665955,0.15788845717906952
1772619187897256700,0.116256591796875,0.17142195999622345,-0.35252711176872253,0.16669374704360962
1772619187907287600,0.12628759765625,0.17664176225662231,-0.35765743255615234,0.19070027768611908
1772619187917318700,0.136318603515625,0.1907993108034134,-0.3534614145755768,0.21643120050430298
1772619187927349500,0.146349609375,0.19572855532169342,-0.33846142888069153,0.2398177534341812
1772619187937380600,0.156380615234375,0.19038689136505127,-0.32279905676841736,0.2505369782447815
1772619187947412700,0.166412841796875,0.18350128829479218,-0.29657039046287537,0.23930855095386505
1772619187957443800,0.17644384765625,0.17270150780677795,-0.2615477740764618,0.21333928406238556
1772619187967474700,0.186474609375,0.15848396718502045,-0.23357579112052917,0.1870640069246292
1772619187977505800,0.196505859375,0.14977817237377167,-0.19426974654197693,0.1744288206100464
1772619187987536600,0.20653662109375,0.15396493673324585,-0.1552552431821823,0.1798851042985916
1772619187997567700,0.216567626953125,0.1666700839996338,-0.12460262328386307,0.1981813758611679
1772619188007599600,0.226599609375,0.18009987473487854,-0.1176600307226181,0.22025898098945618
1772619188017630500,0.23663037109375,0.18176278471946716,-0.07835201919078827,0.20548215508460999
1772619188027661600,0.24666162109375,0.16728077828884125,-0.023558812215924263,0.20029564201831818
1772619188037692700,0.256692626953125,0.16365428268909454,0.012682776898145676,0.17106665670871735
1772619188047723500,0.2667236328125,0.15870347619056702,0.07140787690877914,0.14451467990875244
1772619188057755000,0.2767548828125,0.15430182218551636,0.114839106798172,0.1330571472644806
1772619188067785700,0.28678564453125,0.14787614345550537,0.14308111369609833,0.1249757781624794
1772619188077817600,0.296817626953125,0.1472555249929428,0.16025368869304657,0.13355132937431335
1772619188087848700,0.3068486328125,0.1462925225496292,0.1765783280134201,0.15481853485107422
1772619188097879600,0.316879638671875,0.1441669464111328,0.1847408264875412,0.18009433150291443
1772619188107910700,0.32691064453125,0.13677987456321716,0.17973275482654572,0.18887263536453247
1772619188117941500,0.33694140625,0.1311960071325302,0.17254167795181274,0.1727815568447113
1772619188127972600,0.34697265625,0.12223979830741882,0.1597619652748108,0.1464032083749771
1772619188138004500,0.35700439453125,0.11684411019086838,0.13890233635902405,0.12451628595590591
1772619188148035800,0.367035888671875,0.10567694157361984,0.11574321985244751,0.10580091923475266
1772619188158066700,0.377066650390625,0.09823764115571976,0.10013984888792038,0.08569449931383133
1772619188168097800,0.387097900390625,0.08791789412498474,0.1044246107339859,0.06484514474868774
1772619188178128600,0.397128662109375,0.07380761951208115,0.13993504643440247,0.04410986229777336
1772619188188159700,0.40715966796875,0.055909305810928345,0.16869346797466278,0.022771552205085754
1772619188198191600,0.417191650390625,0.03345600515604019,0.17902737855911255,0.0032548413146287203
1772619188208222700,0.42722265625,0.025421783328056335,0.17968039214611053,-0.012108135968446732
1772619188218253600,0.437253662109375,0.022808879613876343,0.17699560523033142,-0.02527773380279541
1772619188228284700,0.44728466796875,0.025723977014422417,0.1789892464876175,-0.030161971226334572
1772619188238315500,0.4573154296875,0.02953868918120861,0.17734767496585846,-0.023879041895270348
1772619188248346600,0.4673466796875,0.03742431104183197,0.1786973625421524,-0.009765619412064552
1772619188258378800,0.477378662109375,0.03995954245328903,0.17100197076797485,0.012319264933466911
1772619188268409900,0.487409912109375,0.038891613483428955,0.15082266926765442,0.02470589242875576
1772619188278440700,0.497440673828125,0.0377906858921051,0.13314808905124664,0.032435718923807144
1772619188288471800,0.507471923828125,0.03517653048038483,0.11498000472784042,0.03823954612016678
1772619188298502400,0.51750244140625,0.04018276184797287,0.10968032479286194,0.042675573378801346
1772619188308533500,0.527533447265625,0.03567136824131012,0.10681822896003723,0.0414302796125412
1772619188318565400,0.5375654296875,0.03611725941300392,0.11022362112998962,0.036620695143938065
1772619188328596500,0.547596435546875,0.03397953882813454,0.11928129196166992,0.01950083114206791
1772619188338627300,0.55762744140625,0.033421989530324936,0.12677526473999023,0.01108844205737114
1772619188348658400,0.567658447265625,0.03523640334606171,0.12572944164276123,0.009031414985656738
1772619188358689300,0.577689208984375,0.04042310267686844,0.12947393953800201,0.012545811012387276
1772619188368720400,0.587720458984375,0.048159584403038025,0.13208916783332825,0.025964947417378426
1772619188378752500,0.59775244140625,0.05103255808353424,0.13430525362491608,0.04061037674546242
1772619188388783400,0.607783447265625,0.048164866864681244,0.12547262012958527,0.0516185536980629
1772619188398814500,0.617814453125,0.04105456918478012,0.12279337644577026,0.05688353255391121
1772619188408845300,0.62784521484375,0.02991136908531189,0.12983396649360657,0.05079687759280205
1772619188418876400,0.63787646484375,0.021324096247553825,0.1399250328540802,0.03856205195188522
1772619188428907500,0.647907470703125,0.017939750105142593,0.1331387758255005,0.024384450167417526
1772619188438938400,0.6579384765625,0.0164150670170784,0.12852294743061066,0.018236009404063225
1772619188448970200,0.66797021484375,0.021393846720457077,0.11929244548082352,0.017694855108857155
1772619188459001300,0.67800146484375,0.02152731828391552,0.1138756051659584,0.024155952036380768
1772619188469032200,0.6880322265625,0.021634643897414207,0.09448326379060745,0.04251817986369133
1772619188479063600,0.6980634765625,0.023034673184156418,0.07034825533628464,0.05602075904607773
1772619188489094400,0.708094482421875,0.0235928725451231,0.04618380218744278,0.07390575110912323
1772619188499125500,0.71812548828125,0.024384990334510803,0.019493471831083298,0.07928560674190521
1772619188509157400,0.728157470703125,0.02364889159798622,-0.006675547920167446,0.08326756209135056
1772619188519188500,0.7381884765625,0.02398643270134926,-0.025620274245738983,0.08108793944120407
1772619188529219300,0.74821923828125,0.028053879737854004,-0.0315530002117157,0.08025357127189636
1772619188539250400,0.75825048828125,0.027887409552931786,-0.034344810992479324,0.07519330084323883
1772619188549281300,0.76828125,0.03134845569729805,-0.028762292116880417,0.06664961576461792
1772619188559312400,0.7783125,0.036180004477500916,-0.022585850208997726,0.0704486146569252
1772619188569344300,0.78834423828125,0.03411019593477249,-0.02519015595316887,0.053916774690151215
1772619188579375600,0.798375732421875,0.02784724161028862,-0.017700813710689545,0.03145594149827957
1772619188589406500,0.808406494140625,0.022520387545228004,0.00012718606740236282,0.004609414376318455
1772619188599437600,0.8184375,0.017903700470924377,0.022679714486002922,-0.022176304832100868
1772619188609468400,0.828468505859375,0.014233332127332687,0.050867144018411636,-0.04813040420413017
1772619188619499500,0.83849951171875,0.020358121022582054,0.08127739280462265,-0.05797034502029419
1772619188629531400,0.848531494140625,0.023248182609677315,0.09678684920072556,-0.05322406068444252
1772619188639562500,0.8585625,0.023834899067878723,0.09227920323610306,-0.03716732934117317
1772619188649593300,0.86859326171875,0.016912013292312622,0.07208578288555145,-0.021252278238534927
1772619188659624400,0.87862451171875,0.014530953019857407,0.04432664066553116,-0.007657638285309076
1772619188669655300,0.8886552734375,0.004745700396597385,0.026248570531606674,-0.0044362787157297134
1772619188679686400,0.898686279296875,-0.0064766909927129745,0.007922643795609474,-0.012360958382487297
1772619188689718500,0.908718505859375,-0.01884574256837368,-0.005065592471510172,-0.01683693379163742
1772619188699749400,0.918749267578125,-0.02546183206140995,-0.00582315307110548,-0.01945357955992222
1772619188709780500,0.928780517578125,-0.025977153331041336,0.00585028063505888,-0.017921462655067444
1772619188719811300,0.938811279296875,-0.028208835050463676,0.0192156583070755,-0.018175791949033737
1772619188729842400,0.948842529296875,-0.024718230590224266,0.03400738909840584,-0.021231504157185555
1772619188739873500,0.95887353515625,-0.027669811621308327,0.05260424315929413,-0.020438414067029953
1772619188749905400,0.968905517578125,-0.03267628699541092,0.06518901139497757,-0.022780397906899452
1772619188759936300,0.978936279296875,-0.03240606561303139,0.07588312029838562,-0.03149799257516861
1772619188769967400,0.98896728515625,-0.03767832741141319,0.08061102777719498,-0.03349829465150833
1772619188779998200,0.998998291015625,-0.04495309293270111,0.0761098563671112,-0.04085012525320053
1772619188790029300,1.009029296875,-0.04713502153754234,0.0661429762840271,-0.04468055069446564
1772619188800060400,1.019060302734375,-0.047875385731458664,0.05397196114063263,-0.049556173384189606
1772619188810092500,1.029092529296875,-0.05145760625600815,0.04855402559041977,-0.049498382955789566
1772619188820123400,1.039123291015625,-0.04478984698653221,0.05241134762763977,-0.037887800484895706
1772619188830154500,1.049154541015625,-0.036872804164886475,0.04831567034125328,-0.020490434020757675
1772619188840185300,1.059185302734375,-0.030303316190838814,0.03740283474326134,-0.0014720028266310692
1772619188850216400,1.069216552734375,-0.026282740756869316,0.03067835420370102,0.008794482797384262
1772619188860247300,1.079247314453125,-0.023134302347898483,0.03111233003437519,0.015919947996735573
1772619188870278400,1.0892783203125,-0.016232453286647797,0.042821984738111496,0.01000559888780117
1772619188880310300,1.099310302734375,-0.014299796894192696,0.04776960611343384,0.006082496605813503
1772619188890341400,1.10934130859375,-0.008952969685196877,0.04042354226112366,0.0021229088306427
1772619188900372500,1.11937255859375,-0.00602956535294652,0.03542977571487427,-0.0067948647774755955
1772619188910403600,1.129403564453125,-0.0062207807786762714,0.029155634343624115,-0.01668184995651245
1772619188920434400,1.139434326171875,-0.007739175111055374,0.027876954525709152,-0.02527240663766861
1772619188930465500,1.149465576171875,-0.010489687323570251,0.03425868973135948,-0.030966777354478836
1772619188940497400,1.159497314453125,-0.011032994836568832,0.03346371650695801,-0.03869074583053589
1772619188950528300,1.1695283203125,-0.01065882109105587,0.029288947582244873,-0.043147012591362
1772619188960559400,1.179559326171875,-0.006080166902393103,0.017166301608085632,-0.045914214104413986
1772619188970590500,1.189590576171875,-0.011334583163261414,-0.0024737142957746983,-0.06049954891204834
1772619188980621300,1.199621337890625,-0.023619435727596283,-0.03334690257906914,-0.10097213834524155
1772619188990652400,1.20965234375,-0.04036911949515343,-0.06547048687934875,-0.16209034621715546
1772619189000684500,1.2196845703125,-0.051790788769721985,-0.07546008378267288,-0.22414715588092804
1772619189010715400,1.22971533203125,-0.05367683619260788,-0.06880750507116318,-0.26415368914604187
1772619189020746500,1.23974658203125,-0.05943485349416733,-0.06283818930387497,-0.27211901545524597
1772619189030777300,1.24977734375,-0.06408046931028366,-0.06871472299098969,-0.2514084279537201
1772619189040808400,1.259808349609375,-0.06650208681821823,-0.0690758004784584,-0.21801885962486267
1772619189050839600,1.269839599609375,-0.06877189874649048,-0.0493718683719635,-0.1722998470067978
1772619189060871400,1.279871337890625,-0.07257777452468872,-0.030360903590917587,-0.13196112215518951
1772619189070902300,1.28990234375,-0.07490670680999756,-0.008737100288271904,-0.09786813706159592
1772619189080933400,1.299933349609375,-0.08047927916049957,0.01760440692305565,-0.07651233673095703
1772619189090964200,1.309964111328125,-0.0801362618803978,0.04109615460038185,-0.06061805784702301
1772619189100995300,1.319995361328125,-0.06945889443159103,0.06436548382043839,-0.04960509389638901
1772619189111026200,1.330026123046875,-0.06740399450063705,0.08241239190101624,-0.04117805138230324
1772619189121058600,1.34005859375,-0.05752132833003998,0.08685749024152756,-0.02809802070260048
1772619189131089400,1.35008935546875,-0.05813438445329666,0.08337913453578949,-0.014409638941287994
1772619189141120500,1.36012060546875,-0.0617150254547596,0.06288620084524155,0.005461711436510086
1772619189151151400,1.3701513671875,-0.06258242577314377,0.040792614221572876,0.02552357129752636
1772619189161182500,1.380182373046875,-0.056835073977708817,0.030509866774082184,0.047331131994724274
1772619189171213300,1.39021337890625,-0.04871536046266556,0.02375289425253868,0.06570587307214737
1772619189181244400,1.400244384765625,-0.04291539266705513,0.028727635741233826,0.06914286315441132
1772619189191276300,1.4102763671875,-0.036076661199331284,0.04284451901912689,0.07012690603733063
1772619189201307400,1.420307373046875,-0.035494059324264526,0.06048206984996796,0.05864619463682175
1772619189211338200,1.430338134765625,-0.03389589488506317,0.0562945157289505,0.04408962279558182
1772619189221369600,1.44036962890625,-0.03461233526468277,0.04838542640209198,0.027106910943984985
1772619189231400400,1.450400390625,-0.033192336559295654,0.045584578067064285,0.02118191123008728
1772619189241431600,1.460431640625,-0.033499591052532196,0.03846707195043564,0.027994543313980103
1772619189251463400,1.47046337890625,-0.034461259841918945,0.029294613748788834,0.03981578350067139
1772619189261494300,1.480494384765625,-0.027349362149834633,0.028835691511631012,0.05705735459923744
1772619189271525400,1.490525390625,-0.02114020101726055,0.029382705688476562,0.0702783465385437
1772619189281556500,1.500556396484375,-0.010928301140666008,0.024625346064567566,0.08106379210948944
1772619189291587300,1.51058740234375,0.00037628505378961563,0.02386101894080639,0.08499275147914886
1772619189301618200,1.5206181640625,0.0056714629754424095,0.027398139238357544,0.08538167178630829
1772619189311650000,1.530650146484375,-0.00029881158843636513,0.04530203714966774,0.08324500918388367
1772619189321681200,1.54068115234375,-0.02347736805677414,0.07120367139577866,0.07372234761714935
1772619189331712300,1.550712158203125,-0.05854560807347298,0.10341060906648636,0.06834836304187775
1772619189341743000,1.5607431640625,-0.10103350877761841,0.1386888027191162,0.05130927264690399
1772619189351774200,1.570774169921875,-0.1314886212348938,0.16831272840499878,0.028479594737291336
1772619189361805300,1.580805419921875,-0.14873793721199036,0.19114574790000916,-0.004658830817788839
1772619189371837200,1.590837158203125,-0.1448633074760437,0.2114693820476532,-0.03080121800303459
1772619189381868000,1.600867919921875,-0.1273619532585144,0.23136389255523682,-0.04403207078576088
1772619189391899100,1.610899169921875,-0.10237777233123779,0.26535674929618835,-0.04548722133040428
1772619189401930000,1.620929931640625,-0.07327332347631454,0.29401761293411255,-0.032736361026763916
1772619189411961000,1.630961181640625,-0.056286077946424484,0.3036111295223236,-0.007450446952134371
1772619189421992000,1.640991943359375,-0.044389255344867706,0.2872462868690491,0.017826328054070473
1772619189432023000,1.65102294921875,-0.039452023804187775,0.24770338833332062,0.05411669239401817
1772619189442055200,1.66105517578125,-0.044377610087394714,0.2041151076555252,0.08311531692743301
1772619189452086300,1.671086181640625,-0.04725249856710434,0.15600642561912537,0.10559133440256119
1772619189462117000,1.6811171875,-0.05177638679742813,0.11360066384077072,0.11338134109973907
1772619189472148200,1.691148193359375,-0.060094501823186874,0.1043965145945549,0.10806328058242798
1772619189482179000,1.701178955078125,-0.06659413129091263,0.10136664658784866,0.09727436304092407
1772619189492210200,1.711210205078125,-0.06978060305118561,0.09813116490840912,0.07891879230737686
1772619189502242000,1.721241943359375,-0.06591495871543884,0.09471599012613297,0.060784000903367996
1772619189512273200,1.731273193359375,-0.05126357823610306,0.0951402336359024,0.04816700890660286
1772619189522304000,1.741303955078125,-0.03303993120789528,0.1056801974773407,0.036204271018505096
1772619189532335000,1.751335205078125,-0.024352699518203735,0.10788583010435104,0.035289209336042404
1772619189542366200,1.7613662109375,-0.027051057666540146,0.10977993905544281,0.039156027138233185
1772619189552397300,1.771397216796875,-0.042141325771808624,0.09730835258960724,0.03853817284107208
1772619189562429200,1.78142919921875,-0.059518471360206604,0.07846993207931519,0.03378922492265701
1772619189572460300,1.791460205078125,-0.0695229023694992,0.05787917599081993,0.02238689735531807
1772619189582491100,1.8014912109375,-0.07336939126253128,0.03491925448179245,-0.004217366687953472
1772619189592522200,1.811522216796875,-0.07217522710561752,0.014185747131705284,-0.0334884375333786
1772619189602553000,1.821552978515625,-0.07252373546361923,-0.0015799831598997116,-0.059494294226169586
1772619189612584200,1.831584228515625,-0.0715269148349762,-0.01878373697400093,-0.07414381206035614
1772619189622615000,1.841614990234375,-0.062229402363300323,-0.02143261209130287,-0.07139037549495697
1772619189632647000,1.85164697265625,-0.05262391269207001,-0.019101014360785484,-0.053105372935533524
1772619189642678300,1.86167822265625,-0.04975114017724991,-0.021642716601490974,-0.029571818187832832
1772619189652709000,1.871709228515625,-0.04406076297163963,-0.019971316680312157,0.0009184470400214195
1772619189662740200,1.881740234375,-0.0321759469807148,-0.02040610834956169,0.026406321674585342
1772619189672771300,1.891771240234375,-0.026197686791419983,-0.012553246691823006,0.04215598851442337
1772619189682802200,1.90180224609375,-0.01966964825987816,-0.012554127722978592,0.05302052944898605
1772619189692834000,1.911833984375,-0.016816072165966034,-0.01251151692122221,0.05507223308086395
1772619189702865200,1.921865234375,-0.01841004751622677,-0.013304771855473518,0.05023442208766937
1772619189712896000,1.93189599609375,-0.016771404072642326,-0.011054400354623795,0.03916073217988014
1772619189722927000,1.941927001953125,-0.01594788022339344,-0.007142850663512945,0.02015046589076519
1772619189732958000,1.9519580078125,-0.011941954493522644,0.004757484886795282,0.0045861536636948586
1772619189742989000,1.961989013671875,-0.007351027335971594,0.01739506423473358,-0.007073875982314348
1772619189753021200,1.972021240234375,-0.005617308896034956,0.023008741438388824,-0.012144268490374088
1772619189763052300,1.98205224609375,-0.0060218945145606995,0.024409044533967972,-0.013884730637073517
1772619189773083100,1.992083251953125,-0.0026830900460481644,0.023691056296229362,-0.006194586865603924
1772619189783114200,2.0021142578125,-0.0028972928412258625,0.02513185888528824,0.0012624353403225541
1772619189793145000,2.01214501953125,-0.005011310335248709,0.02009528875350952,0.004680070094764233
1772619189803176200,2.02217626953125,-0.0049510071985423565,0.01631220430135727,0.010590603575110435
1772619189813207000,2.03220703125,-0.00614516856148839,0.018216632306575775,0.0077125257812440395
1772619189823239200,2.0422392578125,0.0030913976952433586,0.023389924317598343,0.00408831937238574
1772619189833270000,2.05227001953125,0.009662481024861336,0.021845556795597076,-0.002987166866660118
1772619189843301000,2.062301025390625,0.015119320712983608,0.016155730932950974,-0.006533164530992508
1772619189853332000,2.07233203125,0.022999346256256104,0.007722566369920969,-0.007998702116310596
1772619189863363300,2.08236328125,0.024010691791772842,0.006297730375081301,-0.003119079163298011
1772619189873394200,2.092394287109375,0.030962608754634857,0.002388209570199251,-0.002068994799628854
1772619189883426300,2.10242626953125,0.02694544941186905,-0.009859173558652401,0.002630417700856924
1772619189893457200,2.11245703125,0.023476948961615562,-0.02552149072289467,0.0018016421236097813
1772619189903488300,2.12248828125,0.018263576552271843,-0.025283541530370712,-0.001563354628160596
1772619189913519000,2.13251904296875,0.012086108326911926,-0.020075464621186256,-0.0012206058017909527
1772619189923550200,2.14255029296875,0.004612213000655174,-0.007904818281531334,-0.009115014225244522
1772619189933581000,2.1525810546875,-0.0031788647174835205,0.009906668215990067,-0.016366003081202507
1772619189943613000,2.162613037109375,-0.001774730160832405,0.024045594036579132,-0.017186608165502548
1772619189953644000,2.17264404296875,0.000025833025574684143,0.03461674600839615,-0.016565559431910515
1772619189963675100,2.182675048828125,0.006178408861160278,0.03818453475832939,-0.012557322159409523
1772619189973706200,2.192706298828125,0.012295423075556755,0.026191258803009987,-0.005859205964952707
1772619189983737300,2.2027373046875,0.012261420488357544,0.010139860212802887,-0.006626912858337164
1772619189993768200,2.212768310546875,0.011584976688027382,0.0007623373530805111,-0.002795423148199916
1772619190003799300,2.22279931640625,0.00783463753759861,-0.006380957551300526,0.004788816906511784
1772619190013831200,2.2328310546875,0.0015796716324985027,-0.015082304365932941,0.013186297379434109
1772619190023862000,2.242862060546875,-0.0007645711302757263,-0.011801334097981453,0.015631258487701416
1772619190033893000,2.25289306640625,0.0000543505884706974,0.00033682165667414665,0.013498866930603981
1772619190043924000,2.262924072265625,-0.003193084616214037,0.007895158603787422,0.0036449055187404156
1772619190053955000,2.272955078125,-0.007683706935495138,0.014816179871559143,-0.005796533077955246
1772619190063986200,2.282986083984375,-0.006015916354954243,0.026109252125024796,-0.009182831272482872
1772619190074018300,2.293018310546875,-0.0062601277604699135,0.030659262090921402,-0.009778846055269241
1772619190084049200,2.303049072265625,-0.005583634600043297,0.032548122107982635,-0.01156005822122097
1772619190094080300,2.313080322265625,-0.0036685559898614883,0.038442496210336685,-0.005567412823438644
1772619190104111000,2.323111083984375,-0.005332210101187229,0.0403224378824234,-0.0015545611968263984
1772619190114142200,2.33314208984375,-0.006931438110768795,0.036866988986730576,-0.0051658074371516705
1772619190124173000,2.343173095703125,-0.006737655960023403,0.03114739991724491,-0.008980164304375648
1772619190134204200,2.3532041015625,-0.005040955729782581,0.026225613430142403,-0.011707508005201817
1772619190144236000,2.363236083984375,-0.0031909774988889694,0.021332649514079094,-0.010045873932540417
1772619190154267100,2.37326708984375,-0.004364898428320885,0.013694969937205315,0.000044843065552413464
1772619190164298000,2.383298095703125,0.0003214441239833832,0.006237568333745003,0.010816529393196106
1772619190174329000,2.3933291015625,-0.0016868459060788155,0.010768670588731766,0.017856063321232796
1772619190184360200,2.403360107421875,0.004158814437687397,0.013962619006633759,0.016176940873265266
1772619190194391300,2.413391357421875,0.008020131848752499,0.022137191146612167,0.011879664845764637
1772619190204423200,2.423423095703125,0.00849749892950058,0.023440586403012276,0.0042953332886099815
1772619190214454300,2.433454345703125,0.009065285325050354,0.026308279484510422,-0.006842539180070162
1772619190224485000,2.443485107421875,0.00944792665541172,0.019387375563383102,-0.014001290313899517
1772619190234516200,2.45351611328125,0.006884634029120207,0.014681837521493435,-0.014501964673399925
1772619190244547000,2.463547119140625,0.0034680133685469627,0.009577209129929543,-0.01587233692407608
1772619190254578200,2.473578125,0.0038933204486966133,0.012594837695360184,-0.014747950248420238
1772619190264610000,2.483610107421875,0.00810415018349886,0.015209821984171867,-0.01511351764202118
1772619190274641200,2.49364111328125,0.015071512199938297,0.018755288794636726,-0.013719885610044003
1772619190284672300,2.50367236328125,0.01962311938405037,0.015290515497326851,-0.013133191503584385
1772619190294703400,2.513703369140625,0.024582192301750183,0.004977956414222717,-0.00976003147661686
1772619190304734500,2.523734375,0.028962671756744385,0.0017510992474853992,-0.003732760204002261
1772619190314765600,2.533765625,0.0271245576441288,-0.008151332847774029,0.001715002115815878
1772619190324796400,2.54379638671875,0.02286491170525551,-0.013943434692919254,0.007649675477296114
1772619190334828500,2.55382861328125,0.017550572752952576,-0.014985796064138412,0.007862993516027927
1772619190344859600,2.563859619140625,0.014089489355683327,-0.012249436229467392,0.007473369129002094
1772619190354890500,2.573890380859375,0.014396818354725838,-0.009456046856939793,0.004682642407715321
1772619190364921600,2.583921630859375,0.018003908917307854,-0.002065414097160101,0.002620032522827387
1772619190374952400,2.593952392578125,0.020585842430591583,0.0011058780364692211,0.001028527389280498
1772619190384983600,2.603983642578125,0.02053949423134327,-0.0017566638998687267,0.005449545569717884
1772619190395015400,2.614015380859375,0.02205829508602619,-0.013561125844717026,0.007282066624611616
1772619190405046500,2.624046630859375,0.022200889885425568,-0.025981904938817024,0.009266035631299019
1772619190415077400,2.634077392578125,0.01945064216852188,-0.03993340581655502,0.017375094816088676
1772619190425108500,2.6441083984375,0.01622629724442959,-0.054530445486307144,0.025879815220832825
1772619190435139300,2.654139404296875,0.01616744138300419,-0.0675964504480362,0.03218324854969978
1772619190445170700,2.664170654296875,0.01278283353894949,-0.07827268540859222,0.0432315468788147
1772619190455201500,2.674201416015625,0.01416714396327734,-0.09041643887758255,0.04965429753065109
1772619190465233700,2.684233642578125,0.016469234600663185,-0.10596248507499695,0.06488828361034393
1772619190475264500,2.694264404296875,0.015474277548491955,-0.11330002546310425,0.08461698144674301
1772619190485295600,2.704295654296875,0.014506068080663681,-0.12873178720474243,0.10696028172969818
1772619190495326500,2.714326416015625,0.012111886404454708,-0.1449086219072342,0.11960630863904953
1772619190505357600,2.724357666015625,0.02499638870358467,-0.12751387059688568,0.13194029033184052
1772619190515388400,2.734388427734375,0.03574517369270325,-0.09816237539052963,0.13397812843322754
1772619190525420500,2.744420654296875,0.03822953999042511,-0.07391208410263062,0.12934964895248413
1772619190535451400,2.754451416015625,0.03912276402115822,-0.040068369358778,0.11202126741409302
1772619190545482800,2.764482666015625,0.03267237916588783,-0.010057590901851654,0.08982905000448227
1772619190555513600,2.774513671875,0.025159871205687523,0.008067350834608078,0.05293574556708336
1772619190565544700,2.784544677734375,0.017856910824775696,0.018742505460977554,0.02386983297765255
1772619190575575600,2.794575439453125,0.013446184806525707,0.02382301725447178,-0.00009222445078194141
1772619190585607400,2.804607421875,0.010529777966439724,0.02212367206811905,-0.013038648292422295
1772619190595638500,2.814638427734375,0.000950920395553112,0.014953911304473877,-0.02623887173831463
1772619190605669400,2.82466943359375,-0.007190764881670475,0.013052990660071373,-0.033719874918460846
1772619190615700500,2.834700439453125,-0.008788928389549255,0.019696246832609177,-0.044420987367630005
1772619190625731600,2.844731689453125,-0.013455087319016457,0.022691909223794937,-0.051413822919130325
1772619190635762400,2.854762451171875,-0.012365588918328285,0.024345731362700462,-0.05774069204926491
1772619190645793500,2.86479345703125,-0.006566917058080435,0.027143465355038643,-0.05253838747739792
1772619190655825700,2.87482568359375,0.004368022084236145,0.023980429396033287,-0.04524878039956093
1772619190665856500,2.8848564453125,0.008775915019214153,0.01416287012398243,-0.03922000527381897
1772619190675887600,2.8948876953125,0.0130540169775486,-0.0034531420096755028,-0.03665671497583389
1772619190685918500,2.90491845703125,0.014168646186590195,-0.023622676730155945,-0.03593588247895241
1772619190695949600,2.914949462890625,0.013259442523121834,-0.03139244765043259,-0.03245406597852707
1772619190705980400,2.92498046875,0.012238845229148865,-0.031077293679118156,-0.03633074089884758
1772619190716011500,2.935011474609375,0.009278741665184498,-0.025520874187350273,-0.04348985105752945
1772619190726043400,2.94504345703125,0.00975270289927721,-0.02159997820854187,-0.058176394551992416
1772619190736074500,2.955074462890625,0.015262249857187271,-0.012338569387793541,-0.07152868062257767
1772619190746105300,2.965105224609375,0.01978915184736252,-0.0050758058205246925,-0.08696382492780685
1772619190756136400,2.975136474609375,0.029320072382688522,-0.0077956924214959145,-0.0871017798781395
1772619190766167600,2.98516748046875,0.0323297455906868,-0.009942872449755669,-0.0735948458313942
1772619190776198700,2.99519873046875,0.041036952286958694,-0.012761562131345272,-0.057173267006874084
1772619190786230500,3.00523046875,0.050491813570261,-0.020473450422286987,-0.034537456929683685
1772619190796261600,3.01526171875,0.05752228945493698,-0.020204735919833183,-0.019904185086488724
1772619190806292500,3.02529248046875,0.05454028397798538,-0.018490782007575035,-0.014440979808568954
1772619190816323600,3.035323486328125,0.05204809829592705,-0.01382971741259098,-0.01001746952533722
1772619190826354400,3.0453544921875,0.04722561314702034,0.0004185992293059826,-0.011694636195898056
1772619190836385500,3.055385498046875,0.045396555215120316,0.014156781136989594,-0.011842175386846066
1772619190846417400,3.06541748046875,0.040316566824913025,0.028395729139447212,-0.008736493065953255
1772619190856448500,3.075448486328125,0.03805580735206604,0.03686963766813278,-0.012746946886181831
1772619190866479600,3.085479736328125,0.03325365483760834,0.041106075048446655,-0.01288605760782957
1772619190876510700,3.0955107421875,0.03097638487815857,0.03639361262321472,-0.0007740014116279781
1772619190886541600,3.10554150390625,0.02979649230837822,0.03206328675150871,0.005661979783326387
1772619190896572700,3.11557275390625,0.032897211611270905,0.02367539517581463,0.015276256948709488
1772619190906603500,3.125603515625,0.029721902683377266,0.02509297803044319,0.025250859558582306
1772619190916635400,3.135635498046875,0.026630505919456482,0.022401319816708565,0.038430843502283096
1772619190926666500,3.14566650390625,0.020072661340236664,0.023438723757863045,0.040391288697719574
1772619190936697600,3.155697509765625,0.0159575454890728,0.02269516885280609,0.04240037500858307
1772619190946728400,3.165728515625,0.009762616828083992,0.016588477417826653,0.037353597581386566
1772619190956759600,3.175759521484375,-0.001539839431643486,0.002929922193288803,0.025845546275377274
1772619190966790400,3.185790283203125,-0.011347386986017227,-0.0019261869601905346,0.018848001956939697
1772619190976822500,3.195822509765625,-0.009568927809596062,0.005203361622989178,0.03159894794225693
1772619190986853600,3.205853515625,-0.00920451246201992,0.015260972082614899,0.04637834057211876
1772619190996884500,3.215884521484375,0.001979433000087738,0.017455684021115303,0.06655817478895187
1772619191006915600,3.22591552734375,0.015383262187242508,0.009695719927549362,0.07809197157621384
1772619191016946400,3.235946533203125,0.026008211076259613,0.005042112898081541,0.08177033066749573
1772619191026977500,3.2459775390625,0.026744071394205093,0.008511540479958057,0.0701383501291275
1772619191037008600,3.256008544921875,0.021657433360815048,0.01478435005992651,0.04786047711968422
1772619191047040500,3.26604052734375,0.013462829403579235,0.022571375593543053,0.021876540035009384
1772619191057071400,3.2760712890625,0.011078234761953354,0.03303626924753189,-0.006264017429202795
1772619191067102500,3.2861025390625,0.010933092795312405,0.0283280648291111,-0.02640470489859581
1772619191077133300,3.29613330078125,0.015729978680610657,0.02008957602083683,-0.03592550382018089
1772619191087164700,3.30616455078125,0.02173711732029915,0.009008366614580154,-0.03318040445446968
1772619191097195500,3.316195556640625,0.030367624014616013,-0.0017646532505750656,-0.015178767964243889
1772619191107227600,3.3262275390625,0.039984382688999176,-0.002749947365373373,0.004037810023874044
1772619191117258500,3.336258544921875,0.04168987274169922,-0.0068528130650520325,0.01677917316555977
1772619191127289600,3.34628955078125,0.04265425354242325,-0.008325839415192604,0.02269226312637329
1772619191137320400,3.356320556640625,0.03821849077939987,-0.004464255645871162,0.016029834747314453
1772619191147351600,3.3663515625,0.03221718966960907,0.01782848872244358,0.008492739871144295
1772619191157382400,3.37638232421875,0.031121298670768738,0.03340505063533783,-0.006907255854457617
1772619191167413500,3.38641357421875,0.03174756094813347,0.04000602662563324,-0.019444800913333893
1772619191177445400,3.3964453125,0.03450819104909897,0.02804497256875038,-0.02610936015844345
1772619191187476700,3.406476806640625,0.03844617307186127,0.017895005643367767,-0.027950309216976166
1772619191197507600,3.416507568359375,0.040655795484781265,0.005222619511187077,-0.019575998187065125
1772619191207538700,3.42653857421875,0.04031915217638016,-0.0030712829902768135,-0.009518306702375412
1772619191217569500,3.436569580078125,0.03769354149699211,-0.0031197527423501015,-0.006340356543660164
1772619191227600600,3.4466005859375,0.03502378612756729,-0.004007060080766678,-0.005127015523612499
1772619191237632500,3.456632568359375,0.0289405919611454,0.00015679188072681427,-0.01815413497388363
1772619191247663600,3.46666357421875,0.03155231475830078,-0.0018027997575700283,-0.023971546441316605
1772619191257694500,3.476694580078125,0.03298083320260048,-0.004799654707312584,-0.029276562854647636
1772619191267725600,3.4867255859375,0.03428078815340996,-0.012745140120387077,-0.02766934223473072
1772619191277756400,3.49675634765625,0.03397319093346596,-0.025070516392588615,-0.023950770497322083
1772619191287787500,3.50678759765625,0.03235204145312309,-0.03634428605437279,-0.01992514170706272
1772619191297818000,3.516818115234375,0.03718674182891846,-0.051134947687387466,-0.008725750260055065
1772619191307850200,3.526850341796875,0.039105549454689026,-0.06181715428829193,0.004516818560659885
1772619191317881000,3.536881103515625,0.03828396648168564,-0.06085335835814476,0.015844840556383133
1772619191327912200,3.546912109375,0.04241827875375748,-0.05338183790445328,0.02412993647158146
1772619191337943000,3.556943115234375,0.04755578190088272,-0.03307656571269035,0.03231462836265564
1772619191347974400,3.566974365234375,0.04928980767726898,-0.016214724630117416,0.03673814237117767
1772619191358005200,3.577005126953125,0.04923468083143234,-0.003657120978459716,0.03712429851293564
1772619191368036400,3.587036376953125,0.04704057425260544,0.001109125092625618,0.042354561388492584
1772619191378068200,3.597068115234375,0.042207472026348114,0.005476975813508034,0.047600988298654556
1772619191388099000,3.60709912109375,0.03892478346824646,-0.0003478769212961197,0.04433827102184296
1772619191398130200,3.617130126953125,0.03680224344134331,-0.024455344304442406,0.04638597369194031
1772619191408161300,3.627161376953125,0.03259257972240448,-0.04182172939181328,0.041677676141262054
1772619191418192100,3.637192138671875,0.0336940661072731,-0.042817749083042145,0.05081977695226669
1772619191428223200,3.64722314453125,0.02833235077559948,-0.04132458567619324,0.052753325551748276
1772619191438255000,3.657255126953125,0.028474031016230583,-0.03870163857936859,0.05198740214109421
1772619191448286200,3.6672861328125,0.028976352885365486,-0.025724176317453384,0.034719645977020264
1772619191458317300,3.6773173828125,0.029011772945523262,-0.013650734908878803,0.023474447429180145
1772619191468348200,3.68734814453125,0.030244264751672745,0.0028760256245732307,0.015651408582925797
1772619191478379300,3.697379150390625,0.02889430709183216,0.007624708116054535,0.01723918505012989
1772619191488410000,3.70741015625,0.026100920513272285,0.008601909503340721,0.012876293621957302
1772619191498442200,3.717442138671875,0.021946655586361885,0.006340086925774813,0.011482661589980125
1772619191508473000,3.72747314453125,0.01623154617846012,-0.002180392388254404,0.006498295813798904
1772619191518504200,3.737504150390625,0.012143593281507492,-0.006650508381426334,0.0017014098120853305
1772619191528535000,3.74753515625,0.007338262163102627,-0.00798671692609787,-0.005479095503687859
1772619191538566100,3.757566162109375,0.0012843646109104156,-0.0037767922040075064,-0.006873526610434055
1772619191548597000,3.767596923828125,-0.0008242679759860039,0.000856899656355381,-0.013254453428089619
1772619191558628000,3.777628173828125,0.002700425684452057,0.00572542380541563,-0.016111226752400398
1772619191568660200,3.78766015625,0.011019266210496426,-0.0004103099927306175,-0.0165605116635561
1772619191578691300,3.79769140625,0.012504510581493378,-0.00975161325186491,-0.009053327143192291
1772619191588722200,3.80772216796875,0.015164703130722046,-0.013223969377577305,-0.007110455073416233
1772619191598753300,3.817753173828125,0.012008856981992722,-0.018473058938980103,-0.004070722963660955
1772619191608784100,3.8277841796875,0.006909571588039398,-0.01617319881916046,0.0011918653035536408
1772619191618815200,3.837815185546875,0.00044022081419825554,-0.010752599686384201,0.0013303497107699513
1772619191628846000,3.84784619140625,-0.0013152589090168476,-0.00226511899381876,0.002025510184466839
1772619191638878200,3.857878173828125,-0.004349664319306612,0.003742440138012171,0.0004571746103465557
1772619191648909000,3.867908935546875,-0.0012072110548615456,0.016327843070030212,0.002837865613400936
1772619191658940200,3.877940185546875,-0.0050224559381604195,0.02021898701786995,0.010633470490574837
1772619191668971300,3.88797119140625,-0.0074113705195486546,0.029013128951191902,0.015050948597490788
1772619191679002400,3.89800244140625,-0.008645744994282722,0.03381987288594246,0.023015400394797325
1772619191689033200,3.908033203125,-0.007967684417963028,0.03243184834718704,0.02117995172739029
1772619191699064300,3.918064208984375,-0.0031058178283274174,0.016140228137373924,0.022541891783475876
1772619191709096200,3.92809619140625,-0.009677411988377571,0.0015547354705631733,0.011601525358855724
1772619191719127300,3.938127197265625,-0.010369034484028816,-0.01838994398713112,0.005968940444290638
1772619191729158100,3.948158203125,-0.013190163299441338,-0.024449827149510384,0.004134385846555233
1772619191739189200,3.958189208984375,-0.010534992441534996,-0.025065816938877106,0.0016406018985435367
1772619191749220000,3.96822021484375,-0.013613339513540268,-0.02617715485394001,0.001150313881225884
1772619191759251200,3.978251220703125,-0.01134565845131874,-0.023816527798771858,-0.0008896674262359738
1772619191769283300,3.988283447265625,-0.011276168748736382,-0.019313141703605652,-0.0021594653371721506
1772619191779314200,3.998314208984375,-0.008531514555215836,-0.010702875442802906,-0.003797309473156929
1772619191789345300,4.00834521484375,-0.00759826460853219,-0.006212176755070686,-0.012075736187398434
1772619191799376100,4.018376220703125,-0.004821653012186289,-0.0029354235157370567,-0.012587862089276314
1772619191809407200,4.0284072265625,-0.004674696363508701,0.00023376848548650742,-0.01103268750011921
1772619191819438300,4.038438232421875,-0.002909553237259388,0.0023099686950445175,-0.00889576692134142
1772619191829469200,4.04846923828125,-0.007308512926101685,-0.006261889357119799,-0.00778921227902174
1772619191839501000,4.0585009765625,-0.004087952896952629,-0.009737847372889519,-0.010385794565081596
1772619191849532200,4.0685322265625,0.0018863934092223644,-0.015692777931690216,-0.005424682982265949
1772619191859563000,4.07856298828125,0.0040443530306220055,-0.015319667756557465,-0.003619592171162367
1772619191869594000,4.088593994140625,0.007055322639644146,-0.004967162385582924,0.006313731893897057
1772619191879625000,4.098625,0.006353313568979502,0.009693540632724762,0.0058138566091656685
1772619191889656300,4.10865625,0.006616719998419285,0.022643089294433594,0.00553486030548811
1772619191899688200,4.118688232421875,0.002314649522304535,0.031191568821668625,-0.0019843087065964937
1772619191909719300,4.12871923828125,0.009279364719986916,0.0344679020345211,-0.007686765398830175
1772619191919750100,4.138750244140625,0.017745818942785263,0.021590717136859894,-0.010852199047803879
1772619191929781200,4.14878125,0.023296836763620377,0.0030656037852168083,-0.013517133891582489
1772619191939812000,4.15881201171875,0.022210532799363136,-0.015126449055969715,-0.01159592904150486
1772619191949843200,4.16884326171875,0.01484057679772377,-0.029568606987595558,-0.010424228385090828
1772619191959874000,4.1788740234375,0.0019311700016260147,-0.03282911330461502,-0.016377193853259087
1772619191969906200,4.18890625,-0.005575500428676605,-0.02987275831401348,-0.020901108160614967
1772619191979937000,4.19893701171875,-0.01101846806704998,-0.019417988136410713,-0.027552086859941483
1772619191989968400,4.208968505859375,-0.010834407061338425,-0.0025657322257757187,-0.03148530423641205
1772619191999999200,4.218999267578125,-0.012329505756497383,0.005102040711790323,-0.034459520131349564
1772619192010030300,4.2290302734375,-0.009909434244036674,0.01602540910243988,-0.0357067696750164
1772619192020061200,4.239061279296875,-0.010164031758904457,0.016404908150434494,-0.034643106162548065
1772619192030092300,4.24909228515625,-0.007065178360790014,0.01661822758615017,-0.0223411675542593
1772619192040124200,4.259124267578125,0.0008172462694346905,0.008830346167087555,-0.012681880965828896
1772619192050155300,4.2691552734375,0.007638267241418362,0.00015132594853639603,-0.004709791392087936
1772619192060186000,4.27918603515625,0.011936076916754246,-0.0076589263044297695,0.002372352872043848
1772619192070217200,4.28921728515625,0.010958792641758919,-0.022517584264278412,0.00850153062492609
1772619192080248000,4.299248046875,0.003108592238277197,-0.03151294216513634,0.004124091938138008
1772619192090279200,4.309279052734375,-0.004428819753229618,-0.018829593434929848,-0.002760095987468958
1772619192100311300,4.319311279296875,-0.009296278469264507,-0.007254164200276136,-0.006477336399257183
1772619192110342100,4.329342041015625,-0.009919038973748684,0.004919474013149738,-0.005156856030225754
1772619192120373200,4.339373291015625,-0.005816971883177757,0.01681501418352127,-0.004383208230137825
1772619192130404400,4.349404296875,-0.0054533896036446095,0.024484533816576004,-0.0025433250702917576
1772619192140435200,4.359435302734375,-0.004872553516179323,0.02138834074139595,0.0034317434765398502
1772619192150466300,4.36946630859375,-0.004103571176528931,0.016958128660917282,0.005351269152015448
1772619192160497200,4.3794970703125,-0.008075942285358906,0.02158350683748722,0.006341698579490185
1772619192170529000,4.389529052734375,-0.004388526547700167,0.018333829939365387,0.003845350816845894
1772619192180560100,4.39956005859375,-0.0020215092226862907,0.007710480131208897,0.004584644455462694
1772619192190591000,4.409591064453125,0.007835285738110542,0.001068195328116417,0.007487212307751179
1772619192200622000,4.4196220703125,0.005466936621814966,-0.0015843133442103863,0.014923290349543095
1772619192210653200,4.429653076171875,0.005711451172828674,0.0009278850629925728,0.018825093284249306
1772619192220684300,4.439684326171875,0.005184677895158529,0.011973345652222633,0.02059263177216053
1772619192230715400,4.44971533203125,0.011121396906673908,0.020575355738401413,0.018620295450091362
1772619192240747300,4.459747314453125,0.014954750426113605,0.02302573062479496,0.007293073460459709
1772619192250778000,4.469778076171875,0.021054264158010483,0.013653431087732315,-0.0068782297894358635
1772619192260809200,4.479809326171875,0.026078850030899048,0.004285762552171946,-0.02771613374352455
1772619192270840000,4.489840087890625,0.025862224400043488,-0.005997703410685062,-0.036123115569353104
1772619192280871200,4.49987109375,0.027347736060619354,-0.017486046999692917,-0.04445827752351761
1772619192290902000,4.509902099609375,0.022618740797042847,-0.030622463673353195,-0.04279050976037979
1772619192300935000,4.519934814453125,0.01908658817410469,-0.029674910008907318,-0.03242388740181923
1772619192310965800,4.5299658203125,0.018933095037937164,-0.01513583306223154,-0.02367478236556053
1772619192320996900,4.539996826171875,0.01667340286076069,-0.003570790169760585,-0.021275540813803673
1772619192331027700,4.55002783203125,0.0180499330163002,0.003762432374060154,-0.02098180167376995
1772619192341058800,4.560058837890625,0.01648585870862007,0.017090754583477974,-0.02982695959508419
1772619192351089700,4.570089599609375,0.01071229949593544,0.021254688501358032,-0.03536304831504822
1772619192361120800,4.580120849609375,0.011081412434577942,0.03069160133600235,-0.0314527302980423
1772619192371152600,4.590152587890625,0.008282335475087166,0.0334339402616024,-0.026162005960941315
1772619192381183700,4.600183837890625,0.010967867448925972,0.03211727365851402,-0.011404898948967457
1772619192391214600,4.610214599609375,0.01586340367794037,0.023547956719994545,-0.010309359058737755
1772619192401245700,4.62024560546875,0.017839200794696808,0.01647087372839451,-0.0052914307452738285
1772619192411276500,4.630276611328125,0.017982039600610733,0.006677616387605667,-0.0015285821864381433
1772619192421308000,4.640307861328125,0.017253929749131203,0.001364077441394329,0.00392743619158864
1772619192431338800,4.6503388671875,0.016584455966949463,0.008720051497220993,0.006590876262634993
1772619192441370600,4.66037060546875,0.010290342383086681,0.01478646695613861,0.006037471350282431
1772619192451401700,4.670401611328125,0.0038394967559725046,0.01809806376695633,0.0006135964067652822
1772619192461432600,4.6804326171875,0.004101019352674484,0.02093805931508541,0.003356119617819786
1772619192471463700,4.690463623046875,0.002854221733286977,0.01807427778840065,0.0027680061757564545
1772619192481494800,4.700494873046875,0.0043911319226026535,0.013570873066782951,0.004371229093521833
1772619192491525600,4.710525634765625,0.004441808443516493,0.011734256520867348,0.00811261311173439
1772619192501556700,4.720556640625,0.004058046732097864,0.010556606575846672,0.007222318556159735
1772619192511588600,4.730588623046875,0.00006110919639468193,0.003735375590622425,0.0022302079014480114
1772619192521619700,4.74061962890625,-0.004789039958268404,-0.002445555292069912,-0.0028289989568293095
1772619192531650800,4.75065087890625,-0.00826755166053772,-0.012206103652715683,-0.010353578254580498
1772619192541681700,4.760681640625,-0.015016535297036171,-0.015204557217657566,-0.012158134952187538
1772619192551712800,4.770712646484375,-0.018454737961292267,-0.010558018460869789,-0.02034885808825493
1772619192561743600,4.78074365234375,-0.02419198304414749,-0.00045664887875318527,-0.020633284002542496
1772619192571775700,4.790775634765625,-0.021570883691310883,0.009229820221662521,-0.01608753204345703
1772619192581806600,4.800806640625,-0.01746934838593006,0.01952000893652439,-0.019007422029972076
1772619192591837700,4.810837646484375,-0.014100924134254456,0.017866862937808037,-0.016710272058844566
1772619192601868500,4.82086865234375,-0.01322927139699459,0.005246143322438002,-0.015909459441900253
1772619192611899600,4.830899658203125,-0.017538797110319138,-0.0026954030618071556,-0.019120698794722557
1772619192621930500,4.840930419921875,-0.022927969694137573,-0.010041732341051102,-0.015865784138441086
1772619192631961600,4.850961669921875,-0.0311711598187685,-0.01758149079978466,-0.01736709475517273
1772619192641993700,4.86099365234375,-0.030595118179917336,-0.0219085942953825,-0.013759844936430454
1772619192652024800,4.87102490234375,-0.031485773622989655,-0.015980137512087822,-0.009411778301000595
1772619192662055700,4.8810556640625,-0.02893819287419319,-0.011193105950951576,-0.006781906820833683
1772619192672086800,4.891086669921875,-0.02862277254462242,-0.012670554220676422,0.0025052973069250584
1772619192682117600,4.90111767578125,-0.027257904410362244,-0.004599045962095261,0.013993375934660435
1772619192692148700,4.911148681640625,-0.02542242221534252,0.012969797477126122,0.01658661663532257
1772619192702179600,4.9211796875,-0.02289561554789543,0.02174118533730507,0.014939451590180397
1772619192712211700,4.931211669921875,-0.02212248183786869,0.023404616862535477,0.008519371971487999
1772619192722242600,4.94124267578125,-0.01880737952888012,0.02385096251964569,0.003813565708696842
1772619192732273700,4.951273681640625,-0.01750488206744194,0.02022172510623932,0.006521293893456459
1772619192742304800,4.9613046875,-0.0179152749478817,0.0020541734993457794,0.004676522221416235
1772619192752336000,4.9713359375,-0.016755716875195503,0.000586346723139286,0.005435691215097904
1772619192762366700,4.98136669921875,-0.019126195460557938,-0.0036038709804415703,0.009466651827096939
1772619192772397800,4.991397705078125,-0.01774732396006584,-0.008990849368274212,0.005378784146159887
1772619192782429700,5.0014296875,-0.016931863501667976,-0.011092349886894226,0.005251751281321049
1772619192792460800,5.011460693359375,-0.0120774544775486,-0.0018142512999475002,0.0031626028940081596
1772619192802491600,5.02149169921875,-0.004202221520245075,0.008210419677197933,-0.00021455169189721346
1772619192812522800,5.031522705078125,-0.0038783615455031395,0.012595687992870808,-0.0006069333758205175
1772619192822553600,5.0415537109375,-0.00027723517268896103,0.006717825308442116,-0.0031041796319186687
1772619192832584700,5.051584716796875,-0.0029242285527288914,0.004129334352910519,-0.005406124982982874
1772619192842616800,5.061616943359375,-0.0031186393462121487,0.00008106278255581856,-0.006183235440403223
1772619192852647700,5.071647705078125,-0.0039484803564846516,-0.002623909618705511,-0.0031741298735141754
1772619192862678800,5.0816787109375,-0.001483724918216467,0.0027833720669150352,-0.002696891315281391
1772619192872709600,5.091709716796875,0.0004913527518510818,0.005671469494700432,-0.001351819490082562
1772619192882740700,5.10174072265625,0.0006689857691526413,0.001033041626214981,-0.0004982763784937561
1772619192892771800,5.111771728515625,0.004936795681715012,0.000652659684419632,0.0014465422136709094
1772619192902802700,5.121802734375,0.0029846983961760998,0.0036921249702572823,-0.0010778680443763733
1772619192912834600,5.13183447265625,0.008467737585306168,0.0070815542712807655,-0.006574556231498718
1772619192922865700,5.14186572265625,0.010696536861360073,0.018164832144975662,-0.01386948674917221
1772619192932896500,5.151896484375,0.015997016802430153,0.017121849581599236,-0.013857131823897362
1772619192942927600,5.161927734375,0.01640661060810089,0.01786700263619423,-0.014823859557509422
1772619192952958500,5.17195849609375,0.018566759303212166,0.023098930716514587,-0.014969627372920513
1772619192962989800,5.18198974609375,0.0193081833422184,0.023672841489315033,-0.010676877573132515
1772619192973020700,5.192020751953125,0.017869949340820312,0.024457186460494995,-0.00882590003311634
1772619192983052800,5.202052734375,0.017505628988146782,0.02208324335515499,-0.002761350478976965
1772619192993083600,5.212083740234375,0.01200493797659874,0.023915041238069534,-0.006303607486188412
1772619193003114800,5.22211474609375,0.0287447702139616,0.03696426749229431,0.004622809588909149
1772619193013145600,5.2321455078125,0.008892826735973358,0.03930879011750221,0.007816378958523273
1772619193023176700,5.2421767578125,-0.0025643580593168736,0.036007001996040344,-0.0012436951510608196
1772619193033207600,5.25220751953125,-0.0028612399473786354,0.04758124798536301,-0.011091360822319984
1772619193043238700,5.26223876953125,-0.013595908880233765,0.047567665576934814,-0.011438103392720222
1772619193053270500,5.2722705078125,-0.021547842770814896,0.025315091013908386,-0.0077959648333489895
1772619193063302000,5.282302001953125,-0.016714204102754593,0.00815820787101984,-0.006444410886615515
1772619193073332700,5.292332763671875,-0.004887795075774193,0.0007939720526337624,-0.010736711323261261
1772619193083363800,5.30236376953125,0.001503791892901063,0.010663379915058613,-0.018757885321974754
1772619193093394700,5.312394775390625,0.004453320521861315,0.01711265556514263,-0.02442837879061699
1772619193103425800,5.32242578125,0.0007563200779259205,0.014294765889644623,-0.028602086007595062
1772619193113457700,5.332457763671875,-0.003825428429991007,0.010052558034658432,-0.03055020049214363
1772619193123488800,5.34248876953125,-0.010375473648309708,0.009488500654697418,-0.025940801948308945
1772619193133519600,5.35251953125,-0.008969983085989952,0.002052397932857275,-0.022523507475852966
1772619193143550700,5.36255078125,-0.001479842234402895,-0.003244629595428705,-0.014585956931114197
1772619193153581600,5.37258154296875,0.005796310491859913,-0.00004861410707235336,-0.00985013972967863
1772619193163613700,5.38261376953125,0.007026957347989082,0.002495503518730402,-0.009291674941778183
1772619193173644800,5.392644775390625,0.008587924763560295,0.007754167541861534,-0.009862586855888367
1772619193183675600,5.402675537109375,0.00458652526140213,0.015535124577581882,-0.0182371623814106
1772619193193706800,5.412706787109375,-0.00026459526270627975,0.01582213118672371,-0.02562166377902031
1772619193203737900,5.42273779296875,-0.00018416764214634895,0.0004631495103240013,-0.02694126032292843
1772619193213768700,5.432768798828125,-0.008166661486029625,-0.03114529885351658,-0.034881990402936935
1772619193223799800,5.4427998046875,-0.007250001188367605,-0.0596214160323143,-0.0409659817814827
1772619193233831700,5.452831787109375,-0.007571196183562279,-0.0855768695473671,-0.04894721135497093
1772619193243862500,5.462862548828125,-0.006006589159369469,-0.11515101045370102,-0.05509538576006889
1772619193253893600,5.4728935546875,-0.0057806577533483505,-0.12739549577236176,-0.055138617753982544
1772619193263924500,5.482924560546875,-0.009427590295672417,-0.12372060865163803,-0.04865861311554909
1772619193273955600,5.49295556640625,-0.013367127627134323,-0.1000492051243782,-0.04963288828730583
1772619193283986700,5.502986572265625,-0.012551134452223778,-0.059380870312452316,-0.0469026155769825
1772619193294017800,5.513017822265625,-0.009590374305844307,-0.03021976351737976,-0.04557681828737259
1772619193304049200,5.523049072265625,-0.009150685742497444,-0.016212867572903633,-0.04853905364871025
1772619193314080300,5.533080322265625,-0.009058244526386261,-0.010711804032325745,-0.04843704774975777
1772619193324111000,5.543111083984375,-0.011616477742791176,-0.006574583239853382,-0.047823455184698105
1772619193334142200,5.55314208984375,-0.016126049682497978,-0.015103748999536037,-0.042218465358018875
1772619193344173300,5.56317333984375,-0.018936218693852425,-0.027636850252747536,-0.03406280279159546
1772619193354204200,5.5732041015625,-0.021029701456427574,-0.02636801451444626,-0.024525325745344162
1772619193364235300,5.5832353515625,-0.022134646773338318,-0.014174465090036392,-0.006814240477979183
1772619193374267100,5.59326708984375,-0.019757062196731567,0.0037507531233131886,0.006920941639691591
1772619193384298000,5.603298095703125,-0.015406256541609764,0.023811280727386475,0.020059913396835327
1772619193394329000,5.6133291015625,-0.010875629261136055,0.048235345631837845,0.026746373623609543
1772619193404360200,5.623360107421875,-0.008167726919054985,0.05564399063587189,0.02409413270652294
1772619193414391300,5.633391357421875,-0.008102545514702797,0.05607767775654793,0.014895669184625149
1772619193424422100,5.643422119140625,-0.009239714592695236,0.05384008586406708,0.0040749795734882355
1772619193434453200,5.653453369140625,-0.014630564488470554,0.053600236773490906,0.0005389259895309806
1772619193444485000,5.663485107421875,-0.026511456817388535,0.0466935969889164,-0.006858270149677992
1772619193454516200,5.67351611328125,-0.038920577615499496,0.04170980304479599,-0.020175328478217125
1772619193464547000,5.683547119140625,-0.04436621069908142,0.0424078144133091,-0.03283520042896271
1772619193474578200,5.693578125,-0.04839148372411728,0.037022024393081665,-0.04950667545199394
1772619193484609000,5.703609130859375,-0.04991348087787628,0.02506283111870289,-0.061502885073423386
1772619193494640000,5.71364013671875,-0.06022478640079498,0.014438517391681671,-0.07822131365537643
1772619193504671000,5.7236708984375,-0.06863558292388916,-0.004621193278580904,-0.08494819700717926
1772619193514703400,5.733703369140625,-0.07562174648046494,-0.0038979416713118553,-0.0917782187461853
1772619193524734200,5.743734130859375,-0.07669979333877563,0.01830749586224556,-0.089418925344944
1772619193534765300,5.753765380859375,-0.07532450556755066,0.031725868582725525,-0.074562206864357
1772619193544796200,5.763796142578125,-0.07554075121879578,0.032807111740112305,-0.05857392027974129
1772619193554827300,5.7738271484375,-0.06800529360771179,0.0344671867787838,-0.045019328594207764
1772619193564858000,5.783858154296875,-0.07336676865816116,0.037399329245090485,-0.04078889638185501
1772619193574889200,5.79388916015625,-0.07271482795476913,0.030596017837524414,-0.04926520586013794
1772619193584921000,5.803921142578125,-0.06980212777853012,0.017710845917463303,-0.06844742596149445
1772619193594952200,5.8139521484375,-0.0582134872674942,0.017206238582730293,-0.0783441811800003
1772619193604983000,5.823983154296875,-0.04503856599330902,0.020571675151586533,-0.07356753200292587
1772619193615014100,5.83401416015625,-0.04163271188735962,0.027225438505411148,-0.06899851560592651
1772619193625045200,5.844045166015625,-0.029626650735735893,0.020822666585445404,-0.05430479347705841
1772619193635076400,5.854076416015625,-0.019462523981928825,0.003854951821267605,-0.03373045474290848
1772619193645107200,5.864107177734375,-0.012642169371247292,-0.008351380936801434,-0.00982831884175539
1772619193655139300,5.874139404296875,-0.003318123985081911,-0.019151439890265465,0.006037360988557339
1772619193665170200,5.884170166015625,0.002419390482828021,-0.016194798052310944,0.014301949180662632
1772619193675201300,5.894201171875,0.009483358822762966,-0.008794817142188549,0.019830502569675446
1772619193685232000,5.904232177734375,0.011487653478980064,-0.002399501856416464,0.017002491280436516
1772619193695263200,5.91426318359375,0.010056191124022007,0.001287091989070177,0.010146178305149078
1772619193705294000,5.924294189453125,0.009953126311302185,0.009739432483911514,0.0097376499325037
1772619193715325200,5.9343251953125,0.014399291947484016,0.022023214027285576,0.00701388344168663
1772619193725357300,5.944357421875,0.02295549586415291,0.026457378640770912,0.009559066966176033
1772619193735388200,5.95438818359375,0.032054368406534195,0.020562108606100082,0.009689277037978172
1772619193745419300,5.964419189453125,0.04255973920226097,0.012773427180945873,0.010427771136164665
1772619193755450400,5.974450439453125,0.04518315568566322,0.004887928254902363,0.015620499849319458
1772619193765481200,5.984481201171875,0.052225351333618164,-0.004721822217106819,0.019632818177342415
1772619193775512300,5.99451220703125,0.050318751484155655,-0.01931174099445343,0.029028169810771942
1772619193785543200,6.004543212890625,0.044671785086393356,-0.028068216517567635,0.030256686732172966
1772619193795575000,6.014574951171875,0.03803938254714012,-0.028230279684066772,0.02546841837465763
1772619193805606100,6.024606201171875,0.03275167569518089,-0.016735011711716652,0.015934035181999207
1772619193815637000,6.034636962890625,0.02820645086467266,-0.005155942402780056,0.0018864996964111924
1772619193825668000,6.044668212890625,0.024726763367652893,0.009966550394892693,-0.009680141694843769
1772619193835699200,6.05469921875,0.03268444165587425,0.023805998265743256,-0.016089219599962234
1772619193845730300,6.064730224609375,0.039446473121643066,0.0282907597720623,-0.0039776964113116264
1772619193855761400,6.074761474609375,0.027885738760232925,0.004512587562203407,-0.0017292882548645139
1772619193865793300,6.084793212890625,0.025790628045797348,-0.016800956800580025,0.005118764005601406
1772619193875824000,6.09482421875,0.023430146276950836,-0.027421867474913597,0.002142227254807949
1772619193885855200,6.104855224609375,0.019154973328113556,-0.02953934669494629,-0.0028189755976200104
1772619193895886000,6.114885986328125,0.015034686774015427,-0.025260182097554207,-0.006501665338873863
1772619193905917200,6.124917236328125,0.017963631078600883,-0.014592358842492104,-0.014888226054608822
1772619193915948000,6.134947998046875,0.01897478476166725,-0.009163296781480312,-0.02733904868364334
1772619193925979100,6.144979248046875,0.02204221487045288,-0.0033666605595499277,-0.029849078506231308
1772619193936011000,6.155010986328125,0.013349076732993126,-0.018365975469350815,-0.04030774533748627
1772619193946042400,6.16504248046875,0.0063683995977044106,-0.03953117877244949,-0.05489387735724449
1772619193956073200,6.1750732421875,0.0027558046858757734,-0.05168427154421806,-0.059793565422296524
1772619193966104300,6.185104248046875,0.007113268598914146,-0.06469035148620605,-0.05717594176530838
1772619193976135200,6.19513525390625,0.015316905453801155,-0.06677443534135818,-0.04583790898323059
1772619193986166300,6.205166259765625,0.025310419499874115,-0.05741821601986885,-0.026323329657316208
1772619193996197000,6.215197021484375,0.02600443921983242,-0.044625453650951385,-0.008306511677801609
1772619194006229200,6.225229248046875,0.023158317431807518,-0.027119431644678116,0.0014877961948513985
1772619194016260000,6.235260009765625,0.023648539558053017,-0.004301880486309528,0.0012428824556991458
1772619194026291200,6.245291259765625,0.016733909025788307,0.01161130703985691,-0.005433928687125444
1772619194036322000,6.255322021484375,0.010700970888137817,0.020389452576637268,-0.015677953138947487
1772619194046353200,6.265353271484375,0.0087339598685503,0.0328112356364727,-0.02598252147436142
1772619194056384000,6.275384033203125,0.006534361280500889,0.042709220200777054,-0.031590785831213
1772619194066416400,6.28541650390625,0.0061508659273386,0.04473349079489708,-0.02877768874168396
1772619194076447200,6.295447265625,0.007229791954159737,0.04176796227693558,-0.018126467242836952
1772619194086478300,6.305478271484375,0.010763540863990784,0.03216753154993057,-0.0057504912838339806
1772619194096509200,6.31550927734375,0.013416288420557976,0.017944879829883575,0.008331761695444584
1772619194106540300,6.325540283203125,0.011900151148438454,0.007569469045847654,0.019064566120505333
1772619194116571100,6.335571044921875,0.010963322594761848,0.0017598806880414486,0.02253948338329792
1772619194126602200,6.345602294921875,0.004937388468533754,0.001203280407935381,0.015566527843475342
1772619194136634000,6.355634033203125,-0.0003116074949502945,0.0004705628380179405,-0.0014346472453325987
1772619194146665200,6.365665283203125,-0.003115649800747633,0.002214666921645403,-0.016039155423641205
1772619194156696000,6.375696044921875,-0.004624124616384506,0.011650966480374336,-0.0305603239685297
1772619194166727400,6.3857275390625,-0.008128311485052109,0.01631709188222885,-0.04193495213985443
1772619194176758300,6.39575830078125,-0.010985823348164558,0.01703782193362713,-0.046062834560871124
1772619194186789400,6.405789306640625,-0.010254785418510437,0.008662445470690727,-0.045054562389850616
1772619194196820200,6.4158203125,-0.008802423253655434,-0.011674473062157631,-0.037677790969610214
1772619194206852000,6.42585205078125,-0.004719264339655638,-0.02291860431432724,-0.02737056091427803
1772619194216883200,6.43588330078125,-0.005060989409685135,-0.030807746574282646,-0.01808706298470497
1772619194226914000,6.4459140625,-0.00777048896998167,-0.03554151579737663,-0.015327495522797108
1772619194236945200,6.455945068359375,-0.008017071522772312,-0.03246712312102318,-0.01624281331896782
1772619194246976300,6.465976318359375,-0.013786276802420616,-0.022383064031600952,-0.02917592227458954
1772619194257007000,6.476007080078125,-0.0209742933511734,-0.008436399511992931,-0.045956578105688095
1772619194267038200,6.4860380859375,-0.028526749461889267,0.007682116702198982,-0.056849174201488495
1772619194277070300,6.4960703125,-0.03202894330024719,0.02186933159828186,-0.06506015360355377
1772619194287101200,6.50610107421875,-0.028101846575737,0.031349655240774155,-0.06489264219999313
1772619194297132300,6.51613232421875,-0.024957265704870224,0.0323585607111454,-0.055657777935266495
1772619194307163100,6.5261630859375,-0.01710386946797371,0.023788508027791977,-0.03842233121395111
1772619194317194200,6.5361943359375,-0.013138048350811005,0.020857635885477066,-0.013959414325654507
1772619194327225000,6.54622509765625,-0.013153228908777237,0.02100224792957306,0.007545877248048782
1772619194337256400,6.55625634765625,-0.017614131793379784,0.027494562789797783,0.014787361025810242
1772619194347288300,6.566288330078125,-0.015504108741879463,0.037732288241386414,0.019689708948135376
1772619194357319400,6.5763193359375,-0.017892178148031235,0.04729115217924118,0.012873342260718346
1772619194367350300,6.586350341796875,-0.011994875967502594,0.06735647469758987,0.0021242916118353605
1772619194377381400,6.59638134765625,-0.019323987886309624,0.07398995757102966,-0.01284977700561285
1772619194387412200,6.606412109375,-0.028732404112815857,0.06786495447158813,-0.014762725681066513
1772619194397443300,6.616443359375,-0.030249938368797302,0.07323187589645386,-0.017162403091788292
1772619194407474200,6.62647412109375,-0.031098954379558563,0.07388009130954742,-0.009953492321074009
1772619194417506300,6.63650634765625,-0.0312962643802166,0.07230167090892792,-0.002945641055703163
1772619194427537200,6.646537109375,-0.029539112001657486,0.06995782256126404,-0.003670819802209735
1772619194437568500,6.656568603515625,-0.022960348054766655,0.06052085757255554,-0.003568036016076803
1772619194447599400,6.666599365234375,-0.014471521601080894,0.04719812422990799,0.0011912992922589183
1772619194457630500,6.67663037109375,-0.007033485919237137,0.03459490090608597,0.01087260153144598
1772619194467661300,6.686661376953125,-0.0007652039639651775,0.021472172811627388,0.024958327412605286
1772619194477692400,6.6966923828125,0.000051522161811590195,0.014313184656202793,0.035739701241254807
1772619194487724300,6.706724365234375,-0.00425161374732852,0.021929826587438583,0.03463102504611015
1772619194497755400,6.71675537109375,-0.009477110579609871,0.038335759192705154,0.028769755735993385
1772619194507786200,6.7267861328125,-0.009275242686271667,0.054352011531591415,0.016125600785017014
1772619194517817300,6.7368173828125,-0.006595050450414419,0.05144062265753746,0.009045048616826534
1772619194527848200,6.74684814453125,-0.00100294454023242,0.04734122008085251,0.0015269448049366474
1772619194537879300,6.75687939453125,0.007683984003961086,0.037919916212558746,0.0054368372075259686
1772619194547910100,6.76691015625,0.018413593992590904,0.01407876331359148,0.007768701296299696
1772619194557942300,6.7769423828125,0.02103947103023529,-0.002330788876861334,0.006663099396973848
1772619194567973400,6.786973388671875,0.026847559958696365,-0.01249580830335617,0.008610935881733894
1772619194578004500,6.79700439453125,0.0302448533475399,-0.019777627661824226,0.017076672986149788
1772619194588035300,6.807035400390625,0.030908245593309402,-0.02852025255560875,0.030424168333411217
1772619194598066400,6.81706640625,0.030191274359822273,-0.02270827442407608,0.04159411042928696
1772619194608097300,6.82709716796875,0.02650652453303337,-0.006140217185020447,0.052117593586444855
1772619194618128400,6.83712841796875,0.021305490285158157,0.01148746907711029,0.040380433201789856
1772619194628160300,6.84716015625,0.022990206256508827,0.036659132689237595,0.017685504630208015
1772619194638191000,6.857191162109375,0.024921812117099762,0.050972312688827515,-0.00835674349218607
1772619194648222200,6.86722216796875,0.026428628712892532,0.0520828515291214,-0.027425242587924004
1772619194658253300,6.87725341796875,0.027348095551133156,0.04472192004323006,-0.02902093157172203
1772619194668284400,6.887284423828125,0.025820240378379822,0.03289268910884857,-0.013906959444284439
1772619194678315500,6.8973154296875,0.02498708665370941,0.022296812385320663,0.012618998996913433
1772619194688346400,6.907346435546875,0.02347973734140396,0.011978662572801113,0.030292000621557236
1772619194698378200,6.917378173828125,0.01970134861767292,0.008447512984275818,0.03728058934211731
1772619194708409300,6.927409423828125,0.021423615515232086,0.009133810177445412,0.031839750707149506
1772619194718440200,6.937440185546875,0.016365114599466324,0.014475127682089806,0.016449695453047752
1772619194728471300,6.94747119140625,0.011897927150130272,0.011984007433056831,-0.0019325071480125189
1772619194738502100,6.957502197265625,0.006734603550285101,0.012835174798965454,-0.012517767958343029
1772619194748533200,6.967533203125,0.003116699168458581,0.013993116095662117,-0.013293280266225338
1772619194758564400,6.977564453125,-0.0006274115294218063,0.014813675545156002,-0.014356404542922974
1772619194768596500,6.987596435546875,0.0017779557965695858,0.005360252223908901,-0.010890034958720207
1772619194778627300,6.99762744140625,0.0053647663444280624,-0.006582815200090408,-0.004904676228761673
1772619194788658400,7.007658447265625,0.00664468202739954,-0.01736968196928501,0.0024331314489245415
1772619194798689300,7.017689208984375,0.005425647366791964,-0.026247266680002213,0.004080910701304674
1772619194808720400,7.027720458984375,0.0035318732261657715,-0.030061978846788406,0.013223808258771896
1772619194818751200,7.037751220703125,-0.0005183154717087746,-0.031280767172575,0.01567908003926277
1772619194828782300,7.0477822265625,0.0010795812122523785,-0.025362158194184303,0.014866549521684647
1772619194838814200,7.057814208984375,0.005865960847586393,-0.024717628955841064,0.01748451218008995
1772619194848845300,7.06784521484375,0.009558700025081635,-0.03455215319991112,0.014896986074745655
1772619194858876200,7.077876220703125,0.01819329336285591,-0.031115423887968063,0.020859183743596077
1772619194868907300,7.0879072265625,0.02107643149793148,-0.018086973577737808,0.0358426608145237
1772619194878938000,7.097938232421875,0.02460433542728424,-0.012680737301707268,0.038841117173433304
1772619194888969500,7.107969482421875,0.02386690489947796,-0.009906788356602192,0.03390335291624069
1772619194899000300,7.118000244140625,0.017010224983096123,0.006183027755469084,0.025099288672208786
1772619194909031400,7.128031494140625,0.00745746586471796,0.01627907156944275,0.011486276052892208
1772619194919063300,7.138063232421875,0.009326579049229622,0.02557237632572651,-0.0018344048876315355
1772619194929094400,7.148094482421875,0.008197132498025894,0.02937563695013523,-0.004585716873407364
1772619194939125200,7.158125244140625,0.013904538005590439,0.014858193695545197,-0.0006762014236301184
1772619194949156400,7.16815625,0.01908571831882,0.0008907117880880833,0.01528199203312397
1772619194959187200,7.178187255859375,0.018995683640241623,-0.020083898678421974,0.028387252241373062
1772619194969218300,7.18821826171875,0.01856185495853424,-0.029887527227401733,0.04315927252173424
1772619194979249200,7.198249267578125,0.019118130207061768,-0.039360467344522476,0.048930324614048004
1772619194989281500,7.208281494140625,0.016328202560544014,-0.03960787504911423,0.04481653869152069
1772619194999312400,7.2183125,0.013791181147098541,-0.0359981469810009,0.04671705886721611
1772619195009343500,7.228343505859375,0.011548800393939018,-0.024535100907087326,0.04402273893356323
1772619195019374300,7.238374267578125,0.013996165245771408,-0.013999801129102707,0.046614620834589005
1772619195029405400,7.248405517578125,0.01340787298977375,-0.010062051005661488,0.04476212337613106
1772619195039436300,7.258436279296875,0.014869323000311852,-0.009035053662955761,0.04152833670377731
1772619195049467400,7.26846728515625,0.01539742760360241,-0.013536062091588974,0.04287908971309662
1772619195059499300,7.278499267578125,0.012290282174944878,-0.029073849320411682,0.03467719256877899
1772619195069530400,7.2885302734375,0.007749060168862343,-0.048827577382326126,0.030841976404190063
1772619195079561200,7.298561279296875,0.0037672733888030052,-0.06982705742120743,0.030161093920469284
1772619195089592300,7.30859228515625,-0.003397428896278143,-0.09210626780986786,0.024992428719997406
1772619195099623200,7.318623046875,-0.010127094574272633,-0.10326885432004929,0.030128145590424538
1772619195109654500,7.328654541015625,-0.021492933854460716,-0.10464570671319962,0.028967009857296944
1772619195119685400,7.338685302734375,-0.025473039597272873,-0.0960535779595375,0.025360284373164177
1772619195129717200,7.34871728515625,-0.025835763663053513,-0.07171467691659927,0.015033877454698086
1772619195139748400,7.358748291015625,-0.021219532936811447,-0.04056946188211441,-0.004516300745308399
1772619195149779200,7.368779296875,-0.01763331890106201,-0.00692974217236042,-0.020582085475325584
1772619195159810300,7.378810302734375,-0.01293768547475338,0.01044965349137783,-0.028987718746066093
1772619195169841400,7.38884130859375,-0.01299680769443512,-0.00017396174371242523,-0.03565281257033348
1772619195179872300,7.398872314453125,-0.01262323185801506,-0.01862071081995964,-0.03648827224969864
1772619195189903400,7.4089033203125,-0.01400035247206688,-0.042911138385534286,-0.022991105914115906
1772619195199935200,7.418935302734375,-0.013866939581930637,-0.0452699139714241,-0.005370573606342077
1772619195209966300,7.42896630859375,-0.009057004004716873,-0.026715675368905067,0.00846374873071909
1772619195219997400,7.43899755859375,-0.0031410902738571167,-0.0024836580269038677,0.012116922996938229
1772619195230028300,7.4490283203125,-0.0031533408910036087,0.011181287467479706,0.011384553276002407
1772619195240059400,7.459059326171875,-0.00433768704533577,0.015366652980446815,0.004928502254188061
1772619195250090200,7.46909033203125,-0.005244758911430836,0.028369802981615067,-0.0001823703059926629
1772619195260121300,7.479121337890625,-0.005506629124283791,0.0390651598572731,-0.0026776595041155815
1772619195270153200,7.4891533203125,-0.007736227475106716,0.03750161826610565,-0.007291586138308048
1772619195280184300,7.499184326171875,-0.012297410517930984,0.023668646812438965,-0.01327943243086338
1772619195290215200,7.509215087890625,-0.01767779514193535,0.007360513787716627,-0.017445148900151253
1772619195300246300,7.519246337890625,-0.018217191100120544,0.0077608488500118256,-0.023526128381490707
1772619195310277600,7.529277587890625,-0.01643393747508526,0.015394799411296844,-0.02738984301686287
1772619195320308700,7.539308837890625,-0.018720954656600952,0.026804253458976746,-0.03829770162701607
1772619195330339600,7.549339599609375,-0.019412843510508537,0.02820400893688202,-0.06317561864852905
1772619195340371700,7.559371826171875,-0.006323567591607571,0.023315981030464172,-0.08808904141187668
1772619195350402600,7.569402587890625,0.006652684882283211,0.0059875911101698875,-0.11652626842260361
1772619195360433700,7.57943359375,0.025478942319750786,-0.03220004588365555,-0.1307661533355713
1772619195370464800,7.58946484375,0.030571704730391502,-0.07259966433048248,-0.08115065842866898
1772619195380496000,7.599495849609375,0.024831514805555344,-0.16939735412597656,-0.03898123279213905
1772619195390526700,7.609526611328125,0.029663555324077606,-0.1493525505065918,0.037844039499759674
1772619195400557800,7.619557861328125,0.02447645366191864,-0.11347512155771255,0.07910794764757156
1772619195410588700,7.629588623046875,0.008429575711488724,-0.08230815082788467,0.0774376168847084
1772619195420620800,7.639620849609375,0.006166018545627594,-0.02577373757958412,0.04773971438407898
1772619195430651600,7.649651611328125,0.01065371185541153,0.023138411343097687,0.0007378500886261463
1772619195440682800,7.659682861328125,0.01408022828400135,0.060906484723091125,-0.05205461382865906
1772619195450713600,7.669713623046875,0.0059224325232207775,0.0798596665263176,-0.09432483464479446
1772619195460744700,7.67974462890625,-0.01072613149881363,0.10833375155925751,-0.1144113689661026
1772619195470775600,7.689775634765625,-0.03623761609196663,0.09362458437681198,-0.11441615968942642
