time,seconds_elapsed,z,y,x
1772619220959909400,0.068909423828125,0.04001796245574951,0.1383286565542221,-0.0018810671754181385
1772619220969940500,0.0789404296875,0.04621167853474617,0.12028121203184128,0.018259355798363686
1772619220979971600,0.0889716796875,0.049947332590818405,0.10646311193704605,0.03487825021147728
1772619220990002700,0.099002685546875,0.05040193349123001,0.10527107864618301,0.03417197987437248
1772619221000033500,0.109033447265625,0.047623418271541595,0.10736674815416336,0.01665506698191166
1772619221010064600,0.119064697265625,0.02881937101483345,0.11989984661340714,-0.008524855598807335
1772619221020095500,0.129095458984375,0.00033427681773900986,0.15308968722820282,-0.04803745448589325
1772619221030126600,0.139126708984375,-0.02580384910106659,0.1935095489025116,-0.09664121270179749
1772619221040157400,0.149157470703125,-0.06136609986424446,0.24112370610237122,-0.153487429022789
1772619221050189600,0.159189453125,-0.1030765250325203,0.2848557233810425,-0.21395637094974518
1772619221060220400,0.169220458984375,-0.137600377202034,0.3393721878528595,-0.2746295928955078
1772619221070251500,0.17925146484375,-0.16155284643173218,0.39416831731796265,-0.32156649231910706
1772619221080282400,0.189282470703125,-0.1797868311405182,0.43420663475990295,-0.3466792106628418
1772619221090313500,0.1993134765625,-0.19515353441238403,0.4458353519439697,-0.34542912244796753
1772619221100344300,0.20934423828125,-0.19837813079357147,0.4206050634384155,-0.3167116940021515
1772619221110375700,0.219375732421875,-0.18737128376960754,0.36746835708618164,-0.2730960547924042
1772619221120406500,0.229406494140625,-0.1640835404396057,0.3128589391708374,-0.20340989530086517
1772619221130437600,0.239437744140625,-0.1388745903968811,0.2653540074825287,-0.12900890409946442
1772619221140468500,0.249468505859375,-0.11413519829511642,0.2319018393754959,-0.07093328982591629
1772619221150499600,0.25949951171875,-0.08974090963602066,0.2051519751548767,-0.03527037054300308
1772619221160530700,0.26953076171875,-0.07389198243618011,0.17742614448070526,-0.022389378398656845
1772619221170561500,0.2795615234375,-0.0712173655629158,0.1406196653842926,-0.01815228909254074
1772619221180592600,0.289592529296875,-0.06739526987075806,0.09905366599559784,-0.01915862038731575
1772619221190623500,0.29962353515625,-0.0692451074719429,0.06540834903717041,-0.015314878895878792
1772619221200654600,0.309654541015625,-0.06746070832014084,0.04458129033446312,-0.008734820410609245
1772619221210685400,0.319685546875,-0.06320205330848694,0.037518586963415146,-0.00596246961504221
1772619221220716500,0.329716552734375,-0.060892440378665924,0.039051663130521774,-0.005240860860794783
1772619221230748700,0.339748779296875,-0.05748812109231949,0.04719933867454529,-0.014935832470655441
1772619221240779500,0.349779541015625,-0.05175315588712692,0.06421230733394623,-0.024671658873558044
1772619221250810600,0.359810546875,-0.04999919980764389,0.06884407252073288,-0.04040614515542984
1772619221260841700,0.369841796875,-0.04421253502368927,0.06851231306791306,-0.05359563231468201
1772619221270872600,0.37987255859375,-0.04545596241950989,0.06096279248595238,-0.0678107887506485
1772619221280903700,0.389903564453125,-0.042836859822273254,0.05750960484147072,-0.0664798766374588
1772619221290934500,0.3999345703125,-0.03445136174559593,0.06442104279994965,-0.06441139429807663
1772619221300965600,0.409965576171875,-0.023981444537639618,0.07676351815462112,-0.060836054384708405
1772619221310996500,0.41999658203125,-0.012244895100593567,0.08280516415834427,-0.0541914664208889
1772619221321027600,0.430027587890625,-0.007619937416166067,0.08038471639156342,-0.045262839645147324
1772619221331058400,0.440058349609375,-0.00789584033191204,0.07382241636514664,-0.0358072891831398
1772619221341089500,0.450089599609375,-0.013136597350239754,0.07396967709064484,-0.025096619501709938
1772619221351120400,0.460120361328125,-0.028296642005443573,0.08505535125732422,-0.017196087166666985
1772619221361151500,0.4701513671875,-0.04630935564637184,0.09971991181373596,-0.01748170517385006
1772619221371182300,0.480182373046875,-0.06222786754369736,0.11552790552377701,-0.025513000786304474
1772619221381213400,0.49021337890625,-0.07632336765527725,0.1207718551158905,-0.038066424429416656
1772619221391244300,0.500244384765625,-0.08199111372232437,0.10830133408308029,-0.04952893406152725
1772619221401275400,0.510275390625,-0.07915210723876953,0.09799215942621231,-0.04681126028299332
1772619221411307500,0.5203076171875,-0.07155624032020569,0.08376288414001465,-0.030726030468940735
1772619221421338600,0.530338623046875,-0.07108309864997864,0.05401178449392319,-0.013058224692940712
1772619221431369500,0.540369384765625,-0.08263882249593735,0.017965367063879967,0.0026304570492357016
1772619221441400600,0.550400634765625,-0.09483636915683746,0.0007906099781394005,0.014880443923175335
1772619221451431400,0.560431396484375,-0.10306820273399353,0.009864531457424164,0.024705378338694572
1772619221461462500,0.570462646484375,-0.11103889346122742,0.036562059074640274,0.033471304923295975
1772619221471493400,0.580493408203125,-0.10916322469711304,0.07047475129365921,0.02807547152042389
1772619221481524500,0.5905244140625,-0.10098195821046829,0.09970049560070038,0.021113917231559753
1772619221491555300,0.600555419921875,-0.09240950644016266,0.11266076564788818,0.011779538355767727
1772619221501586400,0.61058642578125,-0.0742419958114624,0.12576411664485931,0.005432743579149246
1772619221511617500,0.620617431640625,-0.06416299194097519,0.1252399981021881,-0.0030166679061949253
1772619221521648400,0.6306484375,-0.04958373308181763,0.11179770529270172,0.0005162716843187809
1772619221531679500,0.640679443359375,-0.03824532777070999,0.09475399553775787,0.008797903545200825
1772619221541710600,0.650710693359375,-0.03138640522956848,0.07747300714254379,0.023672467097640038
1772619221551741700,0.66074169921875,-0.02890753373503685,0.05776854231953621,0.034250810742378235
1772619221561772500,0.6707724609375,-0.028655676171183586,0.039037782698869705,0.041419561952352524
1772619221571803600,0.6808037109375,-0.0293454360216856,0.0330030620098114,0.04531070962548256
1772619221581834500,0.69083447265625,-0.030691586434841156,0.03707951307296753,0.04599614813923836
1772619221591866400,0.700866455078125,-0.024734094738960266,0.035846736282110214,0.037387747317552567
1772619221601897500,0.7108974609375,-0.02426472306251526,0.038248300552368164,0.033849116414785385
1772619221611928600,0.720928466796875,-0.015445666387677193,0.02871737815439701,0.02901281602680683
1772619221621959400,0.73095947265625,-0.019680555909872055,0.010833075270056725,0.024171888828277588
1772619221631990500,0.740990478515625,-0.024501144886016846,-0.017221994698047638,0.018191227689385414
1772619221642021400,0.751021484375,-0.03403438627719879,-0.036028020083904266,0.019883299246430397
1772619221652052500,0.761052490234375,-0.037783849984407425,-0.03600697964429855,0.02838091365993023
1772619221662083300,0.771083251953125,-0.04605064541101456,-0.02951647713780403,0.035092178732156754
1772619221672114700,0.78111474609375,-0.055483561009168625,-0.03553256019949913,0.03982355073094368
1772619221682145500,0.7911455078125,-0.07316611707210541,-0.028163649141788483,0.054298579692840576
1772619221692176600,0.8011767578125,-0.0884619802236557,-0.007690865080803633,0.061214275658130646
1772619221702207500,0.81120751953125,-0.10368183255195618,0.03495396301150322,0.06826835125684738
1772619221712238600,0.821238525390625,-0.11223723739385605,0.07739809900522232,0.06964787095785141
1772619221722269400,0.83126953125,-0.10516372323036194,0.10812738537788391,0.06201138719916344
1772619221732300500,0.841300537109375,-0.100443534553051,0.12333562225103378,0.05316276475787163
1772619221742331400,0.851331298828125,-0.09203095734119415,0.1198253333568573,0.043656110763549805
1772619221752362500,0.861362548828125,-0.08615575730800629,0.10857347398996353,0.04921892285346985
1772619221762393600,0.8713935546875,-0.08557195961475372,0.10035733133554459,0.0661986768245697
1772619221772425500,0.881425537109375,-0.0898473933339119,0.0966147929430008,0.08190973103046417
1772619221782456300,0.891456298828125,-0.09281989932060242,0.09775269031524658,0.08794702589511871
1772619221792487400,0.9014873046875,-0.10020989924669266,0.10164915770292282,0.09010738134384155
1772619221802518500,0.9115185546875,-0.10641088336706161,0.0998968854546547,0.07994963228702545
1772619221812549600,0.921549560546875,-0.10532191395759583,0.09722600132226944,0.06541649997234344
1772619221822580500,0.93158056640625,-0.10874176025390625,0.08336671441793442,0.04536990076303482
1772619221832611600,0.941611572265625,-0.10929063707590103,0.0697084292769432,0.03105195052921772
1772619221842642400,0.951642333984375,-0.10189374536275864,0.0551406666636467,0.020465092733502388
1772619221852673500,0.961673583984375,-0.09458523243665695,0.041386768221855164,0.008467551320791245
1772619221862704600,0.97170458984375,-0.08552876859903336,0.019855838268995285,0.003519045654684305
1772619221872735500,0.981735595703125,-0.07597627490758896,0.013654668815433979,0.003055655863136053
1772619221882766600,0.9917666015625,-0.06601335108280182,0.010361911728978157,0.010907156392931938
1772619221892797400,1.00179736328125,-0.05327864736318588,0.013348912820219994,0.012764979153871536
1772619221902828500,1.01182861328125,-0.045317284762859344,0.015054265037178993,0.004550863057374954
1772619221912859400,1.021859375,-0.03831396996974945,0.0032822946086525917,-0.005123069975525141
1772619221922890500,1.031890380859375,-0.04050198197364807,-0.011942489072680473,-0.024110371246933937
1772619221932921300,1.04192138671875,-0.043599504977464676,-0.028092961758375168,-0.03656624257564545
1772619221942952400,1.051952392578125,-0.05275304615497589,-0.03947794437408447,-0.03949250653386116
1772619221952983300,1.0619833984375,-0.05712062865495682,-0.030605357140302658,-0.0425141267478466
1772619221963015700,1.072015625,-0.05052076280117035,-0.012761233374476433,-0.039687540382146835
1772619221973046500,1.082046630859375,-0.050980690866708755,-0.009983289986848831,-0.033015523105859756
1772619221983077600,1.09207763671875,-0.048744283616542816,-0.02048136480152607,-0.03356322646141052
1772619221993108500,1.1021083984375,-0.04269358143210411,-0.022919489070773125,-0.02843557670712471
1772619222003139600,1.1121396484375,-0.03658432513475418,-0.018748357892036438,-0.025106020271778107
1772619222013170400,1.12217041015625,-0.031362131237983704,-0.02381076104938984,-0.009395499713718891
1772619222023201500,1.132201416015625,-0.029614944010972977,-0.04135902598500252,0.008223283104598522
1772619222033232400,1.142232421875,-0.026778943836688995,-0.07731755822896957,0.04525986313819885
1772619222043263500,1.152263427734375,-0.012830790132284164,-0.1252441704273224,0.11575096100568771
1772619222053294300,1.16229443359375,0.010328857228159904,-0.15257327258586884,0.1926574558019638
1772619222063325400,1.172325439453125,0.03036343678832054,-0.1493118554353714,0.2599111795425415
1772619222073356300,1.182356201171875,0.05436837300658226,-0.11736297607421875,0.29252398014068604
1772619222083387600,1.1923876953125,0.06102049723267555,-0.06347741931676865,0.2848670482635498
1772619222093418500,1.20241845703125,0.06065218150615692,-0.022822672501206398,0.2569195628166199
1772619222103449600,1.21244970703125,0.054416730999946594,-0.022717824205756187,0.23118644952774048
1772619222113480400,1.22248046875,0.05816885828971863,-0.04657575115561485,0.22866202890872955
1772619222123511600,1.232511474609375,0.06782011687755585,-0.06792253255844116,0.25062039494514465
1772619222133542700,1.242542724609375,0.09353480488061905,-0.0800633430480957,0.2884277105331421
1772619222143574500,1.252574462890625,0.11316602677106857,-0.07761430740356445,0.3192308843135834
1772619222153605400,1.26260546875,0.13181081414222717,-0.06082094460725784,0.3353768289089203
1772619222163636500,1.272636474609375,0.141363725066185,-0.04213956370949745,0.32998427748680115
1772619222173667300,1.282667236328125,0.13816127181053162,-0.01648932881653309,0.31143003702163696
1772619222183698400,1.292698486328125,0.12504738569259644,0.003261448349803686,0.27507707476615906
1772619222193729300,1.302729248046875,0.11177925020456314,0.0157623253762722,0.23527666926383972
1772619222203760400,1.312760498046875,0.10045015811920166,0.025587227195501328,0.19225913286209106
1772619222213791500,1.32279150390625,0.09369451552629471,0.0332946814596653,0.15637516975402832
1772619222223822600,1.332822509765625,0.09233960509300232,0.050633057951927185,0.12394093722105026
1772619222233853700,1.342853759765625,0.08782714605331421,0.07417673617601395,0.08578236401081085
1772619222243884500,1.352884521484375,0.07225991785526276,0.0824592262506485,0.04592286795377731
1772619222253915600,1.36291552734375,0.05231044813990593,0.07753504067659378,0.015744995325803757
1772619222263946500,1.372946533203125,0.027711523696780205,0.06214530020952225,0.0005014529451727867
1772619222273977600,1.3829775390625,0.01589214988052845,0.05322424694895744,0.002835713792592287
1772619222284008400,1.393008544921875,0.004333024844527245,0.050790537148714066,0.011339091695845127
1772619222294039600,1.40303955078125,-0.001691045705229044,0.04981262609362602,0.018887288868427277
1772619222304070400,1.4130703125,-0.006087451707571745,0.0422419011592865,0.014202084392309189
1772619222314101500,1.4231015625,-0.007301586214452982,0.03760853409767151,0.00019119458738714457
1772619222324132400,1.43313232421875,-0.008752936497330666,0.025341667234897614,-0.02083187736570835
1772619222334164000,1.4431640625,-0.012585224583745003,-0.002266258466988802,-0.05108112469315529
1772619222344195800,1.45319580078125,-0.014349816367030144,-0.048353411257267,-0.06564761698246002
1772619222354227000,1.46322705078125,-0.00546497805044055,-0.0767110213637352,-0.05921022221446037
1772619222364257800,1.4732578125,0.005427509546279907,-0.07875832170248032,-0.037665922194719315
1772619222374289000,1.483288818359375,0.014749638736248016,-0.06455515325069427,-0.01754068210721016
1772619222384319700,1.49331982421875,0.01758030243217945,-0.05051632970571518,-0.00418361509218812
1772619222394350800,1.503350830078125,0.017107859253883362,-0.029941808432340622,-0.010268938727676868
1772619222404381700,1.513381591796875,0.018188338726758957,-0.0005877059884369373,-0.023055091500282288
1772619222414413000,1.5234130859375,0.017325740307569504,0.02202839031815529,-0.03784841671586037
1772619222424444000,1.53344384765625,0.014536386355757713,0.036159634590148926,-0.054711051285266876
1772619222434475000,1.54347509765625,0.009355472400784492,0.042828455567359924,-0.05846237763762474
1772619222444505900,1.553505859375,0.005218558479100466,0.048130784183740616,-0.055312953889369965
1772619222454537000,1.563536865234375,0.009090261533856392,0.029543248936533928,-0.038588035851716995
1772619222464567800,1.57356787109375,0.010789666324853897,0.012930959463119507,-0.016753342002630234
1772619222474599000,1.583598876953125,0.016121581196784973,0.015466820448637009,0.004349547438323498
1772619222484629800,1.593629638671875,0.013884710147976875,0.030059659853577614,0.014360163360834122
1772619222494660900,1.603660888671875,0.014289777725934982,0.04893774539232254,0.007407714147120714
1772619222504691700,1.613691650390625,0.013091927394270897,0.06892847269773483,-0.002729903906583786
1772619222514722800,1.623722900390625,0.009989611804485321,0.08625872433185577,-0.02488953433930874
1772619222524754000,1.63375390625,0.0063767265528440475,0.08845186233520508,-0.03786948695778847
1772619222534786000,1.6437861328125,-0.0008012917824089527,0.08791284263134003,-0.044041361659765244
1772619222544817000,1.65381689453125,-0.005380336195230484,0.08102335780858994,-0.03129538893699646
1772619222554848000,1.663847900390625,-0.007654143497347832,0.06950225681066513,-0.012313444167375565
1772619222564878800,1.67387890625,-0.004958211909979582,0.05076949670910835,0.011470652185380459
1772619222574910000,1.683909912109375,-0.0003757104277610779,0.04978173226118088,0.031991906464099884
1772619222584940800,1.69394091796875,0.0116823585703969,0.04946313798427582,0.0382758229970932
1772619222594972000,1.703971923828125,0.02410866692662239,0.03216297924518585,0.04294700548052788
1772619222605003000,1.7140029296875,0.03836098313331604,0.015856780111789703,0.04708165302872658
1772619222615033900,1.724033935546875,0.05592453107237816,-0.004365399945527315,0.06432828307151794
1772619222625065000,1.73406494140625,0.06829585134983063,-0.03997723013162613,0.08378233760595322
1772619222635095800,1.744095703125,0.07701637595891953,-0.08749788254499435,0.11439217627048492
1772619222645127000,1.754126953125,0.08404473215341568,-0.10324177891016006,0.14066126942634583
1772619222655157800,1.76415771484375,0.08652041107416153,-0.10270222276449203,0.15487828850746155
1772619222665188900,1.77418896484375,0.08860369026660919,-0.08839960396289825,0.14952410757541656
1772619222675219700,1.7842197265625,0.08227788656949997,-0.06062177196145058,0.12606698274612427
1772619222685250800,1.794250732421875,0.07568682730197906,-0.02651383727788925,0.09813017398118973
1772619222695282000,1.804281982421875,0.06854263693094254,-0.001006347592920065,0.07310711592435837
1772619222705313000,1.81431298828125,0.06333491206169128,0.02054177224636078,0.052423883229494095
1772619222715344000,1.82434375,0.0623314343392849,0.03196646645665169,0.03486805781722069
1772619222725375000,1.834375,0.057564277201890945,0.02980772592127323,0.02518591284751892
1772619222735405800,1.84440576171875,0.05069838464260101,0.02292798087000847,0.01414311584085226
1772619222745438000,1.85443798828125,0.049436651170253754,0.012497898191213608,0.0067900484427809715
1772619222755468800,1.86446875,0.04836233705282211,-0.013833841308951378,0.009807410649955273
1772619222765500000,1.8745,0.04980093985795975,-0.03184074908494949,0.013836556114256382
1772619222775530800,1.88453076171875,0.05059296637773514,-0.044591695070266724,0.02059752307832241
1772619222785561900,1.894561767578125,0.05258573219180107,-0.04498416930437088,0.023992065340280533
1772619222795592700,1.9045927734375,0.05257508158683777,-0.043920502066612244,0.022756624966859818
1772619222805623800,1.914623779296875,0.046781282871961594,-0.05315910279750824,0.016305260360240936
1772619222815654700,1.924654541015625,0.03869432955980301,-0.06418699026107788,0.011550987139344215
1772619222825686000,1.93468603515625,0.03661022335290909,-0.062017276883125305,0.003133347723633051
1772619222835716900,1.944716796875,0.03196913003921509,-0.05198035389184952,-0.00403375132009387
1772619222845748000,1.954748046875,0.03636753931641579,-0.04579874500632286,-0.012958149425685406
1772619222855778800,1.96477880859375,0.03842323645949364,-0.04080212488770485,-0.009919482283294201
1772619222865810000,1.974809814453125,0.0396030992269516,-0.03420738875865936,-0.012283365242183208
1772619222875841000,1.984841064453125,0.04405297711491585,-0.02883312851190567,-0.008027633652091026
1772619222885871900,1.994871826171875,0.048479314893484116,-0.01092749647796154,-0.015611391514539719
1772619222895903000,2.004903076171875,0.05241866037249565,-0.00008896319195628166,-0.02218727022409439
1772619222905933800,2.014933837890625,0.05062800273299217,-0.0007524993270635605,-0.03065117634832859
1772619222915965000,2.02496484375,0.048717450350522995,-0.017008699476718903,-0.02745777927339077
1772619222925995800,2.034995849609375,0.05545749515295029,-0.023164968937635422,-0.022822655737400055
1772619222936027000,2.04502685546875,0.06914027780294418,-0.03252864256501198,-0.010256796143949032
1772619222946059000,2.05505908203125,0.08709467202425003,-0.02908480539917946,-0.007846793159842491
1772619222956089900,2.06508984375,0.10223953425884247,-0.014247801154851913,-0.006887256167829037
1772619222966121000,2.075120849609375,0.11383920162916183,-0.0007146825082600117,-0.018474670127034187
1772619222976152000,2.085152099609375,0.1160525530576706,0.014187035150825977,-0.030613625422120094
1772619222986183000,2.095182861328125,0.11972388625144958,0.018460776656866074,-0.0399920679628849
1772619222996214000,2.105214111328125,0.12128476798534393,0.020080510526895523,-0.04021550714969635
1772619223006244900,2.115244873046875,0.11989665776491165,0.029068760573863983,-0.025134215131402016
1772619223016276000,2.12527587890625,0.11344034969806671,0.04675401374697685,-0.011426392011344433
1772619223026306800,2.135306884765625,0.0982893779873848,0.06583067774772644,-0.0007040374330244958
1772619223036338000,2.145337890625,0.08359432220458984,0.07824979722499847,-0.0076487623155117035
1772619223046368800,2.15536865234375,0.06764040142297745,0.08746463805437088,-0.027850419282913208
1772619223056400000,2.16539990234375,0.05844077840447426,0.08164989203214645,-0.05007316917181015
1772619223066430700,2.1754306640625,0.0507558137178421,0.07000138610601425,-0.06320319324731827
1772619223076461800,2.1854619140625,0.0485222190618515,0.06132480874657631,-0.07058148086071014
1772619223086492700,2.19549267578125,0.04763857275247574,0.04777807369828224,-0.06263995170593262
1772619223096523800,2.205523681640625,0.04397725686430931,0.026755880564451218,-0.05622652918100357
1772619223106555000,2.215554931640625,0.03775003179907799,0.008679648861289024,-0.05155910179018974
1772619223116586000,2.2255859375,0.025571392849087715,-0.00560394860804081,-0.04174508526921272
1772619223126616800,2.235616943359375,0.015478353947401047,-0.013005485758185387,-0.03338523581624031
1772619223136648000,2.24564794921875,0.006744783371686935,-0.016316061839461327,-0.025579512119293213
1772619223146679000,2.255678955078125,-0.0026858109049499035,-0.011230675503611565,-0.022733045741915703
1772619223156710000,2.2657099609375,-0.00780813442543149,-0.012210718356072903,-0.02152263931930065
1772619223166741800,2.27574169921875,-0.00944978091865778,-0.0019287052564322948,-0.020280994474887848
1772619223176772900,2.28577294921875,-0.011537966318428516,-0.002707413397729397,-0.02666965126991272
1772619223186803700,2.2958037109375,-0.007942283526062965,-0.019372839480638504,-0.02983337827026844
1772619223196834800,2.305834716796875,-0.003868712577968836,-0.03396216779947281,-0.028045864775776863
1772619223206865700,2.31586572265625,-0.005134022329002619,-0.04003708064556122,-0.024601036682724953
1772619223216896800,2.325896728515625,-0.004924963694065809,-0.03834383934736252,-0.01748480275273323
1772619223226927900,2.335927978515625,-0.0016702404245734215,-0.023001983761787415,-0.018556537106633186
1772619223236959000,2.345958984375,-0.004623152781277895,-0.006868286989629269,-0.033536553382873535
1772619223246990000,2.355989990234375,-0.007207750808447599,0.0003898921422660351,-0.04982737451791763
1772619223257021000,2.36602099609375,-0.01227547973394394,0.006579610984772444,-0.05805094912648201
1772619223267052000,2.376052001953125,-0.012650900520384312,0.01879441738128662,-0.05566401779651642
1772619223277083000,2.386082763671875,-0.012648503296077251,0.03315897285938263,-0.04476210102438927
1772619223287114000,2.396114013671875,-0.011411774903535843,0.040856070816516876,-0.03141244500875473
1772619223297144800,2.406144775390625,-0.00838562473654747,0.041873395442962646,-0.030777014791965485
1772619223307176000,2.416176025390625,0.0005639707669615746,0.053825102746486664,-0.0338364839553833
1772619223317206800,2.426206787109375,0.007592851761728525,0.06538322567939758,-0.040351107716560364
1772619223327238000,2.43623779296875,0.006246655248105526,0.06519647687673569,-0.04931908845901489
1772619223337268700,2.446268798828125,0.005504165776073933,0.05370946601033211,-0.047053802758455276
1772619223347299800,2.4562998046875,0.0006944350898265839,0.04388997331261635,-0.04225282371044159
1772619223357330700,2.46633056640625,-0.0031487722881138325,0.0218786783516407,-0.0349712111055851
1772619223367361800,2.47636181640625,-0.004482079762965441,0.0007204706780612469,-0.03211114928126335
1772619223377393700,2.4863935546875,-0.006019256543368101,-0.02254384011030197,-0.0256055798381567
1772619223387424800,2.4964248046875,-0.006775445770472288,-0.031158527359366417,-0.02454686351120472
1772619223397455600,2.50645556640625,-0.009837014600634575,-0.03447123244404793,-0.0296111311763525
1772619223407486700,2.51648681640625,-0.014601740054786205,-0.02300701104104519,-0.032339975237846375
1772619223417517600,2.526517578125,-0.017642538994550705,-0.00923633947968483,-0.03640396147966385
1772619223427548700,2.536548583984375,-0.017376458272337914,0.00933755561709404,-0.03708604350686073
1772619223437579500,2.54657958984375,-0.018694190308451653,0.02017369121313095,-0.034693725407123566
1772619223447611000,2.55661083984375,-0.012819287367165089,0.02248457260429859,-0.03395118936896324
1772619223457641700,2.566641845703125,-0.005957919172942638,0.02162543684244156,-0.02894631028175354
1772619223467672800,2.5766728515625,-0.0024907789193093777,0.014260253868997097,-0.027600567787885666
1772619223477704000,2.586703857421875,0.002230206737294793,-0.0031403079628944397,-0.017505323514342308
1772619223487734800,2.59673486328125,0.010856438428163528,-0.019978441298007965,-0.009379236027598381
1772619223497766000,2.606765869140625,0.01213155873119831,-0.02987980656325817,0.006294532213360071
1772619223507796700,2.616796630859375,0.012063175439834595,-0.03902589529752731,0.016987640410661697
1772619223517827800,2.626827880859375,0.009276444092392921,-0.02552420273423195,0.015161512419581413
1772619223527858700,2.636858642578125,0.002608449198305607,0.006895733997225761,0.0007154146442189813
1772619223537889800,2.646889892578125,-0.0036300052888691425,0.041164759546518326,-0.017243079841136932
1772619223547920600,2.656920654296875,-0.011257121339440346,0.06928512454032898,-0.04491645470261574
1772619223557951700,2.66695166015625,-0.010029669851064682,0.08117614686489105,-0.06274072825908661
1772619223567982600,2.676982666015625,-0.010564282536506653,0.08371476829051971,-0.07176127284765244
1772619223578013700,2.687013671875,-0.006396702025085688,0.0713379979133606,-0.07308512926101685
1772619223588044500,2.69704443359375,-0.003324155230075121,0.057801686227321625,-0.06368418782949448
1772619223598077000,2.707076904296875,-0.0021385164000093937,0.045418255031108856,-0.058220185339450836
1772619223608107800,2.717107666015625,0.00508421566337347,0.038493022322654724,-0.05348477140069008
1772619223618139000,2.727138916015625,0.0069124759174883366,0.04068240895867348,-0.057065658271312714
1772619223628169700,2.737169677734375,0.001195201650261879,0.030631370842456818,-0.0595778152346611
1772619223638200800,2.747200927734375,-0.005053107161074877,0.02247757464647293,-0.056054189801216125
1772619223648231700,2.757231689453125,-0.012808027677237988,0.013776222243905067,-0.04887055978178978
1772619223658262800,2.7672626953125,-0.015551350079476833,0.009618228301405907,-0.03689805418252945
1772619223668293600,2.777293701171875,-0.01713242381811142,0.010256562381982803,-0.026670482009649277
1772619223678324700,2.78732470703125,-0.013912662863731384,0.017557885497808456,-0.021196354180574417
1772619223688355600,2.79735546875,-0.00960045587271452,0.026209576055407524,-0.020987384021282196
1772619223698386700,2.80738671875,-0.000852770172059536,0.02456454373896122,-0.02805967442691326
1772619223708417500,2.81741748046875,0.0023933700285851955,0.011312982067465782,-0.023287782445549965
1772619223718448600,2.82744873046875,0.004786220379173756,0.004572522360831499,-0.009847074747085571
1772619223728479700,2.837479736328125,0.009228534996509552,-0.0047944774851202965,0.005872359964996576
1772619223738510800,2.8475107421875,0.00819096714258194,-0.021110067144036293,0.018079224973917007
1772619223748542000,2.8575419921875,0.009971161372959614,-0.028899474069476128,0.029744228348135948
1772619223758572800,2.86757275390625,0.00555697176605463,-0.021799752488732338,0.031592994928359985
1772619223768604000,2.87760400390625,0.000650492962449789,-0.007270950824022293,0.02062893472611904
1772619223778634800,2.887634765625,-0.0033128228969872,0.010220157913863659,0.001874688663519919
1772619223788665900,2.897665771484375,-0.006966692861169577,0.01933639496564865,-0.015191929414868355
1772619223798696700,2.90769677734375,-0.005312869790941477,0.017960339784622192,-0.020596016198396683
1772619223808727800,2.917727783203125,-0.0061495606787502766,0.010771320201456547,-0.019463451579213142
1772619223818758700,2.927758544921875,-0.0030059651471674442,-0.0013143704272806644,-0.013500635512173176
1772619223828790800,2.937790771484375,-0.0063629415817558765,-0.002537448424845934,-0.004879088141024113
1772619223838821600,2.947821533203125,-0.011796589940786362,0.00201602466404438,-0.007380861323326826
1772619223848852700,2.957852783203125,-0.017106251791119576,0.009024770930409431,-0.018422484397888184
1772619223858883800,2.9678837890625,-0.024142855778336525,0.007052167318761349,-0.03561904653906822
1772619223868915000,2.9779150390625,-0.02429961785674095,0.007371312007308006,-0.05360698327422142
1772619223878945800,2.98794580078125,-0.026129210367798805,0.0026676375418901443,-0.062425240874290466
1772619223888977000,2.997976806640625,-0.02704939804971218,-0.013175129890441895,-0.07237551361322403
1772619223899007700,3.0080078125,-0.029892323538661003,-0.033157359808683395,-0.07024578750133514
1772619223909038800,3.018038818359375,-0.02976851537823677,-0.05007769912481308,-0.0632631927728653
1772619223919069700,3.028069580078125,-0.029301665723323822,-0.052155494689941406,-0.053201235830783844
1772619223929100800,3.038100830078125,-0.027492858469486237,-0.03779975697398186,-0.04854684695601463
1772619223939131600,3.048131591796875,-0.023748984560370445,-0.01674959994852543,-0.04811754450201988
1772619223949162800,3.058162841796875,-0.01997104287147522,-0.007642301265150309,-0.04680560901761055
1772619223959193600,3.068193603515625,-0.020680509507656097,-0.006981570739299059,-0.04085743799805641
1772619223969224700,3.078224609375,-0.020692206919193268,0.005143032409250736,-0.02786625735461712
1772619223979255600,3.088255615234375,-0.021576909348368645,0.012255003675818443,-0.022057637572288513
1772619223989286700,3.09828662109375,-0.020574914291501045,0.019728677347302437,-0.014969822019338608
1772619223999317800,3.10831787109375,-0.018406035378575325,0.024580160155892372,-0.021452488377690315
1772619224009348600,3.1183486328125,-0.015957023948431015,0.030261803418397903,-0.02822006493806839
1772619224019380000,3.1283798828125,-0.015457947738468647,0.021706929430365562,-0.0418969988822937
1772619224029410800,3.138410888671875,-0.015555299818515778,0.00577020226046443,-0.049165673553943634
1772619224039442000,3.14844189453125,-0.01502586342394352,-0.01178588904440403,-0.04520634561777115
1772619224049472800,3.15847265625,-0.012254441156983376,-0.024127701297402382,-0.03271017223596573
1772619224059503900,3.16850390625,-0.006251676473766565,-0.03150438889861107,-0.013079480268061161
1772619224069535700,3.17853564453125,-0.004987474065274,-0.03438779339194298,0.0027048089541494846
1772619224079566600,3.188566650390625,-0.0011509237810969353,-0.02586754411458969,0.010658339597284794
1772619224089597700,3.19859765625,-0.006459732074290514,-0.020971212536096573,0.00037543848156929016
1772619224099628800,3.20862890625,-0.010298145934939384,-0.013041382655501366,-0.01548262033611536
1772619224109659600,3.21865966796875,-0.012986341491341591,-0.007162188645452261,-0.03168875724077225
1772619224119690800,3.228690673828125,-0.013169299811124802,-0.009806174784898758,-0.04603759944438934
1772619224129721600,3.2387216796875,-0.010848503559827805,-0.014457756653428078,-0.0475517176091671
1772619224139753000,3.2487529296875,-0.009091882035136223,-0.01964612677693367,-0.04154469072818756
1772619224149783800,3.25878369140625,-0.007734674494713545,-0.01925981417298317,-0.03590474650263786
1772619224159815000,3.26881494140625,-0.007677682209759951,-0.00906416866928339,-0.030958719551563263
1772619224169845800,3.278845703125,-0.014609050005674362,0.012460539117455482,-0.03969871252775192
1772619224179876900,3.288876953125,-0.019151337444782257,0.024797098711133003,-0.05943832919001579
1772619224189907700,3.29890771484375,-0.02697000280022621,0.038187604397535324,-0.07620172202587128
1772619224199938800,3.308938720703125,-0.030297089368104935,0.040844377130270004,-0.09398657828569412
1772619224209969700,3.3189697265625,-0.03082949109375477,0.03523874282836914,-0.0928240641951561
1772619224220000800,3.329000732421875,-0.02909683622419834,0.01929173246026039,-0.07547570019960403
1772619224230031600,3.339031494140625,-0.023932643234729767,0.0020975726656615734,-0.05825438350439072
1772619224240062700,3.349062744140625,-0.018402323126792908,-0.014307498931884766,-0.031703729182481766
1772619224250093800,3.35909375,-0.010816646739840508,-0.0302993506193161,-0.011676624417304993
1772619224260124700,3.369124755859375,-0.0023688343353569508,-0.029426366090774536,0.006822491064667702
1772619224270155800,3.37915576171875,0.0011596353724598885,-0.023422112688422203,0.00541625265032053
1772619224280186600,3.3891865234375,0.0009042383171617985,-0.0248572900891304,0.0032013016752898693
1772619224290217700,3.3992177734375,-0.001740728970617056,-0.02423241175711155,-0.00008491298649460077
1772619224300249900,3.409249755859375,-0.0031652534380555153,-0.02725057303905487,-0.003842100501060486
1772619224310280700,3.41928076171875,-0.004012320656329393,-0.036028582602739334,-0.0037491596303880215
1772619224320311800,3.429311767578125,-0.0037659774534404278,-0.034226421266794205,0.0031047514639794827
1772619224330342700,3.4393427734375,-0.0010265731252729893,-0.01951714977622032,0.011919144541025162
1772619224340374000,3.4493740234375,0.0027370061725378036,-0.004635939374566078,0.014256334863603115
1772619224350404900,3.45940478515625,0.0107977744191885,0.01568855717778206,0.01567373052239418
1772619224360436000,3.46943603515625,0.014979468658566475,0.028601424768567085,0.013588743284344673
1772619224370467000,3.479467041015625,0.021623656153678894,0.020718127489089966,0.013595307245850563
1772619224380498000,3.489497802734375,0.026696445420384407,0.01864618808031082,0.01749257557094097
1772619224390529000,3.499529052734375,0.03571971133351326,0.012823713943362236,0.020123528316617012
1772619224400559900,3.509559814453125,0.037850506603717804,-0.004165922291576862,0.015347681939601898
1772619224410591000,3.519591064453125,0.03848449885845184,-0.017178256064653397,0.015654604882001877
1772619224420622000,3.5296220703125,0.03576061874628067,-0.030879953876137733,0.01724211499094963
1772619224430653200,3.539653076171875,0.03041115589439869,-0.0338161438703537,0.02488400787115097
1772619224440684000,3.54968408203125,0.023351915180683136,-0.017502153292298317,0.022662663832306862
1772619224450715100,3.559715087890625,0.01877354271709919,-0.002050566952675581,0.013054419308900833
1772619224460746000,3.56974609375,0.0116162970662117,0.017869077622890472,-0.0004776350688189268
1772619224470777000,3.579777099609375,0.006816837936639786,0.030456610023975372,-0.020545760169625282
1772619224480808000,3.589807861328125,0.009707165881991386,0.04577431455254555,-0.03655748441815376
1772619224490839000,3.599839111328125,0.012587625533342361,0.04601195454597473,-0.03933855891227722
1772619224500870000,3.609869873046875,0.015660647302865982,0.029120853170752525,-0.038269300013780594
1772619224510901000,3.61990087890625,0.020987369120121002,0.007812976837158203,-0.022293170914053917
1772619224520931800,3.629931884765625,0.026891330257058144,-0.018129408359527588,-0.003239584155380726
1772619224530963000,3.639962890625,0.03117717057466507,-0.035914499312639236,0.015183381736278534
1772619224540994800,3.649994873046875,0.03346801921725273,-0.038255151361227036,0.028893601149320602
1772619224551026200,3.660026123046875,0.03152576461434364,-0.03047848679125309,0.03003687970340252
1772619224561057000,3.67005712890625,0.03059578686952591,-0.020294291898608208,0.02306019701063633
1772619224571088100,3.680088134765625,0.017256367951631546,-0.004022959619760513,0.011880717240273952
1772619224581119000,3.690118896484375,0.009853845462203026,0.020236574113368988,-0.003355493303388357
1772619224591150000,3.700150146484375,-0.0005097538232803345,0.03618566319346428,-0.020659713074564934
1772619224601181000,3.710180908203125,-0.007486170623451471,0.041861388832330704,-0.03588021174073219
1772619224611212000,3.7202119140625,-0.00830547884106636,0.03937996178865433,-0.03943755105137825
1772619224621243000,3.730242919921875,-0.010441601276397705,0.030175011605024338,-0.028334833681583405
1772619224631274000,3.74027392578125,-0.009031988680362701,0.009724065661430359,-0.013108741492033005
1772619224641305000,3.75030517578125,0.0008653821423649788,-0.005114267580211163,0.003723501693457365
1772619224651336000,3.7603359375,0.004590585827827454,-0.013798248022794724,0.015964766964316368
1772619224661367000,3.770366943359375,0.00638928497210145,-0.019932307302951813,0.020236743614077568
1772619224671398000,3.78039794921875,0.007413028739392757,-0.013407532125711441,0.017283042892813683
1772619224681429000,3.790428955078125,0.010553162544965744,-0.004290466196835041,0.016344012692570686
1772619224691459800,3.8004599609375,0.013121150434017181,0.000012453179806470871,0.006335919722914696
1772619224701491000,3.810490966796875,0.013074012473225594,-0.003899996867403388,-0.006681877188384533
1772619224711522000,3.82052197265625,0.008580085821449757,-0.009117376059293747,-0.006475966889411211
1772619224721553200,3.83055322265625,0.005015977192670107,-0.016622163355350494,-0.012614286504685879
1772619224731584000,3.840583984375,-0.0013944818638265133,-0.02131113037467003,-0.007887945510447025
1772619224741615000,3.850614990234375,-0.001693554688245058,-0.022272266447544098,-0.00738940155133605
1772619224751646000,3.86064599609375,-0.004562139976769686,-0.01488087885081768,-0.006047369912266731
1772619224761677000,3.870677001953125,0.0011940163094550371,-0.00994470901787281,0.0003258406650274992
1772619224771708000,3.8807080078125,0.004876755643635988,0.006451202556490898,0.0024730374570935965
1772619224781739000,3.890739013671875,0.00827335100620985,0.026283495128154755,0.003814738243818283
1772619224791769900,3.900769775390625,0.00773212406784296,0.03655805438756943,-0.0003884512698277831
1772619224801802000,3.910802001953125,0.0015663732774555683,0.043105702847242355,-0.01114202942699194
1772619224811832800,3.920832763671875,-0.00037306081503629684,0.04989127442240715,-0.02637573331594467
1772619224821864000,3.930864013671875,-0.004067930392920971,0.04526349902153015,-0.041680384427309036
1772619224831895000,3.94089501953125,-0.004061822313815355,0.027032000944018364,-0.05233784019947052
1772619224841926100,3.950926025390625,0.0023228400386869907,-0.0011221393942832947,-0.05352720618247986
1772619224851957000,3.96095703125,0.010037988424301147,-0.023259876295924187,-0.03743527829647064
1772619224861988000,3.970988037109375,0.021215274930000305,-0.03367070481181145,-0.009825220331549644
1772619224872019000,3.98101904296875,0.024409178644418716,-0.040174536406993866,0.01717161387205124
1772619224882050000,3.991050048828125,0.025980975478887558,-0.048300109803676605,0.031708743423223495
1772619224892081000,4.001080810546875,0.02243783324956894,-0.05711544305086136,0.033211056143045425
1772619224902112000,4.011112060546875,0.017972243949770927,-0.052462100982666016,0.028147585690021515
1772619224912143000,4.02114306640625,0.010670389980077744,-0.03423489257693291,0.02323964610695839
1772619224922174000,4.031174072265625,0.007993379607796669,-0.008910362608730793,0.005335214547812939
1772619224932205000,4.041205078125,0.004429297987371683,0.020439481362700462,-0.017205027863383293
1772619224942236000,4.05123583984375,0.006548375356942415,0.038198500871658325,-0.03694331273436546
1772619224952267000,4.06126708984375,0.0019113256130367517,0.0488700307905674,-0.051540397107601166
1772619224962297900,4.0712978515625,0.0017557970713824034,0.05556122213602066,-0.05972801893949509
1772619224972329000,4.081328857421875,0.0018459800630807877,0.04187484085559845,-0.06360811740159988
1772619224982359800,4.09135986328125,-0.003243586979806423,0.025780562311410904,-0.06000619754195213
1772619224992391200,4.10139111328125,-0.0029544797725975513,0.00805644504725933,-0.048760682344436646
1772619225002422000,4.111422119140625,-0.004625613335520029,-0.005746185779571533,-0.03463181480765343
1772619225012453000,4.121453125,-0.0060987104661762714,-0.015349941328167915,-0.018256710842251778
1772619225022484000,4.13148388671875,-0.0056241354905068874,-0.007897351868450642,-0.008629382587969303
1772619225032515000,4.14151513671875,-0.00483310641720891,0.0034831403754651546,-0.01073622889816761
1772619225042546000,4.1515458984375,-0.0055777267552912235,0.012569313868880272,-0.012659830041229725
1772619225052578000,4.161578125,-0.0044854129664599895,0.023241419345140457,-0.022746501490473747
1772619225062608100,4.171608154296875,-0.003488325048238039,0.0318189300596714,-0.028459249064326286
1772619225072640000,4.181639892578125,-0.006798834539949894,0.02994806133210659,-0.02930082567036152
1772619225082670800,4.1916708984375,-0.00942391250282526,0.020131915807724,-0.023971306160092354
1772619225092702000,4.201701904296875,-0.00872533954679966,0.006503218784928322,-0.014397764578461647
1772619225102732800,4.21173291015625,-0.0094465222209692,-0.012250760570168495,0.0012778673553839326
1772619225112764000,4.221763916015625,-0.016234582290053368,-0.03213142231106758,0.005405365955084562
1772619225122795000,4.231794921875,-0.021520957350730896,-0.038125667721033096,0.00628048088401556
1772619225132826000,4.241826171875,-0.02220279909670353,-0.03130842745304108,0.0029183179140090942
1772619225142857000,4.25185693359375,-0.022651806473731995,-0.021051527932286263,-0.0016311600338667631
1772619225152888000,4.26188818359375,-0.023128872737288475,-0.022375334054231644,-0.01091434434056282
1772619225162919200,4.271919189453125,-0.021390894427895546,-0.022697843611240387,-0.02138642594218254
1772619225172950000,4.281949951171875,-0.026082878932356834,-0.027952738106250763,-0.023472167551517487
1772619225182981000,4.291981201171875,-0.029889069497585297,-0.03756089136004448,-0.031102921813726425
1772619225193012000,4.302011962890625,-0.04014516994357109,-0.05434652790427208,-0.028441360220313072
1772619225203043000,4.31204296875,-0.047984447330236435,-0.06647908687591553,-0.027320168912410736
1772619225213074000,4.322073974609375,-0.060293048620224,-0.07406057417392731,-0.021850302815437317
1772619225223105000,4.33210498046875,-0.06659035384654999,-0.07069487124681473,-0.013548430055379868
1772619225233135900,4.342135986328125,-0.06827788054943085,-0.049739278852939606,-0.014355686493217945
1772619225243167000,4.3521669921875,-0.06556279212236404,-0.03308786451816559,-0.010547099635004997
1772619225253197800,4.36219775390625,-0.05916539952158928,-0.019840074703097343,-0.013503880240023136
1772619225263229000,4.37222900390625,-0.04823125898838043,-0.0017992882058024406,-0.01355900801718235
1772619225273259800,4.382259765625,-0.04167972877621651,0.0062620677053928375,-0.013987228274345398
1772619225283291100,4.392291015625,-0.04038623347878456,-0.002835023682564497,-0.006339694373309612
1772619225293322000,4.402322021484375,-0.038486018776893616,-0.016513662412762642,0.005846040789037943
1772619225303353000,4.41235302734375,-0.03513336554169655,-0.027498137205839157,0.021176259964704514
1772619225313384000,4.422384033203125,-0.03088085539638996,-0.040399499237537384,0.0336444266140461
1772619225323416000,4.432416015625,-0.027309289202094078,-0.04525577276945114,0.03897261619567871
1772619225333447000,4.442447021484375,-0.02538391761481762,-0.04146764054894447,0.03354702144861221
1772619225343477500,4.4524775390625,-0.021327657625079155,-0.03362702950835228,0.020984357222914696
1772619225353508400,4.46250830078125,-0.018908029422163963,-0.01999926194548607,0.0031756428070366383
1772619225363539500,4.47253955078125,-0.017473649233579636,-0.001728113740682602,-0.004066823981702328
1772619225373570600,4.482570556640625,-0.015154792927205563,0.01696653850376606,-0.005087852943688631
1772619225383601400,4.492601318359375,-0.017774011939764023,0.017464816570281982,0.0005937349051237106
1772619225393632500,4.502632568359375,-0.018647093325853348,0.004349596332758665,-0.00011033914051949978
1772619225403663400,4.512663330078125,-0.019911028444767,-0.02137148007750511,0.004878560546785593
1772619225413694500,4.522694580078125,-0.022163650020956993,-0.043036721646785736,0.007931185886263847
1772619225423725300,4.532725341796875,-0.02629794180393219,-0.05135537311434746,0.00409703329205513
1772619225433756400,4.54275634765625,-0.031320519745349884,-0.047901324927806854,0.009940442629158497
1772619225443787300,4.552787353515625,-0.03759545832872391,-0.0382460355758667,0.008594214916229248
1772619225453818400,4.562818359375,-0.0438079759478569,-0.016132965683937073,0.011744018644094467
1772619225463849200,4.57284912109375,-0.05329975113272667,0.011776162311434746,0.015105193480849266
1772619225473880300,4.58288037109375,-0.06284917145967484,0.03596637770533562,0.009939365088939667
1772619225483911200,4.5929111328125,-0.06889321655035019,0.05140632018446922,-0.0007175399223342538
1772619225493942300,4.6029423828125,-0.0812191516160965,0.05797719210386276,-0.020750857889652252
1772619225503973400,4.612973388671875,-0.09360471367835999,0.06394241005182266,-0.04142177850008011
1772619225514004500,4.62300439453125,-0.10870260745286942,0.06697188317775726,-0.06817442178726196
1772619225524035300,4.633035400390625,-0.11752486228942871,0.07051921635866165,-0.08828235417604446
1772619225534066400,4.64306640625,-0.11755217611789703,0.087176114320755,-0.10606598854064941
1772619225544097500,4.65309765625,-0.10785933583974838,0.1050371378660202,-0.11415959894657135
1772619225554128400,4.66312841796875,-0.09883907437324524,0.10561831295490265,-0.10070788115262985
1772619225564159500,4.673159423828125,-0.087294802069664,0.08194893598556519,-0.08087664842605591
1772619225574190300,4.6831904296875,-0.07265570759773254,0.05502238869667053,-0.052928801625967026
1772619225584221400,4.693221435546875,-0.06259588152170181,0.02835536189377308,-0.03117184154689312
1772619225594253300,4.70325341796875,-0.05849553644657135,0.018968623131513596,-0.014785299077630043
1772619225604284200,4.7132841796875,-0.05168876424431801,0.03060264326632023,-0.008258158341050148
1772619225614315300,4.723315185546875,-0.047996386885643005,0.045031964778900146,-0.022737698629498482
1772619225624346400,4.733346435546875,-0.044621095061302185,0.04378906637430191,-0.04059712216258049
1772619225634377500,4.74337744140625,-0.03044658713042736,0.06066538393497467,-0.05697808414697647
1772619225644408600,4.75340869140625,-0.02027357928454876,0.055506572127342224,-0.061257254332304
1772619225654439400,4.763439453125,-0.013225547969341278,0.033386945724487305,-0.048839420080184937
1772619225664470500,4.773470458984375,-0.008669413626194,0.00890290830284357,-0.03156242519617081
1772619225674501400,4.78350146484375,0.00007590232416987419,-0.004803637973964214,-0.015267923474311829
1772619225684532500,4.793532470703125,0.0027451885398477316,-0.010625308379530907,0.0026772553101181984
1772619225694563300,4.803563232421875,0.011843486689031124,-0.011457887478172779,0.014227022416889668
1772619225704594400,4.813594482421875,0.017851311713457108,-0.014791099354624748,0.016054484993219376
1772619225714625300,4.823625244140625,0.02853558026254177,-0.01975097507238388,0.013015834614634514
1772619225724656400,4.833656494140625,0.03657779097557068,-0.021934501826763153,0.005760851316154003
1772619225734687200,4.843687255859375,0.03684040531516075,-0.030393119901418686,0.005037073977291584
1772619225744718300,4.85371826171875,0.03815494105219841,-0.041333116590976715,0.0032897740602493286
1772619225754749200,4.863749267578125,0.03503597155213356,-0.05924644321203232,0.0032451876904815435
1772619225764780300,4.8737802734375,0.03148597478866577,-0.07014676183462143,0.013266130350530148
1772619225774811400,4.883811279296875,0.029542166739702225,-0.0720365047454834,0.02180299535393715
1772619225784842200,4.89384228515625,0.023422488942742348,-0.06318069249391556,0.02312445640563965
1772619225794873600,4.90387353515625,0.02352416142821312,-0.04874562844634056,0.02766956202685833
1772619225804904400,4.913904541015625,0.02219551056623459,-0.02388874813914299,0.04239577427506447
1772619225814935600,4.923935546875,0.020537620410323143,-0.016839632764458656,0.05388706922531128
1772619225824966400,4.93396630859375,0.023541666567325592,-0.026265891268849373,0.06671711057424545
1772619225834997500,4.94399755859375,0.021341262385249138,-0.03934400901198387,0.09097304195165634
1772619225845028400,4.9540283203125,0.025822298601269722,-0.06101521477103233,0.10334902256727219
1772619225855059500,4.9640595703125,0.02690904028713703,-0.07784740626811981,0.1203528344631195
1772619225865090300,4.97409033203125,0.020202135667204857,-0.06338058412075043,0.11910540610551834
1772619225875121400,4.984121337890625,0.017013074830174446,-0.04397287592291832,0.10121581703424454
1772619225885153300,4.9941533203125,0.01595446653664112,-0.020370081067085266,0.07378445565700531
1772619225895184400,5.004184326171875,0.004083400592207909,0.0016131224110722542,0.04405595734715462
1772619225905215200,5.01421533203125,-0.0011795382015407085,0.007535194046795368,0.02637975849211216
1772619225915246600,5.02424658203125,-0.007341247983276844,0.004134493879973888,0.014794653281569481
1772619225925277400,5.03427734375,-0.009526637382805347,-0.003265365492552519,0.010053693316876888
1772619225935308500,5.04430859375,-0.012811042368412018,-0.01835571601986885,0.005676975939422846
1772619225945339400,5.05433935546875,-0.014098946005105972,-0.030760720372200012,0.00920806173235178
1772619225955370500,5.06437060546875,-0.009004510007798672,-0.04287170618772507,0.007584043778479099
1772619225965401300,5.0744013671875,-0.007087566889822483,-0.06226111575961113,-0.004331205040216446
1772619225975432400,5.084432373046875,-0.004210289567708969,-0.07655145972967148,-0.0226623322814703
1772619225985463300,5.09446337890625,0.0016670406330376863,-0.08906804770231247,-0.03610330447554588
1772619225995494400,5.104494384765625,-0.0023338021710515022,-0.09470273554325104,-0.02972874976694584
1772619226005525200,5.114525146484375,-0.003663252107799053,-0.09580235928297043,-0.022915584966540337
1772619226015556400,5.124556396484375,-0.007779797073453665,-0.09943325817584991,-0.017983345314860344
1772619226025587200,5.134587158203125,-0.005985891912132502,-0.09636316448450089,-0.02000228874385357
1772619226035618300,5.144618408203125,-0.010025301948189735,-0.08104047924280167,-0.02694655954837799
1772619226045649400,5.1546494140625,-0.006895022466778755,-0.0746062844991684,-0.030144216492772102
1772619226055680300,5.16468017578125,-0.010315706953406334,-0.06589489430189133,-0.0317709743976593
1772619226065711400,5.17471142578125,-0.009500512853264809,-0.05538899078965187,-0.02651602402329445
1772619226075742500,5.184742431640625,-0.013101785443723202,-0.050181370228528976,-0.02705734595656395
1772619226085773600,5.194773681640625,-0.01793728768825531,-0.039633918553590775,-0.028515426442027092
1772619226095804400,5.204804443359375,-0.024391358718276024,-0.03061366267502308,-0.027946434915065765
1772619226105835500,5.21483544921875,-0.0343363992869854,-0.022117380052804947,-0.03471805527806282
1772619226115866400,5.224866455078125,-0.03708168864250183,-0.013881152495741844,-0.04023066908121109
1772619226125897500,5.2348974609375,-0.03411812335252762,-0.01003741193562746,-0.04281952977180481
1772619226135928300,5.24492822265625,-0.023702146485447884,-0.013875726610422134,-0.035025130957365036
1772619226145960400,5.25496044921875,-0.019484763965010643,-0.014277597889304161,-0.022011063992977142
1772619226155991300,5.2649912109375,-0.013631101697683334,-0.01700061932206154,-0.008348483592271805
1772619226166022400,5.2750224609375,-0.0077471137046813965,-0.016033891588449478,0.004004589281976223
1772619226176053200,5.28505322265625,-0.004473942331969738,-0.018709996715188026,0.012458370998501778
1772619226186084400,5.29508447265625,-0.007475591264665127,-0.01675283908843994,0.014608340337872505
1772619226196115200,5.305115234375,-0.015683963894844055,-0.014029194600880146,0.006031909491866827
1772619226206146600,5.315146484375,-0.015603800304234028,0.007570639718323946,-0.0015138908056542277
1772619226216177400,5.325177490234375,-0.008072033524513245,0.025302767753601074,-0.007904702797532082
1772619226226208500,5.33520849609375,-0.006792384199798107,0.03413194417953491,-0.010304744355380535
1772619226236239400,5.3452392578125,-0.005885199178010225,0.02270812727510929,-0.006984212435781956
1772619226246270500,5.3552705078125,0.0017735192086547613,0.012502893805503845,0.005495093762874603
1772619226256301300,5.36530126953125,0.005208148621022701,0.010705552063882351,0.01272081583738327
1772619226266332400,5.37533251953125,0.006866765208542347,0.005089744925498962,0.02643769234418869
1772619226276363300,5.38536328125,0.008990369737148285,0.006522791460156441,0.026417452841997147
1772619226286394400,5.395394287109375,0.008936841040849686,0.02275502309203148,0.01981094852089882
1772619226296425200,5.40542529296875,0.008366781286895275,0.03963314741849899,0.009157070890069008
1772619226306456300,5.415456298828125,0.0027706811670213938,0.04727349430322647,-0.0009546851506456733
1772619226316487400,5.4254873046875,-0.002161423210054636,0.042360495775938034,-0.007229378446936607
1772619226326518300,5.435518310546875,-0.010681940242648125,0.03318164497613907,-0.008309023454785347
1772619226336549600,5.445549560546875,-0.01182320062071085,0.023508913815021515,-0.004852119367569685
1772619226346580700,5.455580810546875,-0.01673859730362892,0.009104674682021141,-0.004291257821023464
1772619226356611800,5.46561181640625,-0.017861314117908478,0.009583963081240654,-0.013400144875049591
1772619226366642700,5.475642578125,-0.018606731668114662,0.00865531899034977,-0.010305551812052727
1772619226376673800,5.485673828125,-0.016330916434526443,0.01019153743982315,-0.007354125380516052
1772619226386704600,5.49570458984375,-0.017137587070465088,0.012809423729777336,-0.00501001114025712
1772619226396736800,5.50573681640625,-0.015175223350524902,0.019416747614741325,-0.0009145498625002801
1772619226406767900,5.515767822265625,-0.016867395490407944,0.019639920443296432,0.004493797663599253
1772619226416798700,5.525798828125,-0.020984401926398277,0.027599716559052467,0.009288656525313854
1772619226426829800,5.535829833984375,-0.026672648265957832,0.039679549634456635,0.005336790811270475
1772619226436860700,5.545860595703125,-0.03201662003993988,0.048183102160692215,-0.0023082681000232697
1772619226446891800,5.555891845703125,-0.032933011651039124,0.055837828665971756,-0.011113210581243038
1772619226456923000,5.5659228515625,-0.036194827407598495,0.05957764759659767,-0.02425622008740902
1772619226466953700,5.57595361328125,-0.03435352072119713,0.05126725509762764,-0.027954285964369774
1772619226476984800,5.58598486328125,-0.03001432865858078,0.03180748596787453,-0.018976038321852684
1772619226487015700,5.596015625,-0.02111591026186943,0.008458752185106277,0.0011486699804663658
1772619226497046800,5.606046875,-0.014401240274310112,-0.014668779447674751,0.020463956519961357
1772619226507077600,5.61607763671875,-0.013470998033881187,-0.03423049673438072,0.037059180438518524
1772619226517108700,5.626108642578125,-0.012955819256603718,-0.04307975247502327,0.036838289350271225
1772619226527139600,5.6361396484375,-0.010053507052361965,-0.0340774729847908,0.02917930670082569
1772619226537170700,5.646170654296875,-0.010430222377181053,-0.014543290250003338,0.016410402953624725
1772619226547201500,5.656201416015625,-0.01221933402121067,-0.002985970117151737,0.0012668708804994822
1772619226557233000,5.66623291015625,-0.010225474834442139,-0.0019068317487835884,-0.013760780915617943
1772619226567263700,5.676263671875,-0.009101089090108871,-0.007889622822403908,-0.0207316055893898
1772619226577294800,5.686294921875,-0.005118547007441521,-0.014965752139687538,-0.013833576813340187
1772619226587325700,5.69632568359375,0.00018513761460781097,-0.02561946213245392,-0.0021561472676694393
1772619226597356800,5.706356689453125,0.006570260506123304,-0.045459046959877014,0.009759769774973392
1772619226607388000,5.716387939453125,0.010427316650748253,-0.06493314355611801,0.01922544278204441
1772619226617418800,5.726418701171875,0.010731715708971024,-0.07222088426351547,0.02956649661064148
1772619226627449900,5.736449951171875,0.012494461610913277,-0.07216229289770126,0.0380965992808342
1772619226637480700,5.746480712890625,0.011390510015189648,-0.07000133395195007,0.03890414908528328
1772619226647511800,5.75651171875,0.009620307013392448,-0.0579284206032753,0.02927602268755436
1772619226657542700,5.766542724609375,0.006503873970359564,-0.03942592814564705,0.027169672772288322
1772619226667573800,5.77657373046875,0.0012784856371581554,-0.02552555687725544,0.01529810018837452
1772619226677604600,5.7866044921875,-0.0002589309588074684,-0.00993200670927763,0.011105439625680447
1772619226687635700,5.7966357421875,-0.00781644880771637,-0.010880358517169952,0.014273536391556263
1772619226697666600,5.80666650390625,-0.01197744719684124,-0.00840265303850174,0.020186154171824455
1772619226707697700,5.81669775390625,-0.013468284159898758,-0.003387921256944537,0.023912983015179634
1772619226717729800,5.826729736328125,-0.015805717557668686,-0.0006776778027415276,0.022241007536649704
1772619226727761000,5.836760986328125,-0.011565698310732841,0.002729304600507021,0.02455662563443184
1772619226737791700,5.846791748046875,-0.01046573556959629,0.006133094429969788,0.020868655294179916
1772619226747822800,5.85682275390625,-0.006042757537215948,0.0064697181805968285,0.01788005605340004
1772619226757853700,5.866853759765625,0.0004470287822186947,-0.008177587762475014,0.014581277035176754
1772619226767884800,5.876884765625,-0.0024757906794548035,-0.02525271102786064,0.01578236185014248
1772619226777915600,5.88691552734375,-0.0002867747098207474,-0.04042309150099754,0.018196851015090942
1772619226787946800,5.89694677734375,-0.0000833095982670784,-0.052710384130477905,0.013917151838541031
1772619226797977600,5.9069775390625,-0.0013011498376727104,-0.06621453166007996,0.017260972410440445
1772619226808008700,5.9170087890625,-0.002930737566202879,-0.06143655255436897,0.013480614870786667
1772619226818039600,5.92703955078125,0.0026358808390796185,-0.03786277770996094,0.010269352234899998
1772619226828070700,5.937070556640625,0.009141983464360237,-0.02054291032254696,0.0006297745276242495
1772619226838101800,5.947101806640625,0.008100680075585842,-0.011413678526878357,-0.006785585079342127
1772619226848132900,5.9571328125,0.006246853619813919,-0.01446885708719492,-0.012913252227008343
1772619226858163700,5.967163818359375,0.008728436194360256,-0.02646988444030285,-0.01572611555457115
1772619226868194800,5.97719482421875,0.012354330159723759,-0.03262338414788246,-0.01728300005197525
1772619226878226000,5.987225830078125,0.016738304868340492,-0.03993578627705574,-0.013415181078016758
1772619226888256800,5.9972568359375,0.020244089886546135,-0.04059651494026184,-0.008276877924799919
1772619226898287900,6.007287841796875,0.021746862679719925,-0.04288787767291069,-0.005816616117954254
1772619226908318700,6.017318603515625,0.025830820202827454,-0.029546771198511124,-0.006894930265843868
1772619226918349800,6.027349853515625,0.025105036795139313,-0.011355701833963394,-0.006141444202512503
1772619226928380700,6.037380615234375,0.02112414315342903,0.004472795408219099,-0.0069891284219920635
1772619226938411800,6.047411865234375,0.021945800632238388,0.013474732637405396,-0.0017992379143834114
1772619226948442600,6.057442626953125,0.02574479952454567,0.012965535745024681,-0.0015486344927921891
1772619226958473700,6.0674736328125,0.031500861048698425,0.008990371599793434,0.0017021425301209092
1772619226968504600,6.077504638671875,0.035895343869924545,0.005478194449096918,0.006043361499905586
1772619226978535700,6.08753564453125,0.034392084926366806,-0.0012240526266396046,0.012363452464342117
1772619226988566500,6.09756640625,0.031851962208747864,-0.008968790993094444,0.009954357519745827
1772619226998599000,6.107598876953125,0.02694312483072281,-0.022172076627612114,0.005864396691322327
1772619227008629800,6.117629638671875,0.018554169684648514,-0.02569224126636982,-0.010381950065493584
1772619227018660900,6.127660888671875,0.015622805804014206,-0.026210172101855278,-0.013092205859720707
1772619227028691700,6.137691650390625,0.013856064528226852,-0.022210637107491493,-0.024244459345936775
1772619227038722800,6.147722900390625,0.015529883094131947,-0.018888399004936218,-0.0306968092918396
1772619227048753700,6.157753662109375,0.022763829678297043,-0.012461923994123936,-0.03100387193262577
1772619227058784800,6.16778466796875,0.025360798463225365,-0.012133480980992317,-0.027895066887140274
1772619227068815600,6.177815673828125,0.026569606736302376,-0.021688636392354965,-0.01836308091878891
1772619227078846700,6.1878466796875,0.024818673729896545,-0.030719466507434845,-0.013423513621091843
1772619227088877600,6.197877685546875,0.025526275858283043,-0.03985677286982536,-0.023250047117471695
1772619227098908700,6.20790869140625,0.029465949162840843,-0.05621917545795441,-0.03826785460114479
1772619227108939500,6.217939453125,0.030977560207247734,-0.08158338814973831,-0.05338715389370918
1772619227118970600,6.227970703125,0.025345059111714363,-0.09606720507144928,-0.06663575768470764
1772619227129001700,6.238001708984375,0.008485918864607811,-0.07206706702709198,-0.04274693876504898
1772619227139032800,6.24803271484375,-0.015099153853952885,-0.127314954996109,0.00028511835262179375
1772619227149064000,6.25806396484375,-0.015216599218547344,-0.12009778618812561,0.02254674769937992
1772619227159094800,6.2680947265625,-0.024764880537986755,-0.014740444719791412,0.06515070050954819
1772619227169126000,6.2781259765625,-0.0372745506465435,0.07078670710325241,0.07557377964258194
1772619227179156700,6.28815673828125,-0.05114706605672836,0.1782854050397873,0.058369655162096024
1772619227189187800,6.298187744140625,-0.06231290102005005,0.2786729633808136,0.04133980721235275
1772619227199218700,6.30821875,-0.039927247911691666,0.36122962832450867,0.030165476724505424
1772619227209249800,6.318249755859375,0.010737791657447815,0.39060351252555847,0.011637864634394646
1772619227219280600,6.32828076171875,0.038057513535022736,0.3545805513858795,0.03248352184891701
1772619227229311700,6.338311767578125,0.04441261664032936,0.20179447531700134,0.08801069855690002
1772619227239342600,6.348342529296875,0.049608103930950165,0.025489557534456253,0.1273195743560791
