time,seconds_elapsed,z,y,x
1772618954039581000,0.080580810546875,-0.027870588222146032,0.030108722537755966,0.1274237626576796
1772618954049611800,0.09061181640625,-0.011420973202586173,0.047494887755066155,0.15820201848745344
1772618954059643100,0.10064306640625,0.028446926805377006,0.05091609437540173,0.21612916066870091
1772618954069672700,0.110672607421875,0.07280044779479503,0.047830257189273834,0.2830491355901584
1772618954079703800,0.120703857421875,0.12236615047454834,0.026521073309332132,0.29121421226933597
1772618954089734000,0.13073388671875,0.10011690926551818,0.028092852670699355,0.306996741682291
1772618954099764700,0.1407646484375,0.03963292220830917,0.06139204181283712,0.2848187025459483
1772618954109795800,0.1507958984375,-0.02694879720211029,0.069554451610893,0.2614429415250197
1772618954119826000,0.160825927734375,-0.039616555595397944,0.09100026748254894,0.23334347645044326
1772618954129856800,0.170856689453125,-0.07845218994617462,0.12362930227816105,0.18392448876500128
1772618954139887900,0.180887939453125,-0.07032908924520015,0.11803425875008106,0.1553582829615101
1772618954149918000,0.19091796875,-0.07774784106910228,0.12457242834717035,0.2003993843562901
1772618954159948800,0.20094873046875,-0.10663491285741329,0.12932049965709447,0.20103633055295794
1772618954169979000,0.210978759765625,-0.14070552476346493,0.13064093460589646,0.1953594174277037
1772618954180009700,0.221009765625,-0.15511691195368765,0.1379207163505256,0.2264207645151764
1772618954190040800,0.231040771484375,-0.1521259134441614,0.11285203380659221,0.2729659503299743
1772618954200071000,0.24107080078125,-0.14854922400116918,0.11889599014595151,0.272498661611788
1772618954210101800,0.251101806640625,-0.12653788320124149,0.12162132345661521,0.30327406789734956
1772618954220132900,0.2611328125,-0.09976210447847843,0.09911065483242273,0.30447960776221006
1772618954230163000,0.271162841796875,-0.0508989971101284,0.07594897495359182,0.26631493147555735
1772618954240193800,0.28119384765625,-0.024577976417541503,0.04793152560666203,0.25443788506854326
1772618954250223900,0.291223876953125,-0.04060965828597545,0.0317825009688735,0.2282123241070658
1772618954260255000,0.3012548828125,-0.03116729167997837,0.017529665341228247,0.18194445739630608
1772618954270285800,0.311285888671875,-0.05978548339903354,0.012726648973673581,0.1762312673812732
1772618954280316000,0.32131591796875,-0.06366612422466278,0.007200286767631769,0.18856683467812835
1772618954290346800,0.3313466796875,-0.050182957795262335,-0.03846826234310865,0.18027941026091573
1772618954300376800,0.341376953125,-0.07366554019153118,-0.051527942663431164,0.1524242022709921
1772618954310408000,0.351407958984375,-0.06935293768942356,-0.06825140618830919,0.14711301718559117
1772618954320438800,0.361438720703125,-0.004465162715315819,-0.1083997305728495,0.12904570130370557
1772618954330468900,0.37146875,0.027128245422244072,-0.13058818150535226,0.11225534655507653
1772618954340500000,0.3815,0.06628887394368649,-0.13631284276247024,0.09450696042925119
1772618954350530800,0.39153076171875,0.07430442261695862,-0.12619769146144388,0.09513963230960071
1772618954360561000,0.401560791015625,0.07481704831421375,-0.11391966303810476,0.09383386520696803
1772618954370592000,0.411592041015625,0.06378010599315166,-0.08622355460003017,0.10088204841911792
1772618954380621800,0.421621826171875,0.04517302067875862,-0.07741524811387061,0.0770249701546505
1772618954390653000,0.43165283203125,0.04190963496863842,-0.0691924864307046,0.03562147634355351
1772618954400683800,0.441683837890625,0.021435586738586424,-0.06607976123765111,0.03457907288484275
1772618954410713900,0.4517138671875,0.022039397850632667,-0.059452744313329454,0.04426237210724503
1772618954420745000,0.461744873046875,0.007407061386108398,-0.0577342499576509,0.05662563112862408
1772618954430775800,0.47177587890625,0.012779402074217796,-0.06997399219721555,0.06240671701440587
1772618954440806000,0.481805908203125,-0.0018909283131361007,-0.07655658545792102,0.08733440191876142
1772618954450837000,0.4918369140625,0.029739304703474044,-0.08900544040352106,0.09064981007706373
1772618954460866800,0.50186669921875,0.04731003270745277,-0.11511194156259298,0.11614263631720095
1772618954470898000,0.51189794921875,0.05694412249326706,-0.09455912900790571,0.15538657747423276
1772618954480929000,0.521928955078125,0.09309212519526482,-0.08966156622469425,0.1835145014583133
1772618954490958800,0.531958740234375,0.1077718079328537,-0.10255772654637693,0.20794055698346345
1772618954500990000,0.541989990234375,0.1203548106521368,-0.10306026924103498,0.2643194833420217
1772618954511020800,0.552020751953125,0.11796820777654647,-0.09151683870255947,0.3125115961136296
1772618954521051000,0.56205078125,0.10201660540699958,-0.06265607039928436,0.33951617862358685
1772618954531082000,0.57208203125,0.03271627468764782,-0.04586816333606839,0.3278616889260709
1772618954541112000,0.582112060546875,-0.09027648325264453,-0.03039075434952974,0.265842765652854
1772618954551143000,0.592142822265625,-0.1317225923627615,-0.024554011020064354,0.16681354202618823
1772618954561174000,0.602174072265625,-0.0520230327039957,-0.0299557239331305,0.10463908113138749
1772618954571203800,0.612203857421875,0.0228963069409132,-0.006974953579157591,0.14444030911130828
1772618954581235000,0.62223486328125,0.09893383696079254,0.049194385149329896,0.23155264751091598
1772618954591265800,0.632265869140625,0.18955460360646248,0.06692395697683096,0.25660403186017644
1772618954601296000,0.6422958984375,0.23514848004579542,0.05031695943847298,0.2704321210034191
1772618954611327000,0.652326904296875,0.19770225422680376,0.051600569508224725,0.2766726410944946
1772618954621357000,0.662357177734375,0.10328618695139884,0.03709551268517971,0.24738372877333312
1772618954631388000,0.672387939453125,0.0006137479841709137,-0.0036437633298337458,0.19943965421235188
1772618954641419000,0.6824189453125,-0.09490297400951385,-0.04210588819310069,0.1571499521512538
1772618954651449000,0.692448974609375,-0.1269336045205593,-0.06313844708874822,0.13943029892956837
1772618954661480000,0.70247998046875,-0.15669395201206207,-0.057102089533954854,0.147552413249854
1772618954671511000,0.712510986328125,-0.1419219148159027,-0.04937310271710157,0.1895125728293322
1772618954681540900,0.722540771484375,-0.14672551570534706,-0.02541311206743121,0.22957528302334249
1772618954691572000,0.732572021484375,-0.13090893789231775,-0.01119169449135661,0.21866551074590532
1772618954701602000,0.74260205078125,-0.10542144541442394,-0.02688245396763086,0.21873267596429213
1772618954711633000,0.7526328125,-0.06209376034140587,-0.026685323960334063,0.19094445052966474
1772618954721664000,0.7626640625,-0.08060147693455219,-0.05343991376459598,0.18586004167115314
1772618954731694000,0.772694091796875,-0.07887538379430771,-0.05419628508985042,0.17024627468753606
1772618954741725000,0.782724853515625,-0.06563713203668593,-0.057295274018496274,0.16983142854264005
1772618954751755000,0.792755126953125,-0.0174456403195858,-0.06167027423232793,0.18428941308725624
1772618954761786000,0.8027861328125,-0.0004033201038837433,-0.05466141838356852,0.179669534734264
1772618954771817000,0.81281689453125,0.03018354133963585,-0.026164514956623315,0.18661761857280507
1772618954781847000,0.822846923828125,0.04386018451452255,-0.025741028847545384,0.16744849719516933
1772618954791878000,0.8328779296875,0.03666588909626007,-0.0327235812112689,0.1399722785854712
1772618954801909000,0.842908935546875,0.02510579968392849,-0.040512335391342635,0.1412124148396775
1772618954811939000,0.85293896484375,-0.009601356559991836,-0.020291531269997356,0.14306196996280923
1772618954821970000,0.862969970703125,-0.05230301868915557,-0.019879735598713158,0.14954875643253326
1772618954832000000,0.873,-0.09147358408272266,-0.009372223979234694,0.1423061648931354
1772618954842031000,0.883031005859375,-0.0779652832120657,-0.024537352146208283,0.16994404033795
1772618954852062000,0.89306201171875,-0.03234334972202778,-0.021145517750829457,0.19873623691704123
1772618954862092000,0.903092041015625,0.018139467802643774,-0.04442176392003894,0.20370955008389427
1772618954872123000,0.913122802734375,0.09621931730508804,-0.05041749720349908,0.22168787250807506
1772618954882154000,0.923154052734375,0.14154372915327548,-0.05634527981728315,0.22727151785930616
1772618954892184000,0.93318408203125,0.15495616843402385,-0.05912555818557739,0.21097866430403664
1772618954902215000,0.94321484375,0.11505495067834853,-0.041933161974698305,0.18834508168622852
1772618954912244700,0.95324462890625,0.05321195022761822,-0.020716186422854662,0.17921519682919607
1772618954922276000,0.963276123046875,0.01134089370369911,0.01185834170654416,0.19763459581807255
1772618954932307000,0.973306884765625,-0.039627076989412306,0.026684739438444374,0.20292338640857488
1772618954942336800,0.983336669921875,-0.0644236645936966,0.034793080961704255,0.18049190223412587
1772618954952368000,0.9933681640625,-0.09793956522643565,0.030610388449579477,0.17143851667940616
1772618954962399000,1.00339892578125,-0.12859130859971046,0.03255041660144925,0.17185634023267773
1772618954972428800,1.0134287109375,-0.09701075994372367,0.019597411525994538,0.17076151246698573
1772618954982460000,1.0234599609375,-0.05315642064809799,0.0024653672002255913,0.17785030168415977
1772618954992489700,1.03348974609375,-0.003935001361370086,-0.01676496457904577,0.20738396428031847
1772618955002520800,1.043520751953125,0.056254971185326574,-0.003800122935324907,0.21251971973357722
1772618955012552000,1.053552001953125,0.0958545756459236,0.004027063558995724,0.24210458279401062
1772618955022581800,1.063581787109375,0.1070657054901123,-0.0036906712114810943,0.20982920200796798
1772618955032612900,1.07361279296875,0.06805003839731216,-0.0007326981887221336,0.19676840744279323
1772618955042644000,1.08364404296875,0.0036363106757402418,0.002373451133072376,0.1737171291358769
1772618955052673800,1.093673828125,-0.045105800661444664,0.015316373205929993,0.14842811837214975
1772618955062705000,1.103704833984375,-0.0543237108618021,0.031241379829496145,0.14545544097060337
1772618955072734700,1.113734619140625,-0.038140053302049635,0.050010669968277216,0.14396187794459983
1772618955082765800,1.123765869140625,-0.0020686229676008224,0.05214885104075074,0.1545910066497512
1772618955092797000,1.133796875,0.057092591053247446,0.036677871794998644,0.1762441268628463
1772618955102826800,1.14382666015625,0.09204290840327739,0.015425824929773806,0.18646107630422337
1772618955112857900,1.15385791015625,0.07508417481780051,0.03502732810899615,0.19414178526625037
1772618955122888000,1.163887939453125,0.056982116416096684,0.029843641860783098,0.16814199588466436
1772618955132918800,1.173918701171875,0.03191314161121845,0.009189999280124901,0.18550171148646621
1772618955142950000,1.183949951171875,0.016724340307712554,-0.009442074345052242,0.17642087166924028
1772618955152980000,1.19397998046875,-0.018407178828120232,0.004668868593871593,0.16798958180192858
1772618955163010800,1.2040107421875,-0.03639291737377643,-0.029900778875499964,0.16816592474952338
1772618955173042000,1.2140419921875,-0.026707974183559417,-0.04624138056263327,0.1568514806613326
1772618955183071700,1.22407177734375,-0.01633972490429878,-0.05649798616096377,0.1647551116590388
1772618955193102800,1.234102783203125,0.004013911816477775,-0.052343935221433636,0.18043184260996056
1772618955203133000,1.2441328125,0.007726794859766959,-0.04234481151551008,0.19093791119102388
1772618955213163800,1.254163818359375,0.019700141248106956,-0.010711948150396347,0.19877107076840475
1772618955223195000,1.26419482421875,0.002389525485038757,0.02818374582454562,0.19986332298452034
1772618955233225000,1.274224853515625,-0.021329203754663465,0.05075330502912402,0.20806482268394902
1772618955243255800,1.284255859375,0.019763854134082794,0.05914060962423682,0.22461714915931225
1772618955253287000,1.294286865234375,0.053013212785124775,0.048461686960607764,0.2270401567888446
1772618955263317000,1.30431689453125,0.10748714577257633,0.05584682877585292,0.24809909223476423
1772618955273347800,1.314347900390625,0.14349194061160087,0.03657543433383107,0.2693391381349414
1772618955283378000,1.3243779296875,0.10743220071494579,0.01939984312728047,0.24507395399361848
1772618955293408800,1.33440869140625,0.04792494973540306,0.021471388704329727,0.23228340947087853
1772618955303440000,1.34443994140625,-0.01132218900322914,0.024161942962557074,0.19136990940012036
1772618955313470000,1.354469970703125,-0.017598200532793998,0.03959390537217259,0.2091656965979375
1772618955323500800,1.364500732421875,0.005372340688109397,0.034011867456138135,0.19938198747467248
1772618955333532000,1.374531982421875,0.011442600512504578,-0.004684504554420709,0.2261110409788787
1772618955343562000,1.38456201171875,0.00610942279100418,-0.011489216133207083,0.21121373343523592
1772618955353592800,1.3945927734375,-0.02536883453428745,-0.030353052687644957,0.2003440374398604
1772618955363623000,1.404622802734375,-0.06511983016431332,-0.061007426409423346,0.1950487075107172
1772618955373654000,1.414654052734375,-0.08083353212475776,-0.06359320511892437,0.21621559684313832
1772618955383684900,1.424684814453125,-0.08482932376265526,-0.0960766939640045,0.1859053238512948
1772618955393715000,1.43471484375,-0.07839256871342659,-0.11162716818675399,0.14901292338962666
1772618955403745800,1.444745849609375,-0.053704702180624,-0.11910963289663194,0.12139611813230439
1772618955413776000,1.45477587890625,-0.05581073454916477,-0.09543079727590084,0.10625788710541091
1772618955423807000,1.464806884765625,-0.027073300364613532,-0.07718918427303433,0.09500441595683805
1772618955433837800,1.474837890625,-0.018760814571380614,-0.05469590517506003,0.09061967066712677
1772618955443868000,1.484867919921875,-0.035765140864253045,-0.04461611744835973,0.09048349533313885
1772618955453899000,1.49489892578125,-0.05354220509529113,-0.0331049817442894,0.049958158896327945
1772618955463929900,1.504929931640625,-0.09003098405897617,-0.04274608579277992,0.05441462228195741
1772618955473960000,1.5149599609375,-0.13669161294698715,-0.020658172625303266,0.0673660062224837
1772618955483990800,1.52499072265625,-0.14262918630242347,-0.039055706842243666,0.06768352947274688
1772618955494020900,1.535020751953125,-0.08231997129023075,-0.0763242380067706,0.07323018554814625
1772618955504052000,1.545052001953125,-0.03970715648829937,-0.07331278123110532,0.08975350055815652
1772618955514082800,1.555082763671875,0.04287058895528316,-0.09332797977775335,0.13044079065760597
1772618955524113000,1.56511279296875,0.11464870796501636,-0.09857201791107655,0.1449357736112084
1772618955534144000,1.57514404296875,0.1421177296489477,-0.0780105836585164,0.18382053520018235
1772618955544174800,1.5851748046875,0.12834288679659367,-0.04940612820386886,0.21457462470307945
1772618955554205000,1.595204833984375,0.10684650978147983,0.010058744938671588,0.23125839553838595
1772618955564236000,1.605236083984375,0.08155015596151352,0.04810585926026106,0.2386641600165516
1772618955574265900,1.615265869140625,0.08120236543715,0.08500424193814396,0.2241260411741212
1772618955584297000,1.625296875,0.10756897883713244,0.1265825991258025,0.2451561706506647
1772618955594327800,1.635327880859375,0.1474684430271387,0.13704524869024753,0.25339571907185016
1772618955604358000,1.64535791015625,0.14239537754654882,0.138362030377239,0.23466719933487473
1772618955614389000,1.655388916015625,0.12697452105283735,0.15435513380095361,0.2564019882157445
1772618955624419000,1.665419189453125,0.13474047887921334,0.13020488127619026,0.28627770571522415
1772618955634450000,1.675449951171875,0.11776947033405304,0.09900251828283071,0.2825712524127215
1772618955644481000,1.68548095703125,0.0644236645936966,0.04554945277571678,0.25606475561801345
1772618955654510800,1.6955107421875,0.0017354454904794693,0.03636252223551273,0.20438494686111808
1772618955664542000,1.7055419921875,-0.03712590782344341,0.021706220373511314,0.20480848776912317
1772618955674573000,1.715572998046875,-0.048344051930308336,-0.009234422943741083,0.19420367152132093
1772618955684603000,1.725602783203125,-0.048179216757416723,-0.03214914232417941,0.18573592210114
1772618955694634000,1.735634033203125,-0.058144730454683304,-0.058129971276968714,0.18498360589649526
1772618955704664000,1.7456640625,-0.07015197911262512,-0.08212474097907543,0.13766746310866437
1772618955714695000,1.75569482421875,-0.07227379357218743,-0.08956453559100627,0.12199275058489292
1772618955724726000,1.76572607421875,-0.0912666633337736,-0.08686755159199237,0.1026943676712457
1772618955734756000,1.775756103515625,-0.07580489030778408,-0.07941460523754358,0.1016768337923102
1772618955744787000,1.785786865234375,-0.053873629006743425,-0.05911196805164218,0.10774485599384642
1772618955754818000,1.795818115234375,-0.03971475527286529,-0.05081833308935165,0.10373301740344613
1772618955764847900,1.805847900390625,-0.004020341557264328,-0.03828106920793652,0.11971877777092158
1772618955774879000,1.81587890625,-0.002673603123426437,-0.017983984979987145,0.10217498343964107
1772618955784909000,1.825908935546875,0.00621054507791996,-0.0096247374355793,0.1011757250029128
1772618955794940000,1.83593994140625,0.02053133137524128,0.002995382423698902,0.12239671000959351
1772618955804971000,1.845970947265625,0.018288520884513854,0.0035810733571648595,0.17003632173128425
1772618955815001000,1.8560009765625,0.02004851629436016,0.019657325019687415,0.21046483303038402
1772618955825032000,1.866031982421875,0.029350597646832465,0.005824614500254392,0.2257673055751249
1772618955835063000,1.87606298828125,-0.009304419440031051,0.003106879974156618,0.22465055823856964
1772618955845093000,1.886093017578125,-0.045505029112100595,0.0002947451628744602,0.20156930491849778
1772618955855124000,1.8961240234375,-0.10314181004464626,-0.014571107796579599,0.19293483889559282
1772618955865154000,1.906154052734375,-0.13420271874070167,0.006355944897979498,0.20351627426780758
1772618955875185000,1.916184814453125,-0.11771510979831218,-0.0008839432276785374,0.2221371141129173
1772618955885216000,1.926216064453125,-0.08130290320217609,-0.010933043555170297,0.2135367695553228
1772618955895246000,1.93624609375,-0.03795768247246742,-0.015935381887108087,0.22336457354864103
1772618955905277000,1.94627685546875,0.02351882275342941,-0.02904050878435373,0.20702470251386984
1772618955915306800,1.956306640625,0.044487376502156256,-0.029420594143122432,0.21856942996028808
1772618955925338000,1.966338134765625,0.04187690174281597,-0.02950038138106465,0.22394845611751077
1772618955935369000,1.976368896484375,-0.01600947003662586,-0.03244827140122652,0.21729511744184418
1772618955945398800,1.986398681640625,-0.03666296648681164,-0.027384119879454372,0.17445401030937208
1772618955955430100,1.99643017578125,-0.03672024963200092,-0.020307459491491316,0.1477025440439582
1772618955965461000,2.0064609375,-0.01390636027753353,-0.01941270260885358,0.14525840229485182
1772618955975490800,2.01649072265625,-0.0030021044254302976,-0.020449059919267893,0.13791667949622496
1772618955985522000,2.02652197265625,0.02059095260798931,-0.013666414041817187,0.15178396813869474
1772618955995551700,2.0365517578125,0.03490530916452408,0.006632423751801252,0.1655318133862689
1772618956005582800,2.046582763671875,0.025384616625308987,-0.015468933419138192,0.15820437484132124
1772618956015613700,2.05661376953125,0.007904489514231682,-0.0160623692676425,0.14488133087707683
1772618956025643800,2.066643798828125,-0.01832885289490223,-0.02919847582504153,0.149796465849597
1772618956035675000,2.0766748046875,-0.017867080602049827,-0.01153422431871295,0.1780817906187847
1772618956045705000,2.086705078125,0.01022679498195648,0.005036971253901719,0.2210783257749863
1772618956055735800,2.09673583984375,0.053555649098753925,0.025970161428302524,0.25056772910431024
1772618956065767000,2.106766845703125,0.095758714056015,0.0038192660272121427,0.24669815766196695
1772618956075796700,2.116796630859375,0.11535948658287525,-0.020965046617388725,0.233773136571981
1772618956085827800,2.126827880859375,0.07044073292613029,-0.007616027961671352,0.19589217259753494
1772618956095858700,2.136858642578125,0.031468320453166956,-0.002577595403045416,0.17992520826207473
1772618956105888800,2.146888671875,0.004534720820188522,0.00421849447786808,0.15854025573218242
1772618956115920000,2.156919921875,-0.011236264285445212,0.02523307932540774,0.16259400636870414
1772618956125950000,2.166949951171875,-0.01676759492754936,0.04231953094378114,0.15437464221902192
1772618956135980800,2.176980712890625,-0.0370914210319519,0.03727759125381708,0.16594112483952195
1772618956146012000,2.187011962890625,-0.04546878875494003,0.04684197680428624,0.16841363416658714
1772618956156042000,2.1970419921875,-0.016811434069275856,0.06916136064007877,0.184126094018016
1772618956166072800,2.20707275390625,-0.00248830968439579,0.05881795354112982,0.21777764026178045
1772618956176104000,2.21710400390625,0.01129997717142105,0.035252222906053066,0.2115384353449568
1772618956186133800,2.2271337890625,0.0347778833925724,0.0013854630090296268,0.19502297028126195
1772618956196164900,2.237164794921875,0.04387012138664722,-0.0009950023867189883,0.2150833414101973
1772618956206195000,2.24719482421875,0.05052314953505992,-0.018503186548501253,0.24152322097579015
1772618956216225800,2.257225830078125,0.0412047015696764,-0.028211949005723,0.2535221219304949
1772618956226257000,2.2672568359375,-0.0019195698857307434,-0.02466127078682184,0.23455098907668143
1772618956236287000,2.277286865234375,-0.01096270804107189,-0.03155979812890291,0.2066556865383871
1772618956246317800,2.28731787109375,-0.0426075541049242,-0.029345336949825284,0.19278865362424402
1772618956256349000,2.297348876953125,-0.07272738255858421,-0.041366760263592005,0.1887493151055649
1772618956266378800,2.307378662109375,-0.09409107310473919,-0.046669396716356275,0.2006404265705496
1772618956276409900,2.317409912109375,-0.11969313187301159,-0.010799772564321755,0.1675470621988177
1772618956286440000,2.32743994140625,-0.10833470251262187,-0.02332578439936042,0.1518963059393689
1772618956296470800,2.337470703125,-0.08943418720960616,-0.02855389431118965,0.14266444941204973
1772618956306502000,2.347501953125,-0.04952829327881336,-0.03478577443808317,0.14131259641167707
1772618956316532000,2.357531982421875,-0.028516484910249707,-0.02639306301549077,0.14735522844363003
1772618956326562800,2.367562744140625,-0.005916530567407608,-0.03310118235200643,0.13647982422667554
1772618956336592600,2.377592529296875,0.0015016367346048355,-0.02163403192013502,0.12990289352177642
1772618956346624000,2.3876240234375,0.006323942324519157,-0.03144713153466582,0.09325136174443177
1772618956356654800,2.39765478515625,-0.015455927807092667,-0.019301497319340704,0.07722463917890564
1772618956366684700,2.4076845703125,-0.028020225825905798,-0.03630728491693735,0.06836909601753577
1772618956376715800,2.4177158203125,-0.03367021441161632,-0.028034254351258277,0.09095855636582709
1772618956386747000,2.427746826171875,-0.05551029029786587,-0.029826690725982187,0.08472231059106998
1772618956396776700,2.437776611328125,-0.06625204906463622,-0.018777619575709104,0.08983613734031096
1772618956406807800,2.447807861328125,-0.08096914120316505,-0.010623100823163985,0.09079067071932367
1772618956416837600,2.457837646484375,-0.06121405489742755,-0.027006518738716838,0.10898954055900685
1772618956426868700,2.46786865234375,-0.023120178824663162,-0.02088832811936736,0.12989488374525682
1772618956436899800,2.47789990234375,-0.0012368483185768127,-0.02439940498024225,0.14099593167793936
1772618956446929700,2.4879296875,-0.0013210194706916808,-0.029729806222766636,0.11551017449940554
1772618956456960800,2.497960693359375,0.00343465062379837,-0.03759454824849963,0.1000498171123676
1772618956466990600,2.507990478515625,0.0468120200574398,-0.040252953802794214,0.08069359393110498
1772618956477021700,2.518021728515625,0.06761106245815754,-0.04624269573688507,0.0940768710494507
1772618956487052800,2.528052734375,0.048262218865752216,-0.006482640017569065,0.13329097419064492
1772618956497082600,2.53808251953125,0.036108839735388754,0.042054304136335846,0.1854145446596667
1772618956507113700,2.54811376953125,0.013687164568901062,0.05359861145764589,0.20211163163427262
1772618956517144600,2.55814453125,0.0014075287103652954,0.05913929444998502,0.19480784795954822
1772618956527174700,2.568174560546875,0.025155484044551847,0.05677329597100615,0.18615022025676442
1772618956537205800,2.578205810546875,0.04379764067232608,0.04643178856819868,0.20510986360218375
1772618956547235800,2.58823583984375,0.06582534808516502,0.02956862431168556,0.22227339904475957
1772618956557266700,2.5982666015625,0.09734101481139659,0.029277094019204378,0.22291951492857187
1772618956567297800,2.6082978515625,0.11427929013073444,0.04388444217294454,0.25886856099236755
1772618956577327600,2.61832763671875,0.07667641244530678,0.05507686731666326,0.26309512917883693
1772618956587358700,2.628358642578125,0.022073884642124175,0.058009121376276014,0.25949235544651744
1772618956597389800,2.638389892578125,0.01722644461095333,0.05263049707785249,0.25629080119254066
1772618956607419600,2.648419677734375,0.0023451018214225767,0.021266659912467,0.22783757251054046
1772618956617450800,2.65845068359375,0.007192541852593421,-0.011017068576812743,0.20749442065116017
1772618956627480800,2.668480712890625,-0.00906651903092861,-0.027680764738470313,0.20066698578391223
1772618956637511700,2.67851171875,-0.0022270283997058867,-0.045634062319248915,0.2042149971216917
1772618956647542800,2.688542724609375,-0.003545125260949135,-0.050014323230087754,0.19519286522176116
1772618956657572900,2.69857275390625,-0.014731705185770988,-0.03963321446925402,0.17111980611905456
1772618956667603700,2.708603759765625,-0.03053600803911686,-0.029990210724622008,0.17271449143197387
1772618956677633800,2.7186337890625,-0.02713876681625843,-0.03166135880723595,0.1827735286315903
1772618956687664600,2.72866455078125,-0.045643560799956316,-0.04249240329265594,0.18443411878757177
1772618956697695700,2.73869580078125,-0.03180968123674392,-0.050154023961722846,0.16825871759951114
1772618956707725800,2.748725830078125,-0.03663374039232731,-0.06496829286441207,0.1427488032272551
1772618956717756700,2.758756591796875,-0.013550970968604087,-0.07763736643195152,0.1341848451572936
1772618956727787800,2.768787841796875,0.0002659574598073959,-0.08902575253918767,0.14319293939871713
1772618956737817900,2.77881787109375,0.016191256344318387,-0.07488397607058286,0.15537822977099566
1772618956747848700,2.7888486328125,0.024478023174405096,-0.04570128233656287,0.17157675610631704
1772618956757878800,2.798878662109375,0.03378068904876709,-0.020500497845560312,0.20615641351304947
1772618956767910000,2.808909912109375,0.03213701349496841,-0.0056603638492524625,0.2535281498124823
1772618956777940700,2.818940673828125,0.002409399229288101,0.0032267069615423676,0.22737448504343627
1772618956787970800,2.828970703125,-0.03048457011282444,-0.006050532210618257,0.1922195119667798
1772618956798001700,2.839001708984375,-0.06962240228056907,-0.011007277835160494,0.16143310936316846
1772618956808032800,2.84903271484375,-0.0644277562469244,-0.018767390442639587,0.17695592839401214
1772618956818062800,2.859062744140625,-0.03391746717095375,-0.015897972486168144,0.22656755257472394
1772618956828093700,2.86909375,0.010863923841714859,-0.0363245283126831,0.24214643090805038
1772618956838123800,2.879123779296875,0.044537060862779615,-0.04288914752528071,0.2807920225794427
1772618956848155000,2.88915478515625,0.07280746205747127,-0.056041912956535815,0.2783142525553703
1772618956858185700,2.899185791015625,0.0738087480545044,-0.06595774229317904,0.257406872675661
1772618956868215800,2.9092158203125,0.04703238480985164,-0.06713657681420446,0.2443354836512357
1772618956878247000,2.919246826171875,0.015502689558267592,-0.05501476186588406,0.24842037834469227
1772618956888276700,2.92927685546875,0.024257658421993254,-0.030736499047279355,0.24240429639294742
1772618956898307800,2.939307861328125,0.004268763360381126,-0.020729630426317452,0.22758611850012092
1772618956908338700,2.949338623046875,-0.010976736566424368,0.01208732815682888,0.24006332275737075
1772618956918368800,2.95936865234375,-0.01342705232799053,0.035816578790545464,0.23055508784092962
1772618956928400000,2.96939990234375,-0.01737199056148529,0.046318975843489166,0.2163168835268356
1772618956938430700,2.9794306640625,-0.01341010119318962,0.05660933758094906,0.18738073016609996
1772618956948460800,2.989460693359375,-0.00019873744249343872,0.04910699912682175,0.16033170572621747
1772618956958492000,2.999491943359375,0.029192776736617087,0.028931787712872026,0.14162903281655162
1772618956968521700,3.009521728515625,0.03630933074355125,0.0010660217963159083,0.15465053655095398
1772618956978552800,3.019552734375,0.09549158755242824,-0.0020054946035146714,0.1604163518023677
1772618956988583700,3.029583740234375,0.08280746254622935,-0.014410802668333052,0.16834745532888917
1772618956998613800,3.03961376953125,0.06605038901269436,-0.036502369097620245,0.11589317333446815
1772618957008644900,3.049644775390625,0.025125088906288146,-0.02776829689145088,0.07912377819796092
1772618957018675700,3.05967578125,0.005757540613412856,-0.04611322413831949,0.05202714262353256
1772618957028705800,3.069705810546875,0.011351999619603157,-0.07216741058826447,-0.00996090145423077
1772618957038737000,3.07973681640625,0.014022680133581161,-0.11521277158856391,-0.11544152057683095
1772618957048767000,3.08976708984375,0.017025369080901145,-0.15765183725878595,-0.13009788637091405
1772618957058797800,3.0997978515625,0.022744915771484374,-0.16575900973826646,-0.11478587881284766
1772618957068829000,3.109828857421875,0.03383037340939045,-0.16229221041053532,-0.06216684384392574
1772618957078858800,3.119858642578125,0.06494798072874546,-0.13094123272672295,-0.004581076145987026
1772618957088888800,3.129888916015625,0.0868318957567215,-0.1199288403250277,0.06500155124661978
1772618957098919000,3.1399189453125,0.13874796095490455,-0.12189371065720915,0.08247055874206126
1772618957108950000,3.149949951171875,0.11860475211441517,-0.12202478969097137,0.09473191002523526
1772618957118980900,3.15998095703125,0.1156663605749607,-0.09563158054500817,0.1125730707347393
1772618957129011000,3.170010986328125,0.097362642121315,-0.08318681725263595,0.0912200477130711
1772618957139041800,3.180041748046875,0.07401274619400501,-0.08486600251123308,0.13125340394843368
1772618957149073000,3.190072998046875,0.013275661158561707,-0.056902329178154465,0.1959998707557097
1772618957159103000,3.20010302734375,-0.022287819653749465,-0.036773587254434824,0.22839051195187493
1772618957169133800,3.2101337890625,-0.014839257213473319,0.000620616116374731,0.2577296018240042
1772618957179164000,3.220163818359375,-0.044613633230328555,0.024284254167973994,0.25197770550008863
1772618957189195000,3.230195068359375,-0.07864391312599181,0.05206438762769103,0.24123138015605508
1772618957199225900,3.240225830078125,-0.11013444541096687,0.07061755079776048,0.24838453984633085
1772618957209256000,3.250255859375,-0.10908581314086914,0.07586158893108368,0.23847503065261988
1772618957219287000,3.260287109375,-0.09117313983142375,0.06167290458083152,0.25014077239651233
1772618957229318000,3.27031787109375,-0.029848610296845435,0.03289133899360895,0.24388178506698457
1772618957239348000,3.280347900390625,0.01996960583925247,0.022010756278038023,0.27247246772460637
1772618957249378800,3.29037890625,0.061845338538289066,0.0212383106008172,0.2875003428453579
1772618957259409000,3.300408935546875,0.07400456288754939,0.02737476752921939,0.29461302439477294
1772618957269440000,3.31043994140625,0.049662733313441274,0.01790185965448618,0.2906134333645925
1772618957279470800,3.320470947265625,-0.018079262048006056,0.00631444384381175,0.30264808148611333
1772618957289501000,3.3305009765625,-0.10877952367067337,0.024040216279029844,0.22899238683516157
1772618957299532000,3.340531982421875,-0.15809622002542018,0.036260084774345155,0.1659418737581931
1772618957309561900,3.350561767578125,-0.15651508831381797,0.010656856962293387,0.11688694274532609
1772618957319593000,3.360593017578125,-0.12497428714632987,0.004773644142597913,0.08662695690230465
1772618957329624000,3.3706240234375,-0.06378478216826915,-0.004646072240173817,0.037300944729940964
1772618957339654000,3.38065380859375,-0.005253682744503021,-0.010759440553933382,0.09818302772664464
1772618957349685000,3.39068505859375,0.02520283031761646,-0.01687397791147232,0.1323634110169485
1772618957359715800,3.4007158203125,0.02847206124663353,-0.008000935626029968,0.13915313508915714
1772618957369746000,3.410745849609375,0.05934650745987892,-0.026750790411978958,0.14640419306280092
1772618957379777000,3.420777099609375,0.06625906332731246,-0.029522593212872743,0.16036146154366432
1772618957389807000,3.43080712890625,0.06229834300279617,-0.05687412599697709,0.16636398989409207
1772618957399838000,3.440837890625,0.06533668778538704,-0.07471095759123564,0.14740139653976075
1772618957409869000,3.450869140625,0.0527115994900465,-0.07907280606254935,0.13994162771888077
1772618957419899000,3.46089892578125,0.03315525062680244,-0.06219678232446312,0.1306956696009729
1772618957429930000,3.470929931640625,-0.022459084567427633,-0.04716054123416543,0.09183064475893042
1772618957439960800,3.4809609375,-0.0736561878412962,-0.02450228083282709,0.07541867660232819
1772618957449991000,3.490990966796875,-0.0735381144195795,0.01010506829842925,0.07977418666440061
1772618957460022000,3.50102197265625,-0.039943887853622434,0.01585939404144883,0.10333752441299147
1772618957470052000,3.511052001953125,-0.0304687880218029,0.03056727996021509,0.1395585832180455
1772618957480083000,3.5210830078125,-0.007605798828601837,0.020850334196537732,0.16589801635015755
1772618957490114000,3.531114013671875,-0.02937573208808899,-0.008240151209384202,0.18317407225649804
1772618957500144000,3.54114404296875,-0.048124271699786184,-0.02866846060156822,0.18225231776908038
1772618957510175000,3.551175048828125,-0.028729250878095625,-0.042013825995475054,0.16323259653318672
1772618957520205000,3.561205078125,-0.049341246274113654,-0.0627130612835288,0.14927398547860793
1772618957530236000,3.57123583984375,-0.04962181678116321,-0.06071779581308365,0.1409106188815087
1772618957540267000,3.58126708984375,-0.02631166834235191,-0.02523556354343891,0.1655508103476837
1772618957550297000,3.591297119140625,0.011052724412083626,-0.02485664722844958,0.1905359062613919
1772618957560328000,3.601327880859375,0.03007891192138195,-0.028262948540598153,0.177376966817677
1772618957570359000,3.611359130859375,0.01952127754986286,0.01268573244139552,0.18437248826082794
1772618957580389000,3.62138916015625,0.002454991936683655,0.023748978247493505,0.16770261808671055
1772618957590420000,3.631419921875,0.0020446575701236723,0.012268091551214456,0.13845167228891514
1772618957600450000,3.641449951171875,0.024673838007450103,0.026992636343836782,0.1291718667003326
1772618957610481000,3.65148095703125,0.012981062126159668,0.015472732811421155,0.1466682416933123
1772618957620512000,3.661511962890625,0.0034089316606521606,0.020114713398367165,0.1542862698158249
1772618957630542000,3.6715419921875,0.03950549643635749,0.056234951310604804,0.20082765623833984
1772618957640573000,3.681572998046875,0.0613426497131586,0.06512143759950995,0.28405685132797803
1772618957650604000,3.69160400390625,0.08404372634291649,0.06345131243020295,0.29536387929469343
1772618957660634000,3.701634033203125,0.09150631730854511,0.06409530942216515,0.2813099455063231
1772618957670665000,3.7116650390625,0.10688976440131663,0.032829818064719435,0.23455908105159176
1772618957680695000,3.721695068359375,0.06499065082669257,-0.004545388344675302,0.2297461826108396
1772618957690726100,3.73172607421875,-0.005272971966862678,0.025210867493599652,0.20011567204408345
1772618957700757000,3.741757080078125,-0.03461713987290859,0.04446691823601723,0.19017326522776856
1772618957710787000,3.751787109375,-0.06244213538765907,0.03099792646244168,0.2310721339849755
1772618957720818000,3.76181787109375,-0.08815525331497191,0.024581629679352044,0.22433047770503908
1772618957730848000,3.771847900390625,-0.09546645311117172,0.02278364034667611,0.21073258058847857
1772618957740879000,3.781879150390625,-0.0964034417003393,-0.003728372873365879,0.1969122911592014
1772618957750910000,3.791909912109375,-0.0927349823206663,-0.020089871218055486,0.1561998848848045
1772618957760940000,3.80193994140625,-0.0869230811715126,-0.00604191051274538,0.15925240432322024
1772618957770971100,3.81197119140625,-0.08718670054376125,-0.018645371498167515,0.14715318479919806
1772618957781002000,3.822001953125,-0.05992459960877895,-0.028389059138298034,0.13579923068452626
1772618957791032000,3.832031982421875,-0.03532558040320873,-0.05730404184684157,0.11795193249518052
1772618957801063200,3.842063232421875,-0.006970423534512519,-0.06732420834079385,0.10250905596590601
1772618957811093000,3.852093017578125,0.012801029384136199,-0.05077084068581462,0.07534427792555652
1772618957821124000,3.8621240234375,0.037250410985946655,-0.06524053393453359,0.05828768258932977
1772618957831155000,3.872155029296875,0.10387246240675449,-0.07548749492168426,0.09681946602216922
1772618957841185000,3.88218505859375,0.09761807818710803,-0.04540215325951576,0.14478695799135602
1772618957851216100,3.892216064453125,0.07515665553212166,-0.02956511718034744,0.18656448187977073
1772618957861247000,3.9022470703125,0.02174772142767906,0.010387538501620292,0.1947997377183288
1772618957871277000,3.912277099609375,-0.0014566285490989685,0.008676642930507659,0.18879476168248802
1772618957881308200,3.92230810546875,-0.03386310663521289,-0.0049719431936740876,0.16308739764252678
1772618957891338000,3.932337890625,-0.023786533778905865,-0.016314590463042258,0.14229072072883137
1772618957901369000,3.942369140625,-0.010218027153611182,-0.02283683183863759,0.15517985765468328
1772618957911400200,3.952400146484375,-0.0031055647999048233,-0.012514029136300087,0.15709844115972518
1772618957921430000,3.962429931640625,0.02030161427259445,0.0029968437284231186,0.1680167255371809
1772618957931461000,3.972461181640625,-0.0000637128859758377,0.013804945729672908,0.20256894694771616
1772618957941491000,3.982490966796875,-0.011688684228062629,0.028176147039979695,0.2200831772577949
1772618957951522000,3.99252197265625,0.0095288758456707,0.06732771547213197,0.20238741636835036
1772618957961553200,4.00255322265625,-0.0016968670457601547,0.03599500409737229,0.22741262509673832
1772618957971583000,4.0125830078125,-0.006060907474160194,-0.0018427052572369575,0.19570077821128068
1772618957981614000,4.022614013671875,0.0009562778115272521,-0.03088789021670818,0.14665558314113877
1772618957991645200,4.032645263671875,0.01446457868218422,-0.025881606362015006,0.1838119683012366
1772618958001675000,4.042675048828125,0.03528407934904098,-0.03667933309972286,0.17332991991657762
1772618958011706000,4.0527060546875,0.05141688350439071,-0.03982698347568512,0.15870697233490644
1772618958021736000,4.06273583984375,0.08431786710917949,-0.0558082503311336,0.12444949608724563
1772618958031766800,4.072766845703125,0.09374562066793442,-0.07138985034450888,0.09137027897187508
1772618958041798100,4.082798095703125,0.07824234658777714,-0.0763080175243318,0.041652728464966635
1772618958051828000,4.092827880859375,0.07789806319475173,-0.07534077992737293,0.010865449078520759
1772618958061858800,4.10285888671875,0.0645189416617155,-0.08493892161697149,0.010088601220818236
1772618958071889000,4.112888916015625,0.09639584291577338,-0.07592500955611467,0.02991826886641793
1772618958081920000,4.122919921875,0.08032265999317169,-0.08863426900357008,0.041519512273045255
1772618958091950800,4.132950927734375,0.03168225546479225,-0.07443871652111411,0.0694346702892799
1772618958101981000,4.14298095703125,-0.0036626141607761383,-0.06544000202938914,0.09446981588979252
1772618958112012000,4.153011962890625,-0.050344285836815834,-0.0526245057284832,0.1073615740309935
1772618958122043000,4.16304296875,-0.08322598021924495,-0.020994564972817896,0.14637411758494562
1772618958132073000,4.173072998046875,-0.09210194511413573,0.017932547053694722,0.18002682373933493
1772618958142103800,4.183103759765625,-0.09625555766224861,0.03845774094909429,0.1920214138451032
1772618958152134000,4.1931337890625,-0.09361585680842399,0.057765375748276705,0.20539763103500008
1772618958162165000,4.2031650390625,-0.10208850159943103,0.07307824182286858,0.17979783728905022
1772618958172195800,4.21319580078125,-0.1369640001475811,0.0617949235253036,0.17137246570587159
1772618958182226000,4.223225830078125,-0.15239830064475535,0.05162614234089851,0.15047965320763176
1772618958192257000,4.233257080078125,-0.1382096162945032,0.0425170993424952,0.16019668116969987
1772618958202287900,4.243287841796875,-0.06985504199266433,0.0809836081199348,0.20104018474416807
1772618958212318000,4.25331787109375,-0.0014268179327249525,0.052328883782774206,0.2190758085798472
1772618958222349000,4.26334912109375,0.05773322704434394,0.02975143353268504,0.25042028345763684
1772618958232379000,4.27337890625,0.09935527724325656,0.02841828523278236,0.22604429588560013
1772618958242410000,4.283409912109375,0.10351531953215598,0.007743161472678184,0.18502992925625295
1772618958252440800,4.29344091796875,0.09963000253140926,-0.009042845894396304,0.16476718568932264
1772618958262471000,4.303470947265625,0.0822913297176361,-0.00373290291801095,0.1754933084955439
1772618958272502000,4.313501953125,0.06020633915960789,-0.0031252924136817455,0.18438390470398588
1772618958282532000,4.323531982421875,0.03448328436017036,-0.00016483517289161682,0.19162355536762624
1772618958292563000,4.33356298828125,0.033687165546417236,-0.0033053251557052135,0.21102847652882337
1772618958302594000,4.343593994140625,0.001578209102153778,0.007373305246978998,0.20747783484254032
1772618958312623900,4.353623779296875,0.0025438392639160153,-0.0014108897112309932,0.21616945614647118
1772618958322655000,4.363655029296875,0.03346387818455696,-0.013763006284087895,0.2074082767376676
1772618958332685800,4.373685791015625,0.031962241449952127,-0.029221710570156573,0.18704753442266955
1772618958342716000,4.3837158203125,0.02497720486819744,-0.04736790037453174,0.15693114003511144
1772618958352747000,4.3937470703125,-0.023791794475913047,-0.05593903710395098,0.13387970646456815
1772618958362777000,4.403777099609375,-0.06159340960383415,-0.04167816430032253,0.11705163178774527
1772618958372808000,4.413807861328125,-0.0644885465234518,-0.02822553913965821,0.15205272034378722
1772618958382839000,4.423839111328125,-0.058985857453942296,-0.02473331310972571,0.16182314986037089
1772618958392869000,4.433869140625,-0.02408054828941822,-0.033879911639541384,0.19361315828226505
1772618958402900000,4.44389990234375,0.002096095496416092,-0.05176423563733697,0.20051784137049689
1772618958412931000,4.45393115234375,0.017136428239941597,-0.044633068583160636,0.222858907315135
1772618958422961000,4.4639609375,0.03896247560083866,-0.06018558863252401,0.23028102013990281
1772618958432992000,4.473991943359375,0.07834054626524448,-0.06152399762943387,0.22279135850425807
1772618958443022000,4.48402197265625,0.07573240959346295,-0.08692147373631597,0.21621369714699684
1772618958453053000,4.494052978515625,0.05631576146185398,-0.08913710395917296,0.1848047239319421
1772618958463084000,4.504083984375,0.029722353568673133,-0.08014072755500674,0.16640242220833898
1772618958473114000,4.514114013671875,-0.007689385458827018,-0.06246566239371895,0.11706941403960808
1772618958483145000,4.52414501953125,-0.032144612279534336,-0.048882396590709684,0.11895279836710541
1772618958493175000,4.534175048828125,-0.05149111778438091,-0.0401198289424181,0.10865345873874611
1772618958503206000,4.544205810546875,-0.04357727591991424,-0.029981589026749134,0.10150576067487709
1772618958513237000,4.554237060546875,-0.05188917719125748,0.009190583802014589,0.1496444901582785
1772618958523267000,4.56426708984375,-0.0566156211912632,0.004965951844304799,0.13719108690172432
1772618958533298000,4.5742978515625,-0.022332243317365646,-0.00029445290192961694,0.1355922094708774
1772618958543329000,4.5843291015625,0.007646715360879897,-0.015263473974913358,0.12582314992747268
1772618958553359000,4.594359130859375,0.02265139226913452,-0.029869945345818993,0.1320610214037355
1772618958563390000,4.604389892578125,0.06332242535352707,-0.014839111083000898,0.13961331821312195
1772618958573420000,4.614419921875,0.052286067554354665,-0.04834624388739466,0.15620167498309165
1772618958583451100,4.624451171875,0.013421207109093666,-0.03745587043017149,0.16177118221111594
1772618958593482000,4.63448193359375,-0.02159866834580898,-0.02574438984841108,0.16836718294266612
1772618958603512000,4.644511962890625,-0.048991702184081075,-0.03687660923749208,0.17007066239230334
1772618958613543000,4.65454296875,-0.055175943776965136,-0.01571735522225499,0.16724753126297146
1772618958623574000,4.664573974609375,-0.03978548242151737,-0.019323709151148796,0.17741229385938495
1772618958633604000,4.67460400390625,-0.033468554359674454,-0.019548311687260865,0.16267735553691162
1772618958643635000,4.684635009765625,-0.036816695743799206,-0.026803835773468017,0.15500935992598533
1772618958653665000,4.6946650390625,-0.05052314953505992,-0.006389847167581319,0.12628457516045308
1772618958663696100,4.704696044921875,-0.03968611370027065,-0.016706220129132268,0.1400525407474488
1772618958673727000,4.71472705078125,-0.0009258826732635498,-0.0375740899823606,0.12807883816608226
1772618958683757000,4.724757080078125,0.015153145468235015,-0.050996027743816376,0.14931170540680178
1772618958693788200,4.7347880859375,0.0263426480025053,-0.035744828728586434,0.16765991145614534
1772618958703818000,4.74481787109375,0.03342354617416859,-0.06098755266517401,0.1530457499691285
1772618958713849000,4.75484912109375,0.052637365210056304,-0.06155541568100452,0.16027610308146104
1772618958723880000,4.7648798828125,0.06576221972107887,-0.07192877952679991,0.14553420529523864
1772618958733910000,4.774909912109375,0.05651566794812679,-0.07013955802246928,0.11529575543059035
1772618958743941000,4.784941162109375,0.03575520399212837,-0.020598259131610393,0.1325230311586056
1772618958753972000,4.794971923828125,0.0005073650002479553,-0.0034631460659205913,0.14338733859281055
1772618958764002000,4.805001953125,-0.0028296704679727554,0.01801920242384076,0.1492356079632882
1772618958774033200,4.815033203125,0.010525485667586326,0.008898468987643718,0.17798549063745886
1772618958784063000,4.82506298828125,0.06081015027165412,0.005556757344305515,0.2127790282568894
1772618958794094000,4.835093994140625,0.11244389139711856,-0.019646803625673056,0.21807919875793158
1772618958804125200,4.845125244140625,0.1200321545690298,-0.036004502578079696,0.2334625362528488
1772618958814155000,4.855155029296875,0.09852408711612223,-0.05854600473195314,0.23024432312501594
1772618958824186000,4.86518603515625,0.0801741914331913,-0.06433335596174002,0.17570057630436495
1772618958834217000,4.875217041015625,0.04361234723329544,-0.05363119855299592,0.16242688790718093
1772618958844247000,4.8852470703125,-0.019447043269872663,-0.035769963169842954,0.13780098069468513
1772618958854278100,4.895278076171875,-0.08269406529963017,-0.03892492006942629,0.1298482315919362
1772618958864308000,4.905307861328125,-0.15838497383892536,-0.03666866557523608,0.14771785121094436
1772618958874339000,4.915339111328125,-0.20623393572866916,-0.006178250243514776,0.15655326489973811
1772618958884370200,4.9253701171875,-0.2402262217015028,-0.008214578376710415,0.16695680468808857
1772618958894400000,4.93539990234375,-0.2597404849886894,-0.04547565688714385,0.18524284135457128
1772618958904431000,4.94543115234375,-0.24894495020806787,-0.04902545832321047,0.19764964725673198
1772618958914461000,4.9554609375,-0.22462182533442973,-0.05207724710926413,0.20189766009002924
1772618958924491800,4.96549169921875,-0.1610106461673975,-0.07343187756612897,0.20282911398755385
1772618958934523100,4.975523193359375,-0.09871990194916724,-0.06656666797176003,0.21708507315404713
1772618958944553000,4.985552978515625,-0.026680501654744147,-0.05316372717171907,0.2029050287679769
1772618958954583800,4.995583740234375,0.025763386809825897,-0.027168431302160023,0.18268402371723202
1772618958964615200,5.005615234375,0.05406009148955345,-0.006332125630974769,0.16288761902041732
1772618958974645000,5.01564501953125,0.08440203826129436,0.016615911497175694,0.11691206805342808
1772618958984675800,5.02567578125,0.1210690964013338,0.04121683039888739,0.10620375489853322
1772618958994706000,5.035705810546875,0.1642944901436567,0.061695847065001724,0.1598246147206053
1772618959004737000,5.045737060546875,0.20040566796660422,0.06640139440745114,0.19622578846607355
1772618959014767900,5.055767822265625,0.17315584199130535,0.07207797873914241,0.2107954897568561
1772618959024798000,5.0657978515625,0.10030278722643851,0.07855287384167313,0.22741956629417837
1772618959034828800,5.075828857421875,0.05489654231369495,0.09384922717288136,0.22144599004359913
1772618959044860000,5.08585986328125,0.043272155493497846,0.07777794394642114,0.22007554194061085
1772618959054890000,5.095889892578125,0.042265608799457545,0.06841667975261807,0.21345199561500922
1772618959064920800,5.1059208984375,0.08416179976463317,0.04266308368444442,0.20540133909573777
1772618959074951000,5.115950927734375,0.08106032661795616,0.021875001069158316,0.15209370994130147
1772618959084982800,5.125982666015625,0.06948445511460304,-0.011773001510649918,0.07493048209343105
1772618959095014000,5.136013916015625,0.05639934809207916,-0.036712796977907414,0.05317134422259405
1772618959105044000,5.1460439453125,0.0484153636008501,-0.03969882705137134,0.05361097774887457
1772618959115074800,5.15607470703125,0.0530336710512638,-0.04415463741645217,0.04590615725889802
1772618959125106000,5.16610595703125,0.04390285461246967,-0.04536752033755183,0.06659587579993531
1772618959135136000,5.176135986328125,0.017189619731903076,-0.0515457705810666,0.05620163356289267
1772618959145166800,5.186166748046875,-0.03242459826469421,-0.042755145882070064,0.04171809445191175
1772618959155197000,5.196197021484375,-0.1179670387327671,-0.052083676850050685,0.04839139820337295
1772618959165227800,5.206227783203125,-0.16593232047855852,-0.023363486061245203,0.06020792832849547
1772618959175259000,5.2162587890625,-0.17961013269722462,-0.0020746143169701097,0.08853864487567915
1772618959185289000,5.2262890625,-0.13409399766921995,-0.024470570520311593,0.11933326731836423
1772618959195319800,5.23631982421875,-0.08153612743616104,-0.032282851706445216,0.14830147805148736
1772618959205351000,5.246350830078125,-0.06084931323826313,-0.04107420705780387,0.13867071273392065
1772618959215381000,5.256381103515625,-0.035843466797471045,-0.07563713252544403,0.12222869649892672
1772618959225411800,5.266411865234375,-0.0359849210947752,-0.07850362787246704,0.0818582537963055
1772618959235442000,5.27644189453125,-0.04085106582641601,-0.08962766395509242,0.06456464396696537
1772618959245473000,5.28647314453125,-0.040407998234033585,-0.09649053546190262,0.09799564279522746
1772618959255504000,5.29650390625,-0.005567570999264717,-0.08193170262500643,0.1465871484142728
1772618959265534000,5.306533935546875,0.029025603476166725,-0.07688026445433498,0.18478651242181657
1772618959275564800,5.316564697265625,0.043614685320854184,-0.05313946951329708,0.21461930409502236
1772618959285595000,5.326594970703125,0.04009761711061001,-0.049622255172580475,0.1822779636669904
1772618959295626000,5.3366259765625,0.0071843585461378095,-0.027579788582026955,0.1494809518933296
1772618959305656800,5.34665673828125,0.019022095856070516,-0.01945654175058007,0.15799327110759914
1772618959315687000,5.35668701171875,0.03353109820187092,-0.032862551290541886,0.17261578029785304
1772618959325718000,5.366718017578125,0.0489250666886568,-0.026018969006091356,0.16069401796627789
1772618959335748900,5.376748779296875,0.058630468145012854,-0.024212796366959808,0.17263689615111796
1772618959345779000,5.386779052734375,0.0310918883562088,-0.0059722062774002545,0.1920655635140836
1772618959355810000,5.39681005859375,0.03882160582542419,-0.012633856123685836,0.15225421599894762
1772618959365840000,5.40683984375,0.05662380449771881,-0.0311114698395133,0.15959314405228942
1772618959375871000,5.41687109375,0.038076340416073794,-0.01533653921112418,0.1672492117634043
1772618959385901800,5.42690185546875,0.0396580566495657,0.015705664784461257,0.20045195479374378
1772618959395932000,5.436931884765625,0.030896073523163793,0.04084580512940884,0.216534672729671
1772618959405963000,5.446962890625,0.009358779975771904,0.03881444543227553,0.21264230493362993
1772618959415993900,5.456993896484375,-0.01107610528767109,0.023815467612445355,0.2017307790905237
1772618959426024000,5.46702392578125,-0.03765139300227165,-0.013518676134198904,0.1894231227139011
1772618959436055000,5.477054931640625,-0.007732640078663825,-0.0413822500936687,0.17884433595649896
1772618959446084900,5.4870849609375,0.00793722274005413,-0.0727550012178719,0.13989640033766626
1772618959456116000,5.497115966796875,0.022142273703217506,-0.09223696967065334,0.10803962855618446
1772618959466147000,5.50714697265625,0.026291210076212882,-0.1047454458490014,0.1132630622928962
1772618959476177000,5.517177001953125,0.01312953068614006,-0.08455416008308529,0.13290171914473176
1772618959486208000,5.5272080078125,-0.01276654259264469,-0.058418286699056625,0.15015848582871258
1772618959496238000,5.537238037109375,-0.046563598254323005,-0.07019961764663457,0.12782321030404417
1772618959506269000,5.54726904296875,-0.11356500438153742,-0.09963190222755074,0.09680793084800243
1772618959516300000,5.557300048828125,-0.12225333774983882,-0.09746581023484469,0.10378803552631288
1772618959526330000,5.567330078125,-0.11075286957025528,-0.09590805939882993,0.12447700514867902
1772618959536361000,5.57736083984375,-0.10633213051855564,-0.0991867888085544,0.1664438867298886
1772618959546392000,5.58739208984375,-0.06015957740843296,-0.08816036788150668,0.172227950024046
1772618959556422000,5.597421875,-0.03542027294933796,-0.08064516994580626,0.17404095426276325
1772618959566453000,5.607452880859375,-0.011614449948072432,-0.0500949872508645,0.21542872078176586
1772618959576483000,5.617483154296875,-0.035976737788319585,-0.023347119448333977,0.21430928829777984
1772618959586514000,5.627513916015625,-0.057529813426733016,0.02563596103787422,0.2119521672450006
1772618959596545000,5.637544921875,-0.06737959178984165,0.07637085362747312,0.2051594018323347
1772618959606575000,5.6475751953125,-0.019315525844693184,0.09826967396363616,0.2132174744730815
1772618959616606000,5.65760595703125,0.05580021315515041,0.10124226003363727,0.22155491204448044
1772618959626637000,5.667636962890625,0.0915852277636528,0.10408610515743494,0.2217202221414074
1772618959636667100,5.677667236328125,0.1252040042489767,0.06865136529132723,0.23267869239877909
1772618959646698000,5.687697998046875,0.12605857525169847,0.05867693763524293,0.21178451906051485
1772618959656728000,5.69772802734375,0.12970599184334278,0.06685922117754817,0.2092720978481695
1772618959666759000,5.707759033203125,0.11486088941097258,0.06808160257935524,0.2234740435387939
1772618959676790000,5.7177900390625,0.11281973897218704,0.06240457985624671,0.20929251958169043
1772618959686820000,5.727820068359375,0.12445815431773662,0.04254369508847594,0.17605258634611964
1772618959696851000,5.737850830078125,0.11509586721062659,0.0012158055305480956,0.147282784261927
1772618959706882000,5.747882080078125,0.10463526347279548,-0.047223815728724,0.13886482880022377
1772618959716912000,5.757912109375,0.07762918312549591,-0.05612535345628857,0.13887834586892275
1772618959726943000,5.76794287109375,0.03237783651351928,-0.0514249206803739,0.15876644743718207
1772618959736972800,5.777972900390625,-0.022972294786572454,-0.037503947355598206,0.1789040302544832
1772618959747004000,5.78800390625,-0.07760229511857032,-0.02184007588624954,0.19795860360804943
1772618959757035000,5.798034912109375,-0.13924363551735877,-0.026926439239829777,0.17924436812475322
1772618959767064800,5.80806494140625,-0.17408698536157607,-0.033775282221287485,0.1496788125529885
1772618959777095700,5.818095703125,-0.19212591539919374,-0.0322976108841598,0.165839600693807
1772618959787127000,5.828126953125,-0.1700502771914005,-0.034698242285102605,0.1656957352437079
1772618959797156900,5.838156982421875,-0.16627426578402518,-0.023089345294982192,0.1603517073346302
1772618959807187700,5.848187744140625,-0.10437690479755402,-0.014223025011271238,0.17210194902420042
1772618959817217800,5.8582177734375,-0.03801555013954639,-0.016573533660173414,0.16977080266289413
1772618959827249000,5.868248779296875,0.038676059874892234,-0.03295139861777425,0.18871599735785274
1772618959837279700,5.87827978515625,0.09381225616335868,-0.03690963472425937,0.17105649509187787
1772618959847309800,5.888309814453125,0.08721768020391464,-0.05207315545603633,0.16014884170629085
1772618959857341000,5.8983408203125,0.04814005379080772,-0.04285656042993068,0.15380455071348695
1772618959867371800,5.908371826171875,0.022482465443015097,-0.021065438251942396,0.18435860586594788
1772618959877401900,5.91840185546875,0.0042658407509326935,-0.01705064965263009,0.1878691712701693
1772618959887432700,5.9284326171875,0.009508417579531669,-0.01682268611565232,0.16379965583141892
1772618959897462800,5.938462890625,0.026958149552345274,-0.017164193029701708,0.14960819500219075
1772618959907494000,5.948493896484375,0.027764789760112762,-0.03500233979821205,0.11328823326677083
1772618959917524700,5.958524658203125,0.04261573741137981,-0.040179304044693706,0.10260554774347692
1772618959927554800,5.968554931640625,0.05362345363795757,-0.04918927058279514,0.09507157204207033
1772618959937586000,5.9785859375,0.07972761670947075,-0.05940510577932,0.08521152801327407
1772618959947616800,5.98861669921875,0.11670564049482345,-0.056764966534078115,0.11950802109707147
1772618959957646800,5.998646728515625,0.1385240890711546,-0.06686667383164167,0.13679839778970926
1772618959967678000,6.008677978515625,0.1410860485136509,-0.06276333016604185,0.13792104514408857
1772618959977707800,6.018707763671875,0.09201134422123432,-0.06068754680529236,0.14326682661883533
1772618959987739000,6.02873876953125,0.03142214322388172,-0.04316036568209529,0.13455971548482776
1772618959997769700,6.038769775390625,-0.033570845690369604,-0.034909839209169145,0.1297642248366028
1772618960007799800,6.0487998046875,-0.05798223336935043,-0.029007629428058863,0.10143091447353363
1772618960017831000,6.058830810546875,-0.03797288004159927,-0.052380906230956314,0.1057196246434003
1772618960027861800,6.06886181640625,-0.025490999609231946,-0.0795814862370491,0.12999602429848164
1772618960037891800,6.078891845703125,-0.02833469860255718,-0.05903071950897574,0.12476349393986165
1772618960047923000,6.0889228515625,-0.041708559438586236,-0.06277063668966293,0.12749014242477713
1772618960057952800,6.098952880859375,-0.04190378974974155,-0.05730550315156579,0.1289743165679276
1772618960067984000,6.10898388671875,-0.0387777666836977,-0.045671617850661275,0.14640410173125565
1772618960078015000,6.119014892578125,-0.04489887991249561,-0.06266776083707809,0.1462356132965535
1772618960088044500,6.12904443359375,-0.050638884869217866,-0.03298763897493481,0.12144538236781954
1772618960098075600,6.13907568359375,-0.07969839061498642,-0.013698416615277528,0.13615184351447968
1772618960108106500,6.1491064453125,-0.0758165807455778,0.00969751041084528,0.15489198062401263
1772618960118136600,6.159136474609375,-0.07432488088309765,0.025055969192832706,0.16014518844448028
1772618960128167700,6.169167724609375,-0.08840250607430934,0.024338322442770004,0.15547862140554933
1772618960138197500,6.179197509765625,-0.07344517543911934,0.05062821734473109,0.16984200473558156
1772618960148228600,6.189228515625,-0.00959200420975685,0.05561243549808859,0.1864622636143118
1772618960158259700,6.199259765625,0.006084872871637344,0.06996390919461846,0.24581859834846106
1772618960168289500,6.20928955078125,0.04771569089889526,0.049056437983363864,0.22149280659370124
1772618960178320600,6.219320556640625,0.06363572908639907,0.010432838948071002,0.15910926952548324
1772618960188350500,6.2293505859375,0.026768179938197134,-0.020115444050729275,0.1282493632942438
1772618960198381300,6.23938134765625,-0.005631283885240554,0.006210252816975116,0.10370269533041863
1772618960208412700,6.24941259765625,-0.00995323873758316,0.006113514444231987,0.08933328411839903
1772618960218442500,6.2594423828125,0.05044307003617286,-0.017245879963785408,0.1290789825187996
1772618960228473300,6.269473388671875,0.09749591311216353,-0.020054069252312182,0.17070450331643222
1772618960238504700,6.279504638671875,0.11446341452598571,-0.0060232058122754095,0.18101174312345683
1772618960248534500,6.289534423828125,0.07903145113885403,-0.03355404068604111,0.16550492537934333
1772618960258565400,6.2995654296875,0.03717033148705959,-0.02055631968602538,0.12536792610641567
1772618960268596700,6.3095966796875,-0.0068634560286998745,-0.013133183947950601,0.0748092668665573
1772618960278626600,6.31962646484375,0.0007581248909235,-0.016723463524878024,0.0848641028150916
1772618960288657400,6.329657470703125,-0.00030278233885765074,-0.01150587500706315,0.12934402666315437
1772618960298687500,6.3396875,0.053386137750744814,0.02655570623129606,0.16804558630548416
1772618960308718300,6.34971826171875,0.1025257239729166,0.026803397382050752,0.2304631717737764
1772618960318749400,6.35974951171875,0.09526420853734016,0.03210778740048408,0.23182583842910826
1772618960328779500,6.369779541015625,0.06722352444529534,0.04109145045354962,0.22891506554894148
1772618960338810400,6.379810302734375,0.06753624365627765,0.008851707236468791,0.2404530161947012
1772618960348840400,6.38984033203125,0.03135492320656776,-0.01064487426355481,0.21221326586659997
1772618960358871600,6.39987158203125,-0.022228198421001433,0.006459843663871288,0.1715549461333081
1772618960368902400,6.40990234375,-0.04064005342423915,-0.001869739394634962,0.16333481479864567
1772618960378932500,6.419932373046875,-0.0034971944659948346,-0.007563128730654716,0.21974179820790884
1772618960388963600,6.429963623046875,0.04287000443339348,-0.019201397945731877,0.2407385551378131
1772618960398994400,6.439994384765625,0.0639396804690361,-0.04398731802552938,0.25647140019014475
1772618960409024500,6.4500244140625,0.04809036943018436,-0.05424304684102535,0.2525190823677927
1772618960419055400,6.460055419921875,0.012710428491234778,-0.0619616583943367,0.2032907584162429
1772618960429085400,6.47008544921875,-0.045263037049770354,-0.05320815083533525,0.19748002631086856
1772618960439116500,6.480116455078125,-0.06925941418707371,-0.07724646741822362,0.14249463666994125
1772618960449147400,6.4901474609375,-0.03246960645020008,-0.09389993444681168,0.10329970402009785
1772618960459177500,6.500177490234375,0.055262453016638756,-0.112371264552325,0.08647486247997731
1772618960469208600,6.51020849609375,0.08445932140648364,-0.11654548149704932,0.08764978801086544
1772618960479239400,6.520239501953125,0.06701718821823596,-0.109404962092638,0.08346011776868253
1772618960489269500,6.53026953125,0.03185235133469105,-0.08125044236257672,0.07073628180660307
1772618960499300400,6.54030029296875,-0.009433014255762099,-0.06398775739446282,0.08654964474923908
1772618960509330400,6.550330322265625,-0.0430956298828125,-0.043144291330128905,0.08109382702875882
1772618960519361500,6.560361572265625,-0.06354162106215953,-0.0023714053064584732,0.0817471398383379
1772618960529392400,6.570392333984375,-0.12354220851659774,-0.009618453825265168,0.09626648091506212
1772618960539422500,6.58042236328125,-0.14321312367022038,0.026448592595010995,0.11173293011616915
1772618960549453600,6.59045361328125,-0.08077157280445098,0.04135214721634984,0.14992478667069226
1772618960559484400,6.600484375,0.005910100826621055,0.0192602885261178,0.19950758661571888
1772618960569514500,6.610514404296875,0.05460018971562385,0.01036342697367072,0.19135909574516116
1772618960579545600,6.620545654296875,0.08593173204660415,0.020447598614543674,0.16649627450425178
1772618960589576400,6.630576416015625,0.06406009197831153,0.009616261868178844,0.15970537225510925
1772618960599606500,6.6406064453125,-0.00966039327085018,0.005037117384374142,0.1527793723842129
1772618960609637400,6.650637451171875,-0.03736789988577366,0.013388181622326373,0.14412432023100555
1772618960619667500,6.66066748046875,-0.006812602624297142,-0.016342793644219637,0.16918164113070816
1772618960629698600,6.670698486328125,0.05351122543513775,-0.016477087548375128,0.1779208644360304
1772618960639729400,6.6807294921875,0.05295359155237674,-0.045572395259886975,0.19011749818623064
1772618960649759500,6.690759521484375,0.09081248982548713,-0.05736424760147929,0.1806005319740623
1772618960659790600,6.70079052734375,0.0958551601678133,-0.04493365896493196,0.184110841649957
1772618960669820700,6.710820556640625,0.09664426471889019,-0.030602205143123864,0.1925414008649066
1772618960679851500,6.7208515625,0.0864133780837059,-0.03174319187179207,0.19379450619854033
1772618960689882600,6.730882568359375,0.11181845297515391,-0.017706775473803282,0.16705416411533952
1772618960699912400,6.740912353515625,0.1555196475356817,-0.014000906693190335,0.16568335068617016
1772618960709943600,6.750943603515625,0.1909171241313219,-0.020927052694559096,0.18555497604366392
1772618960719974400,6.760974365234375,0.1783557487219572,-0.03603095219358802,0.1378376411769539
1772618960730004500,6.77100439453125,0.15990531527400015,-0.027590017715096473,0.07712448500636965
1772618960740035600,6.78103564453125,0.1269429568707943,-0.0366525912232697,0.03853500743638724
1772618960750066400,6.79106640625,0.08031798381805419,-0.0450932334408164,-0.008706563144735991
1772618960760096500,6.801096435546875,0.03637187458574772,-0.06438494001850485,-0.02287829636018723
1772618960770127600,6.811127685546875,-0.023109072908759114,-0.05086290288344025,-0.01712079227939248
1772618960780157400,6.821157470703125,-0.034601942303776737,-0.021370850939303635,0.02082662452738732
1772618960790188500,6.8311884765625,-0.006665887629985809,0.006361936247348785,0.0964000441668555
1772618960800219600,6.8412197265625,-0.0039051907449960707,-0.0013498071737587452,0.14979779929015785
1772618960810249500,6.85124951171875,0.0009697218149900435,0.00609159487336874,0.1776583045097068
1772618960820280600,6.861280517578125,0.00028349311649799344,0.010006284099072218,0.1725878693776205
1772618960830311400,6.8713115234375,0.006008885025978088,0.007003595151752233,0.16212770403120666
1772618960840341500,6.881341552734375,-0.03093231388032436,0.002707213132083416,0.1533812290011905
1772618960850372600,6.89137255859375,-0.10079027848243713,-0.012112316467612981,0.13240472940802572
1772618960860402700,6.901402587890625,-0.17314181346595287,0.0018397826477885245,0.12393431310672312
1772618960870433500,6.91143359375,-0.1873959642678499,-0.011764818204194307,0.09742451011007651
1772618960880464600,6.921464599609375,-0.19331483292281626,-0.04417085789889097,0.05843123751217499
1772618960890494500,6.931494384765625,-0.18758710292577743,-0.051307870171964164,0.04868793346453458
1772618960900525600,6.941525634765625,-0.17030571325719354,-0.03744008833914995,0.10861883494993671
1772618960910556700,6.951556640625,-0.10698854860067367,-0.010668109008669853,0.14863429020242766
1772618960920586500,6.96158642578125,-0.0655821869790554,-0.025268589030206203,0.19414717382742092
1772618960930617600,6.97161767578125,0.002838438296318054,-0.012859335442632435,0.19986072916863484
1772618960940647700,6.981647705078125,0.013391981014609335,-0.016628332587331533,0.17592969061881303
1772618960950678500,6.991678466796875,0.009212064981460572,-0.016950258018076418,0.13541187533475457
1772618960960709600,7.001709716796875,0.008194412371516227,-0.03306844912618399,0.08986260522212833
1772618960970739700,7.01173974609375,-0.00042027123868465424,-0.05828939962238073,0.06030457536969334
1772618960980770600,7.0217705078125,-0.031184827336668965,-0.052039399316906924,0.06849657658841461
1772618960990800600,7.031800537109375,-0.0016109423279762267,-0.030329525681585073,0.07885112613588571
1772618961000831500,7.04183154296875,-0.01023731637597084,-0.048020226803421974,0.15030132836550472
1772618961010862600,7.051862548828125,-0.017096096229553222,-0.028872312610596418,0.1894090576559305
1772618961020892700,7.061892578125,-0.022661329141259193,-0.013956775290518999,0.1957535313118249
1772618961030923500,7.071923583984375,-0.08395312545001506,-0.004875789342820644,0.2114642010649666
1772618961040954600,7.08195458984375,-0.11408756695091724,0.009897563027590513,0.19562091790810227
1772618961050984700,7.091984619140625,-0.11211246748566626,0.009729220723360776,0.19349044521804898
1772618961061015600,7.102015625,-0.07434358558356761,-0.058727352648228405,0.19260456576161086
1772618961071046700,7.112046630859375,-0.06364449691474437,-0.10902283090725541,0.08500679922141134
1772618961081076700,7.12207666015625,-0.10820026247799396,-0.15262377996370197,0.0021968889897689223
1772618961091107000,7.132107177734375,-0.13131751869320868,-0.18265344591587782,-0.018853643953986466
1772618961101137200,7.14213720703125,-0.10051146154105663,-0.14779212202355266,0.025299130298942325
1772618961111168300,7.152168212890625,-0.046110009267926216,-0.11319441750347614,0.11187927978429943
1772618961121199000,7.16219921875,0.04294949941039085,-0.08464081545323134,0.19667784308250993
1772618961131229200,7.172229248046875,0.06802198134660721,-0.053269087242335075,0.251626079050824
1772618961141260000,7.182260009765625,0.018429975181818006,-0.02488119714781642,0.24538970541190355
1772618961151291100,7.192291015625,-0.04154489330947399,-0.009199351630359887,0.223343074102886
1772618961161321200,7.2023212890625,-0.1078846206575632,0.014734773925691842,0.1709122643155977
1772618961171352000,7.21235205078125,-0.1166208848208189,0.009721914199739693,0.11780490697361529
1772618961181382100,7.222382080078125,-0.07956336605846881,0.007319821494072675,0.13212898120656608
1772618961191413200,7.232413330078125,0.014978957945108413,0.003953852192312479,0.21542872078176586
1772618961201444000,7.242444091796875,0.06571019727289676,0.03990107162520289,0.2432299335621297
1772618961211474200,7.25247412109375,0.09119242905378341,0.04590659565031528,0.2544580510737374
1772618961221505300,7.26250537109375,0.09600245968401432,0.04131795268580317,0.24728625974822788
1772618961231536000,7.2725361328125,0.10761983224153518,0.007433072610199451,0.21812848125975579
1772618961241566200,7.282566162109375,0.12017653147578239,-0.01703296786546707,0.17039152837712318
1772618961251597000,7.29259716796875,0.09715572137236594,-0.03147796506434679,0.15426617687586694
1772618961261627100,7.302627197265625,0.09096797264814377,0.0006863748289644717,0.1466076249467209
1772618961271658200,7.312658203125,0.08724339916706085,0.045844197938591236,0.20419874010663477
1772618961281689000,7.322689208984375,0.04496259279847145,0.09816109902262687,0.22159133506473153
1772618961291719200,7.33271923828125,-0.027587679627537727,0.060181350848823784,0.2214878016250208
1772618961301750300,7.342750244140625,-0.0569639962375164,0.02952157029956579,0.14691194165553897
1772618961311781000,7.352781005859375,-0.002329319730401039,0.031133243279904126,0.060414428952336306
1772618961321811200,7.362811279296875,0.06473346119523048,-0.05471197952702641,0.1362869046036154
1772618961331842300,7.37284228515625,0.11660510272979735,-0.05299976878166198,0.12368136125896126
1772618961341872000,7.3828720703125,0.15666121878623962,-0.07900149439200758,0.08501750327851623
1772618961351903200,7.3929033203125,0.14847732780873774,-0.11585399210155009,0.08668233121819793
1772618961361934000,7.40293408203125,0.12304010421335697,-0.1265408058106899,0.037337249019183213
