time,seconds_elapsed,z,y,x
1772618954039581000,0.080580810546875,0.004579557571560144,0.028528381139039993,-0.008002737537026405
1772618954049611800,0.09061181640625,0.013261782005429268,0.04094656556844711,-0.017843041568994522
1772618954059643100,0.10064306640625,0.01917479932308197,0.04267282411456108,-0.02295844256877899
1772618954069672700,0.110672607421875,0.026301048696041107,0.026855578646063805,-0.02883959747850895
1772618954079703800,0.120703857421875,0.02649838849902153,0.0005209119990468025,-0.028507767245173454
1772618954089734000,0.13073388671875,0.02779921516776085,-0.02635198086500168,-0.022190887480974197
1772618954099764700,0.1407646484375,0.026870038360357285,-0.03774977847933769,-0.011329717002809048
1772618954109795800,0.1507958984375,0.020268790423870087,-0.0471721775829792,-0.005766703747212887
1772618954119826000,0.160825927734375,0.019046399742364883,-0.03896990418434143,-0.001508309505879879
1772618954129856800,0.170856689453125,0.015452871099114418,-0.02164018154144287,-0.013583753257989883
1772618954139887900,0.180887939453125,0.013212086632847786,-0.00406358577311039,-0.021289343014359474
1772618954149918000,0.19091796875,0.016417894512414932,0.01525797974318266,-0.023096926510334015
1772618954159948800,0.20094873046875,0.019726339727640152,0.03629908338189125,-0.015956193208694458
1772618954169979000,0.210978759765625,0.02203972265124321,0.04115995019674301,-0.002864721929654479
1772618954180009700,0.221009765625,0.02895701676607132,0.025670474395155907,0.011548305861651897
1772618954190040800,0.231040771484375,0.03622634708881378,0.01393192633986473,0.03057677298784256
1772618954200071000,0.24107080078125,0.0451870858669281,0.000048335641622543335,0.04637837037444115
1772618954210101800,0.251101806640625,0.053087491542100906,-0.00976934190839529,0.0505722351372242
1772618954220132900,0.2611328125,0.05580924451351166,-0.009365873411297798,0.05137571319937706
1772618954230163000,0.271162841796875,0.06564096361398697,-0.008046810515224934,0.04196050763130188
1772618954240193800,0.28119384765625,0.06576719880104065,-0.003226488595828414,0.0320759192109108
1772618954250223900,0.291223876953125,0.06675131618976593,0.002726343460381031,0.021004414185881615
1772618954260255000,0.3012548828125,0.0705212876200676,0.013218932785093784,0.02212161011993885
1772618954270285800,0.311285888671875,0.07060830295085907,0.013182314112782478,0.026380207389593124
1772618954280316000,0.32131591796875,0.07277078926563263,0.004762463271617889,0.03476277366280556
1772618954290346800,0.3313466796875,0.06675030291080475,-0.0012008878402411938,0.04505762830376625
1772618954300376800,0.341376953125,0.06663872301578522,-0.004633968695998192,0.053818363696336746
1772618954310408000,0.351407958984375,0.05834847688674927,-0.005079980939626694,0.06150706857442856
1772618954320438800,0.361438720703125,0.05469275638461113,-0.017647970467805862,0.06248178333044052
1772618954330468900,0.37146875,0.04542740434408188,-0.02445434406399727,0.05515417084097862
1772618954340500000,0.3815,0.04310619831085205,-0.03459459915757179,0.05532461032271385
1772618954350530800,0.39153076171875,0.036506444215774536,-0.03899393975734711,0.04553094506263733
1772618954360561000,0.401560791015625,0.03332769498229027,-0.03548362851142883,0.03841497749090195
1772618954370592000,0.411592041015625,0.03097466751933098,-0.027303259819746017,0.03513110801577568
1772618954380621800,0.421621826171875,0.022402219474315643,-0.015597335994243622,0.02478126250207424
1772618954390653000,0.43165283203125,0.01711772009730339,-0.009955896064639091,0.025211941450834274
1772618954400683800,0.441683837890625,0.013981581665575504,-0.010643789544701576,0.024363990873098373
1772618954410713900,0.4517138671875,0.0075411731377244,-0.009659620001912117,0.02409282699227333
1772618954420745000,0.461744873046875,0.0037781267892569304,-0.013309482485055923,0.025393782183527946
1772618954430775800,0.47177587890625,-0.0014018137007951736,-0.017188575118780136,0.02840065024793148
1772618954440806000,0.481805908203125,-0.008364914916455746,-0.017301227897405624,0.02623070776462555
1772618954450837000,0.4918369140625,-0.013525426387786865,-0.020205605775117874,0.020839575678110123
1772618954460866800,0.50186669921875,-0.011530986055731773,-0.017438046634197235,0.009409553371369839
1772618954470898000,0.51189794921875,-0.009698688983917236,-0.014772489666938782,0.004341266117990017
1772618954480929000,0.521928955078125,-0.0054578715935349464,-0.021767813712358475,-0.0035235811956226826
1772618954490958800,0.531958740234375,-0.002511262893676758,-0.034416500478982925,-0.005419056862592697
1772618954500990000,0.541989990234375,0.005245726555585861,-0.05385943874716759,0.001930202473886311
1772618954511020800,0.552020751953125,0.011875074356794357,-0.08349017053842545,0.019678499549627304
1772618954521051000,0.56205078125,0.01886826753616333,-0.10618323087692261,0.05161326378583908
1772618954531082000,0.57208203125,0.016874998807907104,-0.12898820638656616,0.10808809101581573
1772618954541112000,0.582112060546875,-0.0016321069560945034,-0.15551170706748962,0.15869852900505066
1772618954551143000,0.592142822265625,-0.017669767141342163,-0.18840406835079193,0.18332041800022125
1772618954561174000,0.602174072265625,-0.028696853667497635,-0.18760405480861664,0.18260084092617035
1772618954571203800,0.612203857421875,-0.01994597166776657,-0.15751884877681732,0.156494140625
1772618954581235000,0.62223486328125,-0.010549008846282959,-0.11731018126010895,0.10236591845750809
1772618954591265800,0.632265869140625,0.00558316009119153,-0.07280756533145905,0.038441069424152374
1772618954601296000,0.6422958984375,0.023417551070451736,-0.023893816396594048,-0.021476062014698982
1772618954611327000,0.652326904296875,0.03143575042486191,0.02045600302517414,-0.05948658660054207
1772618954621357000,0.662357177734375,0.03041948936879635,0.03398965671658516,-0.06505472213029861
1772618954631388000,0.672387939453125,0.019975576549768448,0.02253766544163227,-0.053931038826704025
1772618954641419000,0.6824189453125,0.010641463100910187,-0.0017604846507310867,-0.032382603734731674
1772618954651449000,0.692448974609375,-0.0027986066415905952,-0.028142889961600304,-0.007485145702958107
1772618954661480000,0.70247998046875,-0.002939754631370306,-0.04820581525564194,0.010680808685719967
1772618954671511000,0.712510986328125,0.002040125895291567,-0.04613194242119789,0.017343271523714066
1772618954681540900,0.722540771484375,0.009496444836258888,-0.029301829636096954,0.022166788578033447
1772618954691572000,0.732572021484375,0.017201077193021774,-0.008939100429415703,0.015961717814207077
1772618954701602000,0.74260205078125,0.019075941294431686,0.01258936058729887,0.007808716967701912
1772618954711633000,0.7526328125,0.014356298372149467,0.021791445091366768,0.009955008514225483
1772618954721664000,0.7626640625,0.00961240939795971,0.02258213795721531,0.013861599378287792
1772618954731694000,0.772694091796875,0.007210711948573589,0.019825035706162453,0.01800934597849846
1772618954741725000,0.782724853515625,0.0029744217172265053,0.016658537089824677,0.018594974651932716
1772618954751755000,0.792755126953125,0.0017411436419934034,0.010658301413059235,0.011121433228254318
1772618954761786000,0.8027861328125,0.002886303002014756,0.010998653247952461,0.005049958825111389
1772618954771817000,0.81281689453125,0.002821556059643626,0.008267982862889767,0.0012878893176093698
1772618954781847000,0.822846923828125,0.0014995629899203777,0.002227400429546833,-0.006721834186464548
1772618954791878000,0.8328779296875,0.00042057083919644356,0.004112652502954006,-0.005357622168958187
1772618954801909000,0.842908935546875,-0.0008707959204912186,0.010807307437062263,-0.004035895690321922
1772618954811939000,0.85293896484375,-0.006654401309788227,0.012107727117836475,0.0017109516775235534
1772618954821970000,0.862969970703125,-0.009166029281914234,0.01716906577348709,0.016576716676354408
1772618954832000000,0.873,-0.00647557619959116,0.02509516291320324,0.024609213694930077
1772618954842031000,0.883031005859375,-0.010471649467945099,0.022735869511961937,0.025193512439727783
1772618954852062000,0.89306201171875,-0.009158430621027946,0.025333784520626068,0.016833040863275528
1772618954862092000,0.903092041015625,-0.008403956890106201,0.02215663343667984,0.005089565645903349
1772618954872123000,0.913122802734375,-0.008356070145964622,0.013931593857705593,-0.006601788103580475
1772618954882154000,0.923154052734375,-0.008871392346918583,-0.00036984728649258614,-0.021338656544685364
1772618954892184000,0.93318408203125,-0.015536841936409473,-0.0015958347357809544,-0.031222764402627945
1772618954902215000,0.94321484375,-0.01604151353240013,-0.0003734435886144638,-0.03642125055193901
1772618954912244700,0.95324462890625,-0.015676144510507584,0.009279916062951088,-0.03453098610043526
1772618954922276000,0.963276123046875,-0.012251852080225945,0.01892881467938423,-0.02834179811179638
1772618954932307000,0.973306884765625,-0.011935999616980553,0.02704905904829502,-0.025478102266788483
1772618954942336800,0.983336669921875,-0.010337304323911667,0.027965454384684563,-0.013970316387712955
1772618954952368000,0.9933681640625,-0.013214138336479664,0.030337395146489143,0.003995847422629595
1772618954962399000,1.00339892578125,-0.011816511861979961,0.030788270756602287,0.016094587743282318
1772618954972428800,1.0134287109375,-0.014806338585913181,0.026162024587392807,0.020464399829506874
1772618954982460000,1.0234599609375,-0.011942108161747456,0.02336757257580757,0.015712786465883255
1772618954992489700,1.03348974609375,-0.00957205519080162,0.017431320622563362,0.011045427061617374
1772618955002520800,1.043520751953125,-0.007512898650020361,0.010068211704492569,0.0006279399385675788
1772618955012552000,1.053552001953125,-0.005630627274513245,0.006230997387319803,-0.013577969744801521
1772618955022581800,1.063581787109375,-0.006699354387819767,-0.0007017436437308788,-0.01989179290831089
1772618955032612900,1.07361279296875,-0.00930011086165905,0.0041856225579977036,-0.01480531319975853
1772618955042644000,1.08364404296875,-0.014003520831465721,0.012580972164869308,-0.007763915229588747
1772618955052673800,1.093673828125,-0.016982799395918846,0.01765269599854946,0.0007150571327656507
1772618955062705000,1.103704833984375,-0.015780381858348846,0.02065061591565609,0.004569716285914183
1772618955072734700,1.113734619140625,-0.012660570442676544,0.01813938468694687,0.01436556689441204
1772618955082765800,1.123765869140625,-0.012990269809961319,0.007161569315940142,0.011566052213311195
1772618955092797000,1.133796875,-0.013298279605805874,-0.0005091973580420017,0.014418384060263634
1772618955102826800,1.14382666015625,-0.011155233718454838,-0.008613728918135166,0.011532849632203579
1772618955112857900,1.15385791015625,-0.011641308665275574,-0.013939852826297283,0.010500586591660976
1772618955122888000,1.163887939453125,-0.008537661284208298,-0.01012833695858717,0.0069625768810510635
1772618955132918800,1.173918701171875,-0.010824610479176044,-0.0065172892063856125,0.0030119377188384533
1772618955142950000,1.183949951171875,-0.009785444475710392,0.0003994726575911045,0.0045903935097157955
1772618955152980000,1.19397998046875,-0.010405322536826134,0.008332963101565838,0.007567637134343386
1772618955163010800,1.2040107421875,-0.013411499559879303,0.006943326443433762,0.007543934974819422
1772618955173042000,1.2140419921875,-0.013253910467028618,-0.0013626744039356709,0.010442188940942287
1772618955183071700,1.22407177734375,-0.013965241611003876,-0.013885390013456345,0.015453458763659
1772618955193102800,1.234102783203125,-0.016099974513053894,-0.031302861869335175,0.018629886209964752
1772618955203133000,1.2441328125,-0.014191286638379097,-0.04607301950454712,0.025094708427786827
1772618955213163800,1.254163818359375,-0.012677215971052647,-0.05393107980489731,0.02919205278158188
1772618955223195000,1.26419482421875,-0.006808674894273281,-0.054999273270368576,0.0345655158162117
1772618955233225000,1.274224853515625,-0.0005901940166950226,-0.05232226476073265,0.03969423100352287
1772618955243255800,1.284255859375,0.005362770054489374,-0.06198527663946152,0.04971703886985779
1772618955253287000,1.294286865234375,0.009272846393287182,-0.07690616697072983,0.05110958591103554
1772618955263317000,1.30431689453125,0.00995221920311451,-0.10355695337057114,0.05365689843893051
1772618955273347800,1.314347900390625,0.010942576453089714,-0.12519153952598572,0.05822628736495972
1772618955283378000,1.3243779296875,0.0062325093895196915,-0.1308976262807846,0.06450948119163513
1772618955293408800,1.33440869140625,0.0037180082872509956,-0.12544973194599152,0.06687390804290771
1772618955303440000,1.34443994140625,0.004746520891785622,-0.10886436700820923,0.062080755829811096
1772618955313470000,1.354469970703125,0.007461558096110821,-0.08933820575475693,0.04736245423555374
1772618955323500800,1.364500732421875,0.013258194550871849,-0.06617403030395508,0.027033213526010513
1772618955333532000,1.374531982421875,0.017322061583399773,-0.03930479660630226,0.0028060839977115393
1772618955343562000,1.38456201171875,0.02205689623951912,-0.014897726476192474,-0.017398785799741745
1772618955353592800,1.3945927734375,0.023705508559942245,0.0003341594710946083,-0.019542809575796127
1772618955363623000,1.404622802734375,0.02444586716592312,-0.0053149377927184105,-0.013159479945898056
1772618955373654000,1.414654052734375,0.02379971370100975,-0.014664631336927414,-0.00031245406717061996
1772618955383684900,1.424684814453125,0.017041943967342377,-0.02306477352976799,0.01102595403790474
1772618955393715000,1.43471484375,0.007863610982894897,-0.02903611771762371,0.019815199077129364
1772618955403745800,1.444745849609375,0.005281676538288593,-0.035090550780296326,0.026493076235055923
1772618955413776000,1.45477587890625,-0.00036561302840709686,-0.034250982105731964,0.018285134807229042
1772618955423807000,1.464806884765625,0.000014952383935451508,-0.029393911361694336,0.012422984465956688
1772618955433837800,1.474837890625,0.0006181774660944939,-0.022111229598522186,0.008420774713158607
1772618955443868000,1.484867919921875,-0.0000060675665736198425,-0.013692177832126617,0.005352546460926533
1772618955453899000,1.49489892578125,-0.001339123584330082,-0.0053399717435240746,0.006735665258020163
1772618955463929900,1.504929931640625,-0.00041047949343919754,0.006709500215947628,0.021573999896645546
1772618955473960000,1.5149599609375,-0.007918904535472393,0.013726063072681427,0.0330406129360199
1772618955483990800,1.52499072265625,-0.012126432731747627,0.015325825661420822,0.04574761912226677
1772618955494020900,1.535020751953125,-0.0167330801486969,0.011602327227592468,0.053744878619909286
1772618955504052000,1.545052001953125,-0.024355046451091766,0.0071521843783557415,0.048448916524648666
1772618955514082800,1.555082763671875,-0.02582346275448799,-0.0013599446974694729,0.037319108843803406
1772618955524113000,1.56511279296875,-0.02701416239142418,-0.014265090227127075,0.024319687858223915
1772618955534144000,1.57514404296875,-0.021077746525406837,-0.016230570152401924,0.011375094763934612
1772618955544174800,1.5851748046875,-0.017947200685739517,-0.018101174384355545,0.004050869029015303
1772618955554205000,1.595204833984375,-0.011542154476046562,-0.02058536931872368,0.0053727226331830025
1772618955564236000,1.605236083984375,-0.007154063321650028,-0.02325492352247238,0.008028959855437279
1772618955574265900,1.615265869140625,-0.002481228206306696,-0.024940304458141327,0.014824623242020607
1772618955584297000,1.625296875,0.0017750358674675226,-0.032211001962423325,0.01111297495663166
1772618955594327800,1.635327880859375,0.010936807841062546,-0.0334387868642807,0.010454876348376274
1772618955604358000,1.64535791015625,0.016272984445095062,-0.03125898912549019,0.004922691732645035
1772618955614389000,1.655388916015625,0.02463507652282715,-0.0344773530960083,-0.0024190787225961685
1772618955624419000,1.665419189453125,0.033409662544727325,-0.04312703385949135,-0.009598162025213242
1772618955634450000,1.675449951171875,0.035498157143592834,-0.04480482637882233,-0.0112514803186059
1772618955644481000,1.68548095703125,0.035619866102933884,-0.04026653245091438,-0.010490881279110909
1772618955654510800,1.6955107421875,0.03752252459526062,-0.0315321609377861,-0.004249075427651405
1772618955664542000,1.7055419921875,0.03601011261343956,-0.030826689675450325,0.0009571383707225323
1772618955674573000,1.715572998046875,0.03621182218194008,-0.0278386902064085,-0.00044412165880203247
1772618955684603000,1.725602783203125,0.035295695066452026,-0.029236849397420883,-0.0014795587630942464
1772618955694634000,1.735634033203125,0.028077304363250732,-0.017242837697267532,-0.005038778763264418
1772618955704664000,1.7456640625,0.023044995963573456,-0.008102601394057274,-0.005831602029502392
1772618955714695000,1.75569482421875,0.019209207966923714,0.002317482139915228,-0.008839674293994904
1772618955724726000,1.76572607421875,0.01641368865966797,0.012350408360362053,-0.00909240823239088
1772618955734756000,1.775756103515625,0.008678564801812172,0.015804527327418327,-0.010666884481906891
1772618955744787000,1.785786865234375,0.0054316394962370396,0.01292698085308075,-0.010778470896184444
1772618955754818000,1.795818115234375,0.005584757775068283,0.0157404113560915,-0.012339555658400059
1772618955764847900,1.805847900390625,-0.0019804835319519043,0.012691358104348183,-0.011261774227023125
1772618955774879000,1.81587890625,-0.004186877515166998,0.015604125335812569,-0.016071677207946777
1772618955784909000,1.825908935546875,-0.007440994028002024,0.01675993762910366,-0.020009959116578102
1772618955794940000,1.83593994140625,-0.003181569743901491,0.013503622263669968,-0.019446998834609985
1772618955804971000,1.845970947265625,0.0007007867097854614,0.013767542317509651,-0.02345479093492031
1772618955815001000,1.8560009765625,0.006524415221065283,0.013160742819309235,-0.031162461265921593
1772618955825032000,1.866031982421875,0.009897308424115181,0.007812848314642906,-0.03102903626859188
1772618955835063000,1.87606298828125,0.009970346465706825,0.010630670934915543,-0.024513494223356247
1772618955845093000,1.886093017578125,0.008454209193587303,0.01465470902621746,-0.00656698364764452
1772618955855124000,1.8961240234375,0.004619951825588942,0.012153532356023788,0.009182854555547237
1772618955865154000,1.906154052734375,0.006666058674454689,0.009471463039517403,0.025672880932688713
1772618955875185000,1.916184814453125,0.0019692860078066587,0.011913251131772995,0.025182286277413368
1772618955885216000,1.926216064453125,0.006186401471495628,0.01585685834288597,0.02621212974190712
1772618955895246000,1.93624609375,0.006775653455406427,0.0221470445394516,0.0077099883928895
1772618955905277000,1.94627685546875,0.012855649925768375,0.02504243329167366,-0.0031413277611136436
1772618955915306800,1.956306640625,0.01620459370315075,0.0251763928681612,-0.011380893178284168
1772618955925338000,1.966338134765625,0.018706634640693665,0.024285031482577324,-0.01190526969730854
1772618955935369000,1.976368896484375,0.01547202281653881,0.022541459649801254,-0.004869233351200819
1772618955945398800,1.986398681640625,0.016701871529221535,0.014076868072152138,0.0069181835278868675
1772618955955430100,1.99643017578125,0.008794422261416912,0.007716373074799776,0.009634227491915226
1772618955965461000,2.0064609375,0.012586497701704502,0.01151963323354721,0.010309338569641113
1772618955975490800,2.01649072265625,0.011718248948454857,0.011142664588987827,0.003823402803391218
1772618955985522000,2.02652197265625,0.013420275412499905,0.0179172120988369,-0.0019026596564799547
1772618955995551700,2.0365517578125,0.012516079470515251,0.017848903313279152,-0.01023763045668602
1772618956005582800,2.046582763671875,0.009532008320093155,0.022187460213899612,-0.009835226461291313
1772618956015613700,2.05661376953125,0.00842217542231083,0.029360812157392502,-0.00801020860671997
1772618956025643800,2.066643798828125,0.0077313510701060295,0.028891831636428833,-0.002517971908673644
1772618956035675000,2.0766748046875,0.01241140067577362,0.02487885020673275,-0.000026792986318469048
1772618956045705000,2.086705078125,0.019048264250159264,0.01892002671957016,0.0014800236094743013
1772618956055735800,2.09673583984375,0.01973571628332138,0.002553171943873167,0.002960526617243886
1772618956065767000,2.106766845703125,0.023207146674394608,-0.00833116751164198,0.00011680321767926216
1772618956075796700,2.116796630859375,0.019129619002342224,-0.014621423557400703,0.00010650232434272766
1772618956085827800,2.126827880859375,0.013000618666410446,-0.011195266619324684,-0.0018983252812176943
1772618956095858700,2.136858642578125,0.010626179166138172,-0.0066816736944019794,-0.007249648682773113
1772618956105888800,2.146888671875,0.010019777342677116,0.001913145650178194,-0.011540001258254051
1772618956115920000,2.156919921875,0.009878449141979218,0.014138254337012768,-0.015034280717372894
1772618956125950000,2.166949951171875,0.013182100839912891,0.02416399121284485,-0.01558449026197195
1772618956135980800,2.176980712890625,0.018394382670521736,0.03223090246319771,-0.01847589761018753
1772618956146012000,2.187011962890625,0.019453788176178932,0.038583073765039444,-0.014880898408591747
1772618956156042000,2.1970419921875,0.027101200073957443,0.036245089024305344,-0.009530751034617424
1772618956166072800,2.20707275390625,0.02491128444671631,0.03493427857756615,-0.005678755696862936
1772618956176104000,2.21710400390625,0.02678040973842144,0.03851542994379997,0.00008952908683568239
1772618956186133800,2.2271337890625,0.027171628549695015,0.030239924788475037,-0.003982177935540676
1772618956196164900,2.237164794921875,0.03154800832271576,0.013928862288594246,-0.009684544987976551
1772618956206195000,2.24719482421875,0.03293205052614212,0.011981826275587082,-0.01425106730312109
1772618956216225800,2.257225830078125,0.03932569921016693,0.013397427275776863,-0.021556716412305832
1772618956226257000,2.2672568359375,0.038450852036476135,0.013095691800117493,-0.020782534033060074
1772618956236287000,2.277286865234375,0.040258992463350296,0.009376523084938526,-0.016585573554039
1772618956246317800,2.28731787109375,0.03768983855843544,0.00672454759478569,-0.009365210309624672
1772618956256349000,2.297348876953125,0.036818597465753555,0.005692039616405964,-0.0012991680996492505
1772618956266378800,2.307378662109375,0.03517116606235504,0.008710467256605625,0.01298203319311142
1772618956276409900,2.317409912109375,0.036792904138565063,0.012355601415038109,0.019780734553933144
1772618956286440000,2.32743994140625,0.030124884098768234,0.011150253936648369,0.026027711108326912
1772618956296470800,2.337470703125,0.031630564481019974,0.01178688183426857,0.023967158049345016
1772618956306502000,2.347501953125,0.026468560099601746,0.00495827104896307,0.021015843376517296
1772618956316532000,2.357531982421875,0.02406580001115799,0.003205246292054653,0.013630823232233524
1772618956326562800,2.367562744140625,0.019100602716207504,0.004051598720252514,0.01258739735931158
1772618956336592600,2.377592529296875,0.01618046686053276,0.00661415746435523,0.00468104612082243
1772618956346624000,2.3876240234375,0.009474361315369606,0.012447545304894447,0.0038088613655418158
1772618956356654800,2.39765478515625,0.0043512736447155476,0.01767539791762829,0.0017635856056585908
1772618956366684700,2.4076845703125,0.00015493063256144524,0.016999220475554466,-0.0019315503304824233
1772618956376715800,2.4177158203125,-0.00484747439622879,0.02351444587111473,-0.0046002971939742565
1772618956386747000,2.427746826171875,-0.00650023203343153,0.023532288148999214,0.001175832818262279
1772618956396776700,2.437776611328125,-0.007354381959885359,0.023566510528326035,0.005633102729916573
1772618956406807800,2.447807861328125,-0.007993275299668312,0.01877788081765175,0.00947258248925209
1772618956416837600,2.457837646484375,-0.00997104775160551,0.015410114079713821,0.01722974330186844
1772618956426868700,2.46786865234375,-0.010440829209983349,0.0030738194473087788,0.017072884365916252
1772618956436899800,2.47789990234375,-0.015453962609171867,0.0067026433534920216,0.017624691128730774
1772618956446929700,2.4879296875,-0.019173866137862206,0.013805560767650604,0.017748793587088585
1772618956456960800,2.497960693359375,-0.030931152403354645,0.01911570504307747,0.01153673604130745
1772618956466990600,2.507990478515625,-0.032807882875204086,0.019881628453731537,0.003758973442018032
1772618956477021700,2.518021728515625,-0.03537316620349884,0.02276962623000145,-0.005309439264237881
1772618956487052800,2.528052734375,-0.03350495547056198,0.02072112262248993,-0.006210120394825935
1772618956497082600,2.53808251953125,-0.027006275951862335,0.021277256309986115,-0.0066950502805411816
1772618956507113700,2.54811376953125,-0.023875199258327484,0.023981697857379913,0.000736500951461494
1772618956517144600,2.55814453125,-0.020089376717805862,0.02686004340648651,-0.0018777964869514108
1772618956527174700,2.568174560546875,-0.019206538796424866,0.022483402863144875,0.0018447700422257185
1772618956537205800,2.578205810546875,-0.019452489912509918,0.01890624314546585,0.0004755110712721944
1772618956547235800,2.58823583984375,-0.021102849394083023,0.006579536944627762,-0.003561574500054121
1772618956557266700,2.5982666015625,-0.0176557544618845,-0.006180198863148689,-0.008996971882879734
1772618956567297800,2.6082978515625,-0.009044956415891647,-0.004111455753445625,-0.007616123650223017
1772618956577327600,2.61832763671875,-0.001217345241457224,-0.001726727932691574,-0.0033512599766254425
1772618956587358700,2.628358642578125,0.006477858871221542,-0.004334495402872562,0.002213148633018136
1772618956597389800,2.638389892578125,0.00458000460639596,-0.007340338546782732,0.004294034093618393
1772618956607419600,2.648419677734375,0.005993344355374575,-0.006131796166300774,0.003511597402393818
1772618956617450800,2.65845068359375,0.004571390338242054,-0.013682257384061813,0.005909456871449947
1772618956627480800,2.668480712890625,0.0034121163189411163,-0.017235446721315384,0.006141151767224073
1772618956637511700,2.67851171875,0.0004033641889691353,-0.01774284988641739,0.0004689969355240464
1772618956647542800,2.688542724609375,0.0022430759854614735,-0.016646692529320717,-0.00028068292886018753
1772618956657572900,2.69857275390625,0.00048515666276216507,-0.010684607550501823,-0.0013789379736408591
1772618956667603700,2.708603759765625,0.001501685008406639,-0.002426676917821169,-0.0021917347330600023
1772618956677633800,2.7186337890625,0.007349669933319092,-0.001354085747152567,-0.006297876592725515
1772618956687664600,2.72866455078125,0.004474255256354809,-0.004275307059288025,0.0010385994100943208
1772618956697695700,2.73869580078125,0.0018980393651872873,-0.006938468664884567,0.0070106107741594315
1772618956707725800,2.748725830078125,-0.0028189513832330704,-0.008209861814975739,0.011698839254677296
1772618956717756700,2.758756591796875,-0.00767376646399498,-0.010604843497276306,0.013594081625342369
1772618956727787800,2.768787841796875,-0.012103934772312641,-0.003222827101126313,0.011033452115952969
1772618956737817900,2.77881787109375,-0.013569317758083344,0.0028696879744529724,-0.0004616985097527504
1772618956747848700,2.7888486328125,-0.01143772341310978,0.0012448932975530624,-0.00695821363478899
1772618956757878800,2.798878662109375,-0.006268207915127277,0.0008583357557654381,-0.008617820218205452
1772618956767910000,2.808909912109375,-0.003119552507996559,0.0013363724574446678,-0.006491019856184721
1772618956777940700,2.818940673828125,-0.0024005346931517124,-0.0041775028221309185,0.00229471642524004
1772618956787970800,2.828970703125,-0.005202179774641991,-0.005593772046267986,0.010472751222550869
1772618956798001700,2.839001708984375,-0.004176966845989227,-0.0013792533427476883,0.02175220660865307
1772618956808032800,2.84903271484375,-0.0037447363138198853,-0.0009076078422367573,0.023578336462378502
1772618956818062800,2.859062744140625,-0.0006664274260401726,0.003032736014574766,0.020163072273135185
1772618956828093700,2.86909375,0.006955539807677269,-0.00006505288183689117,0.01621946506202221
1772618956838123800,2.879123779296875,0.011227486655116081,-0.0025024423375725746,0.013044937513768673
1772618956848155000,2.88915478515625,0.01149060670286417,-0.004806342534720898,0.003694845363497734
1772618956858185700,2.899185791015625,0.00915757566690445,-0.0077573261223733425,0.002511772094294429
1772618956868215800,2.9092158203125,0.007753556594252586,-0.008434567600488663,-0.002003617584705353
1772618956878247000,2.919246826171875,0.0101653803139925,-0.009022524580359459,-0.0023724534548819065
1772618956888276700,2.92927685546875,0.01548850629478693,-0.016952885314822197,-0.005936295725405216
1772618956898307800,2.939307861328125,0.022649796679615974,-0.020025774836540222,-0.0008165585459209979
1772618956908338700,2.949338623046875,0.028262941166758537,-0.018045714125037193,0.002363255713135004
1772618956918368800,2.95936865234375,0.03394944965839386,-0.019456390291452408,0.007357620634138584
1772618956928400000,2.96939990234375,0.033323608338832855,-0.01718098670244217,0.011651168577373028
1772618956938430700,2.9794306640625,0.03649749234318733,-0.01269901916384697,0.008836408145725727
1772618956948460800,2.989460693359375,0.0382503867149353,-0.008792694658041,0.005502930376678705
1772618956958492000,2.999491943359375,0.03716960549354553,-0.009138773195445538,0.005073830485343933
1772618956968521700,3.009521728515625,0.03785456717014313,-0.021806897595524788,0.005334553774446249
1772618956978552800,3.019552734375,0.04162777215242386,-0.03557217866182327,0.007258187979459763
1772618956988583700,3.029583740234375,0.0457596629858017,-0.04980703815817833,0.006164426915347576
1772618956998613800,3.03961376953125,0.04772903770208359,-0.05821230635046959,0.015843920409679413
1772618957008644900,3.049644775390625,0.046394795179367065,-0.06731978803873062,0.02604915201663971
1772618957018675700,3.05967578125,0.03938784822821617,-0.05745204538106918,0.02859843522310257
1772618957028705800,3.069705810546875,0.0165158212184906,-0.05021250620484352,0.02980111725628376
1772618957038737000,3.07973681640625,-0.002480215858668089,-0.04056733474135399,0.01970798708498478
1772618957048767000,3.08976708984375,-0.020539110526442528,-0.027425698935985565,0.014545980840921402
1772618957058797800,3.0997978515625,-0.03296833485364914,-0.015998009592294693,-0.0010403920896351337
1772618957068829000,3.109828857421875,-0.04067552089691162,-0.0120682492852211,-0.01468855980783701
1772618957078858800,3.119858642578125,-0.04385233670473099,-0.009888052009046078,-0.02641332894563675
1772618957088888800,3.129888916015625,-0.048585839569568634,-0.011999672278761864,-0.034930650144815445
1772618957098919000,3.1399189453125,-0.050342097878456116,-0.01611592248082161,-0.04816858470439911
1772618957108950000,3.149949951171875,-0.05518745630979538,-0.010784007608890533,-0.054949261248111725
1772618957118980900,3.15998095703125,-0.06372188031673431,-0.0033880083356052637,-0.06600811332464218
1772618957129011000,3.170010986328125,-0.06773632764816284,-0.008472248911857605,-0.06931283324956894
1772618957139041800,3.180041748046875,-0.06752185523509979,-0.009903233498334885,-0.07440122216939926
1772618957149073000,3.190072998046875,-0.06452979147434235,-0.0017710044048726559,-0.07468751072883606
1772618957159103000,3.20010302734375,-0.059290237724781036,0.0030480539426207542,-0.07438735663890839
1772618957169133800,3.2101337890625,-0.05568085238337517,0.005584182217717171,-0.06922668218612671
1772618957179164000,3.220163818359375,-0.0502462238073349,0.014743989333510399,-0.06319493800401688
1772618957189195000,3.230195068359375,-0.04684670269489288,0.021216802299022675,-0.05012361332774162
1772618957199225900,3.240225830078125,-0.046290408819913864,0.02786112204194069,-0.0353536382317543
1772618957209256000,3.250255859375,-0.04760920628905296,0.03595047444105148,-0.02631114237010479
1772618957219287000,3.260287109375,-0.04957089200615883,0.03949254751205444,-0.031105581670999527
1772618957229318000,3.27031787109375,-0.046664852648973465,0.04850921034812927,-0.04440327733755112
1772618957239348000,3.280347900390625,-0.04098035767674446,0.055503007024526596,-0.061549969017505646
1772618957249378800,3.29037890625,-0.02844832092523575,0.05391149967908859,-0.07393819093704224
1772618957259409000,3.300408935546875,-0.015071864239871502,0.04886360839009285,-0.08239858597517014
1772618957269440000,3.31043994140625,-0.0024231807328760624,0.0436539351940155,-0.07407141476869583
1772618957279470800,3.320470947265625,0.0081744734197855,0.03352167457342148,-0.051455460488796234
1772618957289501000,3.3305009765625,0.007486844900995493,0.020723052322864532,-0.024604404345154762
1772618957299532000,3.340531982421875,0.0033616218715906143,0.0044199805706739426,-0.0008042762638069689
1772618957309561900,3.350561767578125,-0.00113192992284894,-0.002300772350281477,0.019764648750424385
1772618957319593000,3.360593017578125,-0.009325818158686161,-0.005669672042131424,0.028463736176490784
1772618957329624000,3.3706240234375,-0.012322408147156239,-0.008185293525457382,0.01976771652698517
1772618957339654000,3.38065380859375,-0.012609600089490414,-0.007531688082963228,0.008924558758735657
1772618957349685000,3.39068505859375,-0.007273690775036812,0.005584114231169224,-0.001630080514587462
1772618957359715800,3.4007158203125,-0.00941870640963316,0.02175222709774971,-0.012703862972557545
1772618957369746000,3.410745849609375,-0.0037829242646694183,0.0271131694316864,-0.022749038413167
1772618957379777000,3.420777099609375,-0.0033486196771264076,0.022851184010505676,-0.027115637436509132
1772618957389807000,3.43080712890625,-0.0042391810566186905,0.009943109937012196,-0.027425894513726234
1772618957399838000,3.440837890625,-0.01146426610648632,-0.005089768208563328,-0.024149876087903976
1772618957409869000,3.450869140625,-0.012634992599487305,-0.02685551717877388,-0.01162050198763609
1772618957419899000,3.46089892578125,-0.019168537110090256,-0.03667246177792549,-0.00471305288374424
1772618957429930000,3.470929931640625,-0.023447437211871147,-0.03052615374326706,0.0024090390652418137
1772618957439960800,3.4809609375,-0.023669278249144554,-0.018210366368293762,0.0018364592688158154
1772618957449991000,3.490990966796875,-0.02365569770336151,-0.005561149679124355,-0.00015238940250128508
1772618957460022000,3.50102197265625,-0.01989070326089859,0.0009759813547134399,-0.00696762977167964
1772618957470052000,3.511052001953125,-0.015289826318621635,0.006935070268809795,-0.012356003746390343
1772618957480083000,3.5210830078125,-0.01184546947479248,-0.0025144251994788647,-0.014880307018756866
1772618957490114000,3.531114013671875,-0.013334710150957108,-0.001927464734762907,-0.008819219656288624
1772618957500144000,3.54114404296875,-0.015731465071439743,-0.0022154846228659153,-0.003552766516804695
1772618957510175000,3.551175048828125,-0.020980022847652435,-0.002545982599258423,0.00634939968585968
1772618957520205000,3.561205078125,-0.025222864001989365,-0.006122875958681107,0.008121882565319538
1772618957530236000,3.57123583984375,-0.027451395988464355,-0.004297012463212013,0.005661921110004187
1772618957540267000,3.58126708984375,-0.026650944724678993,-0.00541707081720233,-0.0007595987990498543
1772618957550297000,3.591297119140625,-0.023451687768101692,-0.004492687527090311,-0.007096324115991592
1772618957560328000,3.601327880859375,-0.020047180354595184,0.0026905210688710213,-0.010131585411727428
1772618957570359000,3.611359130859375,-0.020116157829761505,0.004885232076048851,-0.010964888148009777
1772618957580389000,3.62138916015625,-0.024089336395263672,0.005349623039364815,-0.004878817591816187
1772618957590420000,3.631419921875,-0.02527444250881672,0.004639091901481152,-0.0011530551128089428
1772618957600450000,3.641449951171875,-0.02884383499622345,0.008526904508471489,-0.002508520381525159
1772618957610481000,3.65148095703125,-0.02884995937347412,0.011087801307439804,0.0002382638631388545
1772618957620512000,3.661511962890625,-0.022071385756134987,0.013671869412064552,-0.0018406201852485538
1772618957630542000,3.6715419921875,-0.018511272966861725,0.0008250460959970951,-0.005395940504968166
1772618957640573000,3.681572998046875,-0.008012207224965096,-0.0035734970588237047,-0.009948240593075752
1772618957650604000,3.69160400390625,-0.004255817737430334,-0.0059415800496935844,-0.01522316224873066
1772618957660634000,3.701634033203125,-0.0031087733805179596,-0.01348784752190113,-0.02409171313047409
1772618957670665000,3.7116650390625,-0.008033757098019123,-0.022258436307311058,-0.030392220243811607
1772618957680695000,3.721695068359375,-0.008479500189423561,-0.020326178520917892,-0.0297042615711689
1772618957690726100,3.73172607421875,-0.011030541732907295,-0.024790169671177864,-0.019917676225304604
1772618957700757000,3.741757080078125,-0.007751055993139744,-0.03176645189523697,-0.007528853602707386
1772618957710787000,3.751787109375,-0.003058832138776779,-0.02912166714668274,-0.0008323351503349841
1772618957720818000,3.76181787109375,0.0006709247827529907,-0.02149464190006256,0.0019429450621828437
1772618957730848000,3.771847900390625,0.005508822854608297,-0.01822481118142605,0.0010494544403627515
1772618957740879000,3.781879150390625,0.005561536643654108,-0.010287059471011162,0.003204440465196967
1772618957750910000,3.791909912109375,0.008214311674237251,-0.006081129424273968,0.00777043029665947
1772618957760940000,3.80193994140625,0.006012391299009323,-0.0026512453332543373,0.011875704862177372
1772618957770971100,3.81197119140625,0.005565246567130089,0.00005718972533941269,0.014852052554488182
1772618957781002000,3.822001953125,0.0033476571552455425,0.002838925924152136,0.01253487728536129
1772618957791032000,3.832031982421875,-0.004173376131802797,0.003066625911742449,0.009186751209199429
1772618957801063200,3.842063232421875,-0.00902814231812954,0.012051869183778763,0.009408963844180107
1772618957811093000,3.852093017578125,-0.01679098978638649,0.017767544835805893,-0.00030917697586119175
1772618957821124000,3.8621240234375,-0.023306509479880333,0.012694621458649635,-0.00796927697956562
1772618957831155000,3.872155029296875,-0.020918985828757286,0.004325105808675289,-0.01362689584493637
1772618957841185000,3.88218505859375,-0.015237943269312382,-0.0037626498378813267,-0.015509475022554398
1772618957851216100,3.892216064453125,-0.009530789218842983,-0.008252739906311035,-0.008491246961057186
1772618957861247000,3.9022470703125,-0.0042945039458572865,-0.00925628375262022,-0.0025457809679210186
1772618957871277000,3.912277099609375,-0.007703883107751608,-0.004684435203671455,0.0036724335514009
1772618957881308200,3.92230810546875,-0.013403970748186111,-0.0016119456849992275,0.003956986591219902
1772618957891338000,3.932337890625,-0.01302952878177166,-0.0005908897146582603,0.005286969244480133
1772618957901369000,3.942369140625,-0.01565449871122837,0.006546581629663706,-0.0017601927975192666
1772618957911400200,3.952400146484375,-0.01840873993933201,0.004772384185343981,-0.0055767688900232315
1772618957921430000,3.962429931640625,-0.016890501603484154,0.005972135346382856,-0.012501499615609646
1772618957931461000,3.972461181640625,-0.010640330612659454,0.009417466819286346,-0.01779293455183506
1772618957941491000,3.982490966796875,-0.0036510848440229893,0.014801913872361183,-0.02085075154900551
1772618957951522000,3.99252197265625,-0.00040682172402739525,0.014651445671916008,-0.024679845198988914
1772618957961553200,4.00255322265625,0.0013624078128486872,0.024402810260653496,-0.02216172032058239
1772618957971583000,4.0125830078125,0.00048383092507719994,0.021313009783625603,-0.024962300434708595
1772618957981614000,4.022614013671875,-0.0003836294636130333,0.013871736824512482,-0.01956227421760559
1772618957991645200,4.032645263671875,-0.000728242564946413,-0.002424944192171097,-0.01438242569565773
1772618958001675000,4.042675048828125,-0.0020555276423692703,-0.01948988065123558,-0.017028244212269783
1772618958011706000,4.0527060546875,-0.0031138677150011063,-0.031312983483076096,-0.022166013717651367
1772618958021736000,4.06273583984375,-0.007522094063460827,-0.043687961995601654,-0.030895492061972618
1772618958031766800,4.072766845703125,-0.011294461786746979,-0.05228064954280853,-0.03847857937216759
1772618958041798100,4.082798095703125,-0.017086979001760483,-0.058387815952301025,-0.039312269538640976
1772618958051828000,4.092827880859375,-0.025526003912091255,-0.05924402177333832,-0.04422233998775482
1772618958061858800,4.10285888671875,-0.03114607185125351,-0.05647572875022888,-0.05162598937749863
1772618958071889000,4.112888916015625,-0.0382431298494339,-0.0483565479516983,-0.0547565333545208
1772618958081920000,4.122919921875,-0.04198795557022095,-0.04625457897782326,-0.058529339730739594
1772618958091950800,4.132950927734375,-0.04975719749927521,-0.03374704718589783,-0.05940312147140503
1772618958101981000,4.14298095703125,-0.057567473500967026,-0.025347966700792313,-0.0570472776889801
1772618958112012000,4.153011962890625,-0.06001518666744232,-0.0213705375790596,-0.05233827605843544
1772618958122043000,4.16304296875,-0.057789258658885956,-0.016903750598430634,-0.04482356086373329
1772618958132073000,4.173072998046875,-0.05186904966831207,-0.013681059703230858,-0.042144421488046646
1772618958142103800,4.183103759765625,-0.04521334916353226,-0.004028033465147018,-0.04009304940700531
1772618958152134000,4.1931337890625,-0.04275631532073021,0.00012010615319013596,-0.031995974481105804
1772618958162165000,4.2031650390625,-0.04338575899600983,0.0036751586012542248,-0.02037034183740616
1772618958172195800,4.21319580078125,-0.0430414117872715,0.010448109358549118,-0.009346187114715576
1772618958182226000,4.223225830078125,-0.04675787687301636,0.016844160854816437,0.007522235624492168
1772618958192257000,4.233257080078125,-0.04522735998034477,0.023043200373649597,0.008348613977432251
1772618958202287900,4.243287841796875,-0.039537180215120316,0.026168018579483032,0.006935338489711285
1772618958212318000,4.25331787109375,-0.03090054728090763,0.02500448375940323,0.00000898947473615408
1772618958222349000,4.26334912109375,-0.027129951864480972,0.025379924103617668,-0.007557211443781853
1772618958232379000,4.27337890625,-0.0241786390542984,0.020542023703455925,-0.013571961782872677
1772618958242410000,4.283409912109375,-0.027258817106485367,0.017535382881760597,-0.014227332547307014
1772618958252440800,4.29344091796875,-0.028523284941911697,0.011680422350764275,-0.01864258572459221
1772618958262471000,4.303470947265625,-0.029303112998604774,0.007456250488758087,-0.020546022802591324
1772618958272502000,4.313501953125,-0.024448970332741737,0.007512976415455341,-0.018806446343660355
1772618958282532000,4.323531982421875,-0.022154299542307854,0.003567168954759836,-0.016237454488873482
1772618958292563000,4.33356298828125,-0.01647803746163845,0.004178630653768778,-0.012623012065887451
1772618958302594000,4.343593994140625,-0.012063352391123772,0.005210272967815399,-0.012834233231842518
1772618958312623900,4.353623779296875,-0.008238785900175571,-0.00017863325774669647,-0.011068291030824184
1772618958322655000,4.363655029296875,-0.0058691962622106075,0.0010273130610585213,-0.014128102920949459
1772618958332685800,4.373685791015625,-0.007452179212123156,0.0018952367827296257,-0.018985174596309662
1772618958342716000,4.3837158203125,-0.009012063033878803,0.005952429957687855,-0.018457667902112007
1772618958352747000,4.3937470703125,-0.012142608873546124,0.008521048352122307,-0.011906824074685574
1772618958362777000,4.403777099609375,-0.01571667566895485,0.01303996704518795,-0.009469329379498959
1772618958372808000,4.413807861328125,-0.013771768659353256,0.01273396983742714,-0.00424181018024683
1772618958382839000,4.423839111328125,-0.011959684081375599,0.010725545696914196,-0.009383777156472206
1772618958392869000,4.433869140625,-0.007098883390426636,0.010300506837666035,-0.013143627904355526
1772618958402900000,4.44389990234375,-0.003147655166685581,0.006156693212687969,-0.018576040863990784
1772618958412931000,4.45393115234375,0.0017451040912419558,0.002058887854218483,-0.022075967863202095
1772618958422961000,4.4639609375,0.0019423526246100664,-0.00353261805139482,-0.02153198793530464
1772618958432992000,4.473991943359375,-0.001259565819054842,-0.019441276788711548,-0.030569691210985184
1772618958443022000,4.48402197265625,-0.0014170636422932148,-0.026220818981528282,-0.026191551238298416
1772618958453053000,4.494052978515625,-0.00025272974744439125,-0.03054153174161911,-0.019432181492447853
1772618958463084000,4.504083984375,-0.0060279713943600655,-0.028924858197569847,-0.015699177980422974
1772618958473114000,4.514114013671875,0.0033183926716446877,-0.014768027700483799,-0.008826624602079391
1772618958483145000,4.52414501953125,-0.010286026634275913,-0.02616029977798462,-0.00018321722745895386
1772618958493175000,4.534175048828125,-0.013050122186541557,-0.02840534597635269,0.008262998424470425
1772618958503206000,4.544205810546875,-0.008079814724624157,-0.021580127999186516,0.012885735370218754
1772618958513237000,4.554237060546875,-0.0016501452773809433,-0.01799764297902584,0.012906241230666637
1772618958523267000,4.56426708984375,0.0006579328328371048,-0.009677797555923462,0.01305399276316166
1772618958533298000,4.5742978515625,-0.003923237323760986,-0.0027245497331023216,-0.00008471263572573662
1772618958543329000,4.5843291015625,-0.0005102972500026226,0.014750507660210133,-0.011808640323579311
1772618958553359000,4.594359130859375,-0.0023923534899950027,0.01796814054250717,-0.027096249163150787
1772618958563390000,4.604389892578125,-0.002857231069356203,0.012326971627771854,-0.03406405821442604
1772618958573420000,4.614419921875,-0.0033440571278333664,0.016441822052001953,-0.03490161895751953
1772618958583451100,4.624451171875,-0.005738274194300175,0.019281484186649323,-0.03713231533765793
1772618958593482000,4.63448193359375,-0.0042876508086919785,0.017368536442518234,-0.02805147133767605
1772618958603512000,4.644511962890625,-0.0036614499986171722,0.01798146218061447,-0.018343398347496986
1772618958613543000,4.65454296875,-0.002598848659545183,0.01652045175433159,-0.011873515322804451
1772618958623574000,4.664573974609375,-0.0005899211391806602,0.011258311569690704,-0.005587505642324686
1772618958633604000,4.67460400390625,-0.0012690271250903606,0.007776228711009026,-0.0005069931503385305
1772618958643635000,4.684635009765625,-0.005662338808178902,0.012201004661619663,0.001572499400936067
1772618958653665000,4.6946650390625,-0.004802403971552849,0.017360348254442215,0.005324893165379763
1772618958663696100,4.704696044921875,-0.003798161633312702,0.02528052031993866,-0.002107755048200488
1772618958673727000,4.71472705078125,-0.0015283492393791676,0.029096029698848724,-0.002003625500947237
1772618958683757000,4.724757080078125,0.001230740686878562,0.023794811218976974,-0.008285736665129662
1772618958693788200,4.7347880859375,0.0017407359555363655,0.018455972895026207,-0.008514235727488995
1772618958703818000,4.74481787109375,0.0007389052771031857,0.009130246937274933,-0.013664180412888527
1772618958713849000,4.75484912109375,-0.004731759894639254,0.0035874098539352417,-0.012952051125466824
1772618958723880000,4.7648798828125,-0.010281103663146496,0.0012106029316782951,-0.016921313479542732
1772618958733910000,4.774909912109375,-0.011798040010035038,0.007714042440056801,-0.020191676914691925
1772618958743941000,4.784941162109375,-0.014254599809646606,0.021010806784033775,-0.02142825350165367
1772618958753972000,4.794971923828125,-0.017696736380457878,0.029275396838784218,-0.023269295692443848
1772618958764002000,4.805001953125,-0.01476795319467783,0.04235544428229332,-0.027009878307580948
1772618958774033200,4.815033203125,-0.008797145448625088,0.049482595175504684,-0.03424834832549095
1772618958784063000,4.82506298828125,-0.009417129680514336,0.04427957907319069,-0.043654900044202805
1772618958794094000,4.835093994140625,-0.007300449535250664,0.03386368975043297,-0.04926884174346924
1772618958804125200,4.845125244140625,-0.012907679192721844,0.01834018900990486,-0.0528491772711277
1772618958814155000,4.855155029296875,-0.018114157021045685,0.004531168378889561,-0.053108569234609604
1772618958824186000,4.86518603515625,-0.025637585669755936,-0.0032659703865647316,-0.055195633322000504
1772618958834217000,4.875217041015625,-0.0324222557246685,0.002241713460534811,-0.056480344384908676
1772618958844247000,4.8852470703125,-0.04095397889614105,0.009097423404455185,-0.05634003505110741
1772618958854278100,4.895278076171875,-0.04124346747994423,0.02640584111213684,-0.055848684161901474
1772618958864308000,4.905307861328125,-0.03830061852931976,0.05916045978665352,-0.059948813170194626
1772618958874339000,4.915339111328125,-0.030495690181851387,0.08301012963056564,-0.05941671133041382
1772618958884370200,4.9253701171875,-0.02160872332751751,0.09745191782712936,-0.05655248463153839
1772618958894400000,4.93539990234375,-0.014856277033686638,0.10437959432601929,-0.042321350425481796
1772618958904431000,4.94543115234375,-0.012479035183787346,0.09657460451126099,-0.019368000328540802
1772618958914461000,4.9554609375,-0.0063226064667105675,0.07344558835029602,0.003451295429840684
1772618958924491800,4.96549169921875,-0.004598717205226421,0.042028870433568954,0.028546039015054703
1772618958934523100,4.975523193359375,-0.005150790326297283,0.010669348761439323,0.0476723313331604
1772618958944553000,4.985552978515625,-0.005921372212469578,-0.004689096473157406,0.05057263746857643
1772618958954583800,4.995583740234375,-0.010169113986194134,-0.0032792191486805677,0.045893196016550064
1772618958964615200,5.005615234375,-0.010851086117327213,0.016368377953767776,0.03546246886253357
1772618958974645000,5.01564501953125,-0.011898773722350597,0.03752319887280464,0.011975784786045551
1772618958984675800,5.02567578125,-0.008479749783873558,0.04827632009983063,-0.00686793215572834
1772618958994706000,5.035705810546875,-0.0007714959792792797,0.046389736235141754,-0.022013328969478607
1772618959004737000,5.045737060546875,0.00924600102007389,0.040292225778102875,-0.029098626226186752
1772618959014767900,5.055767822265625,0.013942219316959381,0.03334110975265503,-0.02805892750620842
1772618959024798000,5.0657978515625,0.01984008029103279,0.01630413345992565,-0.012701769359409809
1772618959034828800,5.075828857421875,0.020664064213633537,0.0031870012171566486,-0.0006799940019845963
1772618959044860000,5.08585986328125,0.026097580790519714,-0.012786637991666794,0.013450334779918194
1772618959054890000,5.095889892578125,0.029662489891052246,-0.024512534961104393,0.019194507971405983
1772618959064920800,5.1059208984375,0.0254984050989151,-0.02716923877596855,0.02028031088411808
1772618959074951000,5.115950927734375,0.01544763520359993,-0.021363813430070877,0.017474938184022903
1772618959084982800,5.125982666015625,0.006117146462202072,-0.014931680634617805,0.012354646809399128
1772618959095014000,5.136013916015625,-0.0026893941685557365,-0.000798551831394434,-0.0014589037746191025
1772618959105044000,5.1460439453125,-0.005850798450410366,0.0077718342654407024,-0.011244390159845352
1772618959115074800,5.15607470703125,-0.009706523269414902,0.023319633677601814,-0.024669917300343513
1772618959125106000,5.16610595703125,-0.011475024744868279,0.031171632930636406,-0.035934995859861374
1772618959135136000,5.176135986328125,-0.021632587537169456,0.028781181201338768,-0.033053718507289886
1772618959145166800,5.186166748046875,-0.0287726242095232,0.020963534712791443,-0.014292910695075989
1772618959155197000,5.196197021484375,-0.04019332677125931,0.02101413533091545,0.002077540149912238
1772618959165227800,5.206227783203125,-0.037780895829200745,0.020992033183574677,0.01694236882030964
1772618959175259000,5.2162587890625,-0.037181951105594635,0.032170649617910385,0.014941003173589706
1772618959185289000,5.2262890625,-0.032297197729349136,0.03618396818637848,0.00548567296937108
1772618959195319800,5.23631982421875,-0.026222260668873787,0.04369887709617615,-0.0054953391663730145
1772618959205351000,5.246350830078125,-0.029799064621329308,0.05549953877925873,-0.014111090451478958
1772618959215381000,5.256381103515625,-0.035316068679094315,0.06890057027339935,-0.019388142973184586
1772618959225411800,5.266411865234375,-0.044538840651512146,0.07364878058433533,-0.02058679237961769
1772618959235442000,5.27644189453125,-0.04819429665803909,0.070311039686203,-0.01398774515837431
1772618959245473000,5.28647314453125,-0.04967643693089485,0.05728692561388016,-0.00764659745618701
1772618959255504000,5.29650390625,-0.047415945678949356,0.041919950395822525,-0.008276967331767082
1772618959265534000,5.306533935546875,-0.037738144397735596,0.033370938152074814,-0.010432401672005653
1772618959275564800,5.316564697265625,-0.03570854663848877,0.03503674641251564,-0.010205501690506935
1772618959285595000,5.326594970703125,-0.03384445235133171,0.031499069184064865,-0.005552779883146286
1772618959295626000,5.3366259765625,-0.02920442819595337,0.029814882203936577,-0.008071864023804665
1772618959305656800,5.34665673828125,-0.030259525403380394,0.026717960834503174,-0.005990313366055489
1772618959315687000,5.35668701171875,-0.02921583317220211,0.022619090974330902,-0.003772432915866375
1772618959325718000,5.366718017578125,-0.032068412750959396,0.014700314961373806,-0.0007173186750151217
1772618959335748900,5.376748779296875,-0.03197893127799034,0.017501693218946457,-0.002522409427911043
1772618959345779000,5.386779052734375,-0.03403410315513611,0.023487146943807602,-0.007537666708230972
1772618959355810000,5.39681005859375,-0.03482559323310852,0.024780645966529846,-0.010710556991398335
1772618959365840000,5.40683984375,-0.034175049513578415,0.026843927800655365,-0.012759124860167503
1772618959375871000,5.41687109375,-0.028474021703004837,0.019186805933713913,-0.015698721632361412
1772618959385901800,5.42690185546875,-0.020213928073644638,0.014678935520350933,-0.016716014593839645
1772618959395932000,5.436931884765625,-0.015119301155209541,0.006949643604457378,-0.014453125186264515
1772618959405963000,5.446962890625,-0.00898283813148737,-0.002463559154421091,-0.007868470624089241
1772618959415993900,5.456993896484375,-0.011108307167887688,-0.0063019730150699615,0.0022960160858929157
1772618959426024000,5.46702392578125,-0.012975784949958324,-0.011209513992071152,-0.004796046297997236
1772618959436055000,5.477054931640625,-0.017748169600963593,-0.012165321968495846,-0.00901396106928587
1772618959446084900,5.4870849609375,-0.025353483855724335,-0.00009054876863956451,-0.018822254613041878
1772618959456116000,5.497115966796875,-0.02942093089222908,0.010486728511750698,-0.03710751608014107
1772618959466147000,5.50714697265625,-0.02720237895846367,0.02087838388979435,-0.05054090917110443
1772618959476177000,5.517177001953125,-0.02605082467198372,0.026879549026489258,-0.06343167275190353
1772618959486208000,5.5272080078125,-0.02619534730911255,0.038559041917324066,-0.06838850677013397
1772618959496238000,5.537238037109375,-0.032483600080013275,0.058049388229846954,-0.07770611345767975
1772618959506269000,5.54726904296875,-0.033732183277606964,0.07959096133708954,-0.08069641143083572
1772618959516300000,5.557300048828125,-0.03551650047302246,0.09655903279781342,-0.08323946595191956
1772618959526330000,5.567330078125,-0.035619065165519714,0.10837540775537491,-0.08551304042339325
1772618959536361000,5.57736083984375,-0.03017743118107319,0.11290917545557022,-0.08555591851472855
1772618959546392000,5.58739208984375,-0.028773121535778046,0.10309868305921555,-0.08435451984405518
1772618959556422000,5.597421875,-0.02716963365674019,0.0806647464632988,-0.07430268079042435
1772618959566453000,5.607452880859375,-0.025479808449745178,0.051527440547943115,-0.05171346664428711
1772618959576483000,5.617483154296875,-0.025081930682063103,0.027620773762464523,-0.026044055819511414
1772618959586514000,5.627513916015625,-0.02314607985317707,0.0198371522128582,-0.005377126857638359
1772618959596545000,5.637544921875,-0.017642125487327576,0.018022742122411728,0.008200201205909252
1772618959606575000,5.6475751953125,-0.01140065211802721,0.014904112555086613,0.013360182754695415
1772618959616606000,5.65760595703125,-0.006917220540344715,0.015407451428472996,0.014907213859260082
1772618959626637000,5.667636962890625,-0.002346645575016737,0.01493913121521473,0.010692301206290722
1772618959636667100,5.677667236328125,-0.0025314688682556152,0.012228833511471748,0.00627092132344842
1772618959646698000,5.687697998046875,0.00375559413805604,0.0022089569829404354,0.01251243520528078
1772618959656728000,5.69772802734375,0.0070392717607319355,-0.012394219636917114,0.01849815621972084
1772618959666759000,5.707759033203125,0.01079983077943325,-0.02230324223637581,0.028924059122800827
1772618959676790000,5.7177900390625,0.012355117127299309,-0.027775239199399948,0.032453812658786774
1772618959686820000,5.727820068359375,0.007873744703829288,-0.0311871487647295,0.02463710494339466
1772618959696851000,5.737850830078125,0.0009239600040018559,-0.025213945657014847,0.01307179406285286
1772618959706882000,5.747882080078125,-0.0024384213611483574,-0.02420860156416893,-0.001180772902444005
1772618959716912000,5.757912109375,-0.004747647792100906,-0.019049525260925293,-0.01625319942831993
1772618959726943000,5.76794287109375,0.0025129213463515043,-0.01278710551559925,-0.02369006909430027
1772618959736972800,5.777972900390625,0.003968338947743177,0.0001912768930196762,-0.026252564042806625
1772618959747004000,5.78800390625,0.009011324495077133,0.01487195584923029,-0.026493597775697708
1772618959757035000,5.798034912109375,0.01059004571288824,0.020581506192684174,-0.02120855450630188
1772618959767064800,5.80806494140625,0.007734889164566994,0.017398295924067497,-0.007469795644283295
1772618959777095700,5.818095703125,0.0043739802204072475,0.010898320004343987,0.011165673844516277
1772618959787127000,5.828126953125,0.001921138959005475,0.00817776657640934,0.026662277057766914
1772618959797156900,5.838156982421875,0.002218081383034587,0.010536793619394302,0.035640060901641846
1772618959807187700,5.848187744140625,0.005808074027299881,0.015468236990272999,0.03331460803747177
1772618959817217800,5.8582177734375,0.006440308410674334,0.012388558126986027,0.023779161274433136
1772618959827249000,5.868248779296875,0.006310043390840292,0.015843145549297333,0.011578922159969807
1772618959837279700,5.87827978515625,0.0072557320818305016,0.0128119345754385,0.005386007018387318
1772618959847309800,5.888309814453125,0.004468413535505533,0.0058261253871023655,0.007690690457820892
1772618959857341000,5.8983408203125,0.008606965653598309,-0.001966283656656742,0.012164801359176636
1772618959867371800,5.908371826171875,0.0112894456833601,-0.007849203422665596,0.01653384044766426
1772618959877401900,5.91840185546875,0.015133718028664589,-0.00889262929558754,0.01881803199648857
1772618959887432700,5.9284326171875,0.01803126186132431,-0.009477928280830383,0.019666824489831924
1772618959897462800,5.938462890625,0.017472796142101288,-0.01047767885029316,0.02367940917611122
1772618959907494000,5.948493896484375,0.014176136814057827,-0.015082214027643204,0.0285804346203804
1772618959917524700,5.958524658203125,0.0051970225758850574,-0.008085557259619236,0.025952426716685295
1772618959927554800,5.968554931640625,0.0042917137034237385,-0.0074768951162695885,0.019814595580101013
1772618959937586000,5.9785859375,-0.0004029069095849991,-0.003533019917085767,0.009390450082719326
1772618959947616800,5.98861669921875,0.0020714111160486937,-0.002989799715578556,-0.007026911713182926
1772618959957646800,5.998646728515625,0.0030692974105477333,-0.006699316669255495,-0.01948331482708454
1772618959967678000,6.008677978515625,0.00411711260676384,-0.009766479954123497,-0.02600206434726715
1772618959977707800,6.018707763671875,0.003482215106487274,-0.00872944574803114,-0.02315327897667885
1772618959987739000,6.02873876953125,0.004184753634035587,-0.0035011309664696455,-0.011302473954856396
1772618959997769700,6.038769775390625,-0.0015197372995316982,0.004773310385644436,-0.0034506763331592083
1772618960007799800,6.0487998046875,-0.00286603020504117,-0.0016700723208487034,-0.0006645476678386331
1772618960017831000,6.058830810546875,-0.0045827035792171955,-0.005946576129645109,0.005331026390194893
1772618960027861800,6.06886181640625,-0.004292977042496204,-0.0076491995714604855,0.0077384840697050095
1772618960037891800,6.078891845703125,-0.0085985092446208,-0.0026030419394373894,0.01246106717735529
1772618960047923000,6.0889228515625,-0.010450239293277264,-0.0029463903047144413,0.010749155655503273
1772618960057952800,6.098952880859375,-0.008884566836059093,0.000013181008398532867,0.013253326527774334
1772618960067984000,6.10898388671875,-0.005550864152610302,0.006152230314910412,0.008276118896901608
1772618960078015000,6.119014892578125,-0.007940252311527729,0.012562991119921207,0.005743186920881271
1772618960088044500,6.12904443359375,-0.009392131119966507,0.014910970814526081,0.009471136145293713
1772618960098075600,6.13907568359375,-0.006254660896956921,0.015591674484312534,0.017923742532730103
1772618960108106500,6.1491064453125,-0.003471124917268753,0.012730640359222889,0.026723893359303474
1772618960118136600,6.159136474609375,-0.004015209153294563,0.02004048600792885,0.03676401078701019
1772618960128167700,6.169167724609375,0.0019192746840417385,0.02526913397014141,0.03867100179195404
1772618960138197500,6.179197509765625,0.007952399551868439,0.022453108802437782,0.03529438003897667
1772618960148228600,6.189228515625,0.017573896795511246,0.01523068081587553,0.042827706784009933
1772618960158259700,6.199259765625,0.02163095399737358,0.013525457121431828,0.04135364666581154
1772618960168289500,6.20928955078125,0.022201504558324814,0.006250698585063219,0.03770867735147476
1772618960178320600,6.219320556640625,0.020144212990999222,0.002086580265313387,0.04145388305187225
1772618960188350500,6.2293505859375,0.01445537619292736,0.012076502665877342,0.0476674921810627
1772618960198381300,6.23938134765625,0.009828133508563042,0.011570235714316368,0.0553286075592041
1772618960208412700,6.24941259765625,0.010719599202275276,0.008685965090990067,0.06099111959338188
1772618960218442500,6.2594423828125,0.00990387238562107,0.005093094427138567,0.04557248204946518
1772618960228473300,6.269473388671875,0.019488675519824028,0.0018900404684245586,0.02852889522910118
1772618960238504700,6.279504638671875,0.02762756124138832,0.0051454887725412846,0.01594652235507965
1772618960248534500,6.289534423828125,0.02738618105649948,0.01501949317753315,0.011260055005550385
1772618960258565400,6.2995654296875,0.020065685734152794,0.015193130820989609,0.011367379687726498
1772618960268596700,6.3095966796875,0.012874362990260124,0.014797119423747063,0.019959261640906334
1772618960278626600,6.31962646484375,0.011292178183794022,0.0177372507750988,0.02246183529496193
1772618960288657400,6.329657470703125,0.01598915085196495,0.014504902064800262,0.021045275032520294
1772618960298687500,6.3396875,0.020811602473258972,0.0035060481168329716,0.009211518801748753
1772618960308718300,6.34971826171875,0.029373034834861755,0.0001611793413758278,0.0009377817623317242
1772618960318749400,6.35974951171875,0.03684692829847336,-0.002551516517996788,-0.008586481213569641
1772618960328779500,6.369779541015625,0.0403795950114727,-0.008768725208938122,-0.015671340748667717
1772618960338810400,6.379810302734375,0.03952259197831154,-0.012531505897641182,-0.012669425457715988
1772618960348840400,6.38984033203125,0.03622913733124733,-0.0029071802273392677,-0.0037818062119185925
1772618960358871600,6.39987158203125,0.027915548533201218,0.0030535063706338406,0.005014615133404732
1772618960368902400,6.40990234375,0.02830427512526512,-0.012316590175032616,0.015286585316061974
1772618960378932500,6.419932373046875,0.033987995237112045,-0.02852618508040905,0.022822264581918716
1772618960388963600,6.429963623046875,0.039595309644937515,-0.0506972074508667,0.03029487282037735
1772618960398994400,6.439994384765625,0.04274503141641617,-0.06307904422283173,0.03210608661174774
1772618960409024500,6.4500244140625,0.04471302032470703,-0.07186766713857651,0.03558618947863579
1772618960419055400,6.460055419921875,0.0413486510515213,-0.06487420201301575,0.038091160356998444
1772618960429085400,6.47008544921875,0.03771016001701355,-0.04482952505350113,0.04237453266978264
1772618960439116500,6.480116455078125,0.032128702849149704,-0.02196788601577282,0.030117599293589592
1772618960449147400,6.4901474609375,0.02594571001827717,-0.010570758022367954,0.009792691096663475
1772618960459177500,6.500177490234375,0.01921030879020691,-0.007856730371713638,-0.009392720647156239
1772618960469208600,6.51020849609375,0.013415075838565826,0.002002161927521229,-0.023652559146285057
1772618960479239400,6.520239501953125,0.011149791069328785,0.005019523203372955,-0.03547805920243263
1772618960489269500,6.53026953125,0.013595767319202423,0.01196770928800106,-0.03494049608707428
1772618960499300400,6.54030029296875,0.010974950157105923,0.016695085912942886,-0.03562146797776222
1772618960509330400,6.550330322265625,0.0070641664788126945,0.011819237843155861,-0.023052878677845
1772618960519361500,6.560361572265625,0.0036976649425923824,0.01579427346587181,-0.005864038597792387
1772618960529392400,6.570392333984375,0.0000970344990491867,0.0207828376442194,0.010991613380610943
1772618960539422500,6.58042236328125,0.003962346818298101,0.010935267433524132,0.021336397156119347
1772618960549453600,6.59045361328125,0.007338137365877628,0.007474423851817846,0.01759568229317665
1772618960559484400,6.600484375,0.00900501012802124,0.009539172053337097,0.008345725014805794
1772618960569514500,6.610514404296875,0.0132713932543993,0.005952960345894098,-0.00003790587652474642
1772618960579545600,6.620545654296875,0.00972566194832325,0.005724727641791105,-0.006846543401479721
1772618960589576400,6.630576416015625,0.006633664947003126,0.0089432867243886,-0.009672218933701515
1772618960599606500,6.6406064453125,0.009960751980543137,0.014699443243443966,-0.0023328133393079042
1772618960609637400,6.650637451171875,0.009679022245109081,0.012466185726225376,-0.002090170281007886
1772618960619667500,6.66066748046875,0.011729922145605087,-0.00008768821135163307,-0.0048004696145653725
1772618960629698600,6.670698486328125,0.014883010648190975,-0.0005765766836702824,-0.013047318905591965
1772618960639729400,6.6807294921875,0.018951520323753357,-0.00751384487375617,-0.020278599113225937
1772618960649759500,6.690759521484375,0.020975790917873383,-0.009861155413091183,-0.025638211518526077
1772618960659790600,6.70079052734375,0.025924477726221085,-0.014786139130592346,-0.033194929361343384
1772618960669820700,6.710820556640625,0.029924742877483368,-0.02230650745332241,-0.03164609894156456
1772618960679851500,6.7208515625,0.032015588134527206,-0.031953275203704834,-0.03479635342955589
1772618960689882600,6.730882568359375,0.036491163074970245,-0.045984141528606415,-0.043193697929382324
1772618960699912400,6.740912353515625,0.03409538045525551,-0.06049250811338425,-0.0545203872025013
1772618960709943600,6.750943603515625,0.037490114569664,-0.06755521148443222,-0.06739810109138489
1772618960719974400,6.760974365234375,0.03328951075673103,-0.06393491476774216,-0.07572820037603378
1772618960730004500,6.77100439453125,0.02714722976088524,-0.06240858510136604,-0.08326757699251175
1772618960740035600,6.78103564453125,0.01129076723009348,-0.06089378148317337,-0.08049522340297699
1772618960750066400,6.79106640625,-0.002630042377859354,-0.06260287016630173,-0.07543248683214188
1772618960760096500,6.801096435546875,-0.011300761252641678,-0.057402778416872025,-0.06050387769937515
1772618960770127600,6.811127685546875,-0.01810290291905403,-0.054666176438331604,-0.04696294292807579
1772618960780157400,6.821157470703125,-0.016188889741897583,-0.06510017812252045,-0.03799474611878395
1772618960790188500,6.8311884765625,-0.008940400555729866,-0.07518044114112854,-0.03563341498374939
1772618960800219600,6.8412197265625,-0.0010489211417734623,-0.07752136141061783,-0.03240406885743141
1772618960810249500,6.85124951171875,0.002492347965016961,-0.08146829903125763,-0.03697850927710533
1772618960820280600,6.861280517578125,0.00910204742103815,-0.08357113599777222,-0.04366837069392204
1772618960830311400,6.8713115234375,0.014145917259156704,-0.07835353165864944,-0.05401119962334633
1772618960840341500,6.881341552734375,0.009355423040688038,-0.06360360980033875,-0.04846037179231644
1772618960850372600,6.89137255859375,0.010371847078204155,-0.04758143424987793,-0.045451629906892776
1772618960860402700,6.901402587890625,0.005752061493694782,-0.027758996933698654,-0.0398896187543869
1772618960870433500,6.91143359375,-0.0027663935907185078,-0.006310296710580587,-0.03503100946545601
1772618960880464600,6.921464599609375,-0.009232282638549805,0.005692570004612207,-0.02739199995994568
1772618960890494500,6.931494384765625,-0.016583409160375595,0.009624991565942764,-0.017887437716126442
1772618960900525600,6.941525634765625,-0.02021782472729683,0.0085714440792799,-0.013548350892961025
1772618960910556700,6.951556640625,-0.01511144358664751,0.007929159328341484,-0.011771196499466896
1772618960920586500,6.96158642578125,-0.01371914241462946,0.01030842773616314,-0.02153514325618744
1772618960930617600,6.97161767578125,-0.00794960092753172,0.014468418434262276,-0.024069875478744507
1772618960940647700,6.981647705078125,-0.007118960842490196,0.01960698887705803,-0.028383931145071983
1772618960950678500,6.991678466796875,-0.014323516748845577,0.022121742367744446,-0.032346341758966446
1772618960960709600,7.001709716796875,-0.019037842750549316,0.03117436170578003,-0.037044160068035126
1772618960970739700,7.01173974609375,-0.02774524688720703,0.04305246099829674,-0.041079048067331314
1772618960980770600,7.0217705078125,-0.02995886653661728,0.040929120033979416,-0.04170861840248108
1772618960990800600,7.031800537109375,-0.0296904556453228,0.028613261878490448,-0.03780658543109894
1772618961000831500,7.04183154296875,-0.027082420885562897,0.022774549201130867,-0.03457137569785118
1772618961010862600,7.051862548828125,-0.027601899579167366,0.013691766187548637,-0.03383198380470276
1772618961020892700,7.061892578125,-0.022369321435689926,0.014962892979383469,-0.02301475591957569
1772618961030923500,7.071923583984375,-0.018792998045682907,0.024067383259534836,-0.011450018733739853
1772618961040954600,7.08195458984375,-0.01251406129449606,0.0402093380689621,-0.010820181109011173
1772618961050984700,7.091984619140625,-0.008045580238103867,0.0365559421479702,-0.008514177054166794
1772618961061015600,7.102015625,-0.01919304020702839,0.07431583106517792,-0.02105766534805298
1772618961071046700,7.112046630859375,-0.028352884575724602,0.09997106343507767,-0.024417147040367126
1772618961081076700,7.12207666015625,-0.05145873501896858,0.12013306468725204,-0.030918188393115997
1772618961091107000,7.132107177734375,-0.05972358584403992,0.14799319207668304,-0.041804924607276917
1772618961101137200,7.14213720703125,-0.056951504200696945,0.1698707938194275,-0.05752183496952057
1772618961111168300,7.152168212890625,-0.04527563974261284,0.17372392117977142,-0.07884440571069717
1772618961121199000,7.16219921875,-0.028505448251962662,0.16247472167015076,-0.09349711239337921
1772618961131229200,7.172229248046875,-0.012622755020856857,0.14929872751235962,-0.09971305727958679
1772618961141260000,7.182260009765625,-0.005189073272049427,0.1409238874912262,-0.0921185240149498
1772618961151291100,7.192291015625,-0.0009530498646199703,0.13223107159137726,-0.06952506303787231
1772618961161321200,7.2023212890625,-0.0038511017337441444,0.11779806017875671,-0.03941537067294121
1772618961171352000,7.21235205078125,-0.009637484326958656,0.10244840383529663,-0.02381337434053421
1772618961181382100,7.222382080078125,-0.003910623490810394,0.08788517117500305,-0.01761513389647007
1772618961191413200,7.232413330078125,0.002891560783609748,0.0802936926484108,-0.015992799773812294
1772618961201444000,7.242444091796875,0.014292553067207336,0.06811638921499252,-0.015382934361696243
1772618961211474200,7.25247412109375,0.020301606506109238,0.06240132078528404,-0.0174949262291193
1772618961221505300,7.26250537109375,0.026705710217356682,0.04801146686077118,-0.02181084454059601
1772618961231536000,7.2725361328125,0.023302819579839706,0.03965120017528534,-0.021131103858351707
1772618961241566200,7.282566162109375,0.018852146342396736,0.022609367966651917,-0.021488498896360397
1772618961251597000,7.29259716796875,0.018331699073314667,0.017136704176664352,-0.015438662841916084
1772618961261627100,7.302627197265625,0.02515418455004692,0.013072719797492027,-0.006602027453482151
1772618961271658200,7.312658203125,0.025534186512231827,-0.029468679800629616,0.025879712775349617
1772618961281689000,7.322689208984375,0.03458600491285324,-0.05055372416973114,0.0382319837808609
1772618961291719200,7.33271923828125,0.034005533903837204,-0.016460271552205086,0.03965368494391441
1772618961301750300,7.342750244140625,0.02464212477207184,-0.02069230005145073,0.03423628211021423
1772618961311781000,7.352781005859375,0.025806894525885582,-0.017311083152890205,0.015821218490600586
1772618961321811200,7.362811279296875,0.0287917647510767,0.010448109358549118,-0.016367077827453613
1772618961331842300,7.37284228515625,0.026728546246886253,0.02384420484304428,-0.04257264360785484
1772618961341872000,7.3828720703125,0.025594040751457214,0.03780662640929222,-0.06822793930768967
1772618961351903200,7.3929033203125,0.02504735440015793,0.058646202087402344,-0.08417920768260956
1772618961361934000,7.40293408203125,0.005357006099075079,0.040353745222091675,-0.07172759622335434
