time,seconds_elapsed,z,y,x
1772786301499703300,0.054703369140625,-0.4867278704106807,0.015402005662769079,0.6829848211999983
1772786301509719000,0.064718994140625,0.052669513913989066,0.18518479102440177,0.7913048376001417
1772786301519735300,0.0747353515625,0.1656944200694561,-0.040222850925475354,0.9664192663133144
1772786301529751300,0.084751220703125,0.37641573034524917,0.02926949523463845,0.959991279092431
1772786301539767300,0.094767333984375,0.554623010507226,-0.02266483627259731,0.9285917860917746
1772786301549783300,0.104783203125,0.4812801263988018,-0.16752835749834774,0.9164842919297516
1772786301559799300,0.11479931640625,0.41294542584121224,-0.10084076656065881,0.8846019838482141
1772786301569815000,0.12481494140625,0.25040391684472557,-0.13972835029438138,0.7887475543327629
1772786301579831000,0.1348310546875,0.05338204609751701,-0.1836814007241279,0.7178606850743293
1772786301589847300,0.144847412109375,-0.14712182154655457,-0.15676358318217098,0.6788936794288456
1772786301599863300,0.15486328125,-0.18423603893220425,-0.1365239282298833,0.5991964943902567
1772786301609879300,0.16487939453125,-0.243832721760869,-0.12671908498704432,0.5863415063291788
1772786301619895000,0.17489501953125,-0.27294483447670936,-0.12239186943769455,0.5523251453610136
1772786301629911000,0.1849111328125,-0.15163549957871436,-0.05687244549654424,0.5102842852281406
1772786301639926800,0.1949267578125,0.12290391061306,-0.03573211537748575,0.43224827486742284
1772786301649942800,0.20494287109375,0.37110008828043933,-0.046010494416207075,0.4018688456295058
1772786301659958800,0.214958740234375,0.4944388831794262,-0.07833141311071813,0.4643195296498015
1772786301669975000,0.22497509765625,0.417476055008173,-0.047061464773863554,0.5138038011237979
1772786301679991000,0.234990966796875,0.2869996633142233,0.019914295455440878,0.4865784154700115
1772786301690007000,0.245007080078125,0.20366846915483475,0.03191496824212372,0.4202029226887971
1772786301700023000,0.25502294921875,0.14467442839443684,-0.00594692570567131,0.35857239594496787
1772786301710038800,0.265038818359375,-0.05946224279403686,0.05793247594349086,0.2939791104054078
1772786301720054800,0.2750546875,-0.18981062419414518,0.21877828693799672,0.28626897441949695
1772786301730070800,0.28507080078125,-0.3843208043813705,0.19678265516385435,0.31376729526314884
1772786301740087000,0.295087158203125,-0.533065258693695,0.19183306993246077,0.18489545268900692
1772786301750103000,0.30510302734375,-0.026304069557785987,0.14026077667064965,0.0622459186958149
1772786301760119000,0.315119140625,0.27951486051678653,-0.11454298256821929,0.00520432717744261
1772786301770135000,0.325135009765625,0.607947188937664,-0.3236146624734625,-0.18513744475133717
1772786301780151800,0.33515185546875,1.1366741261661053,-0.489008747889474,-0.18956322530433534
1772786301790168000,0.34516796875,1.2637281421959399,-0.5162930971888825,0.329578283585608
1772786301800184000,0.35518408203125,0.5689204159289598,-0.28023831595312804,0.7712034220747649
1772786301810200000,0.365199951171875,-0.4039402816087007,0.26888481849618256,0.8103475378528237
1772786301820216000,0.375216064453125,-0.9580658639878034,0.8652193841166794,0.6328238560408354
1772786301830231800,0.385231689453125,-1.228266952714324,0.916631006924063,0.19229882428068668
1772786301840247800,0.395247802734375,-0.8829214834153651,-0.15035400840081273,-0.7359354901429266
1772786301850263800,0.405263916015625,-0.5625917974293232,-1.2223423849709332,-1.8031266955643892
1772786301860280000,0.415280029296875,-0.06565817482471466,-1.821146628640592,-1.9429919701114295
1772786301870296000,0.425296142578125,-0.14006781138181684,-1.8040226214908062,-1.5080444096900523
1772786301880312000,0.43531201171875,-0.5941565639942884,-1.3264420802623034,-1.1445865067258476
1772786301890327800,0.445327880859375,-1.1550070707142353,-0.8733112128965556,-1.1568915692865849
1772786301900343800,0.45534375,-1.2066945878535509,-0.7485759952031076,-1.4197710829533636
1772786301910359800,0.46535986328125,-0.8007102331966162,-0.9870487243007868,-1.5696658763445912
1772786301920375800,0.475375732421875,-0.5838496895134448,-1.3561905911855399,-1.5724281806647777
1772786301930392000,0.48539208984375,-0.3363718892484903,-1.5685862644143402,-1.4702210211217404
1772786301940408000,0.495407958984375,-0.24959961472451686,-1.5747816119231284,-1.243083267443627
1772786301950424000,0.505424072265625,-0.22817513390183447,-1.2778108819536864,-1.063101159628853
1772786301960439800,0.515439697265625,-0.15219780963659285,-1.023980132465437,-0.823172532634437
1772786301970455800,0.525455810546875,0.05562251850068569,-0.8223414155725389,-0.5275098530562594
1772786301980471800,0.535471923828125,0.3333183468967676,-0.6483852169837803,-0.15749313956573605
1772786301990488000,0.545488037109375,0.5170370839565992,-0.5905460088143125,0.09868344239629805
1772786302000504000,0.555504150390625,0.5466454557567835,-0.6201185421161354,0.14634941240195184
1772786302010520000,0.56552001953125,0.6801192757010459,-0.6862570478036999,0.21508805411793291
1772786302020536000,0.5755361328125,0.7153665301710367,-0.7083831010244787,0.24461050120033323
1772786302030551800,0.5855517578125,0.7188906126439571,-0.6109592667678371,0.19983601485248653
1772786302040567800,0.59556787109375,0.7548305255532264,-0.6462286234717816,0.10877623573504387
1772786302050583800,0.605583740234375,1.001653661301732,-0.7025809906169772,-0.10969356977567075
1772786302060600000,0.61560009765625,1.2570727759599685,-0.7551793389908968,-0.2934963683897629
1772786302070616000,0.625615966796875,1.4311106614828109,-0.7872068276967853,-0.32305264467652883
1772786302080632000,0.635632080078125,1.105590421116352,-0.797212235013023,-0.28932120159696784
1772786302090647800,0.645647705078125,0.8469967680752277,-0.7072899720255285,-0.2607983600111678
1772786302100663800,0.655663818359375,0.695947543951869,-0.7276572719454765,-0.3058091393329203
1772786302110679800,0.6656796875,0.6508470039874314,-0.926001623468101,-0.334925197571516
1772786302120697000,0.675697021484375,0.6853811417520046,-1.0430253900013864,-0.35031953138448296
1772786302130713000,0.685713134765625,0.7553922510892153,-1.0629381510868667,-0.3753367394695058
1772786302140728800,0.695728759765625,0.8616706055939197,-1.1412499827142804,-0.39712139537408947
1772786302150744800,0.705744873046875,0.7931400902032851,-1.1856149749457836,-0.40889965758174657
1772786302160760800,0.7157607421875,0.7059703407943249,-1.2030593731563537,-0.3693620489740744
1772786302170776800,0.72577685546875,0.7712403930842876,-1.2632511723339557,-0.263700620791316
1772786302180793000,0.73579296875,0.6383294677197933,-1.3515128086328505,-0.16612976101310922
1772786302190809000,0.74580908203125,0.5808060840338468,-1.4368642565734684,-0.10755697787208482
1772786302200825000,0.7558251953125,0.40015608689486976,-1.4167223629072307,-0.09445614355746657
1772786302210840800,0.7658408203125,0.2886497686088085,-1.3127809269174933,-0.18597038844414054
1772786302220856800,0.77585693359375,0.1438952607154846,-1.3560788013741374,-0.31616325048897415
1772786302230872800,0.785872802734375,-0.028577275186777114,-1.374786278323084,-0.48511597823463376
1772786302240888800,0.795888916015625,-0.048991117662191386,-1.3269544136986136,-0.5175011212717742
1772786302250905000,0.805905029296875,-0.04061082732975483,-1.292576781670004,-0.4657917576268315
1772786302260921000,0.815921142578125,0.02259644721150398,-1.3073225153811274,-0.37109661768171937
1772786302270937000,0.82593701171875,-0.2932376809209585,-1.4124980232104658,-0.3484882243040949
1772786302280952800,0.835952880859375,-0.4518108708083629,-1.383118199469149,-0.42031471250019964
1772786302290968800,0.84596875,-0.44710371603071686,-1.4579621357902883,-0.414772458605282
1772786302300984800,0.85598486328125,-0.5313257215499878,-1.5700192198269067,-0.47570970585532485
1772786302311000800,0.866000732421875,-0.5321767854213715,-1.6237585549294948,-0.6939297743886709
1772786302321017000,0.87601708984375,-0.47924540570080276,-1.6989406371638178,-0.8728027519177645
1772786302331033000,0.886033203125,-0.33059389036893844,-1.8120450382962823,-0.9263185804627835
1772786302341048800,0.896048828125,-0.1770481732547283,-1.9109395661599933,-0.9142579941824078
1772786302351064800,0.90606494140625,-0.0764227299451828,-2.0718992127925158,-0.8972383241899311
1772786302361080800,0.916080810546875,-0.14203823467195034,-2.2249343500360843,-0.8378834872931241
1772786302371096800,0.926096923828125,-0.4435778799921274,-2.1774654735051095,-0.7744033871598541
1772786302381113000,0.936113037109375,-0.7319394793093205,-1.9494655500397085,-0.776486915435642
1772786302391129000,0.946129150390625,-1.0441992560863493,-1.6468635361850261,-0.7230125879447907
1772786302401145000,0.95614501953125,-1.3224790218502283,-1.3303463942244649,-0.7461969911120832
1772786302411160800,0.966160888671875,-1.399493287947774,-1.2335035381935535,-0.9357008874446153
1772786302421176800,0.9761767578125,-1.4485171388357876,-1.3520682505585253,-1.2338453373685478
1772786302431192800,0.98619287109375,-1.511406433469057,-1.20224359979406,-1.1813698847219347
1772786302441208800,0.996208740234375,-1.9916858583927153,0.15942345004118977,-0.03570696266992018
1772786302451225000,1.00622509765625,-1.8336434143811464,0.6423136419851333,1.385645379859209
1772786302461241000,1.016240966796875,-1.5918950976788997,0.3877522401347756,2.1993996574155985
1772786302471257000,1.026257080078125,-1.5763222654938698,0.30795711114704605,2.306695518399775
1772786302481272800,1.03627294921875,-1.42956460108459,0.22656886774897575,1.9270545423977077
1772786302491289900,1.046289794921875,-0.8809627505630254,-0.03708890941445715,1.2637721274681388
1772786302501305900,1.056305908203125,-0.5809335098057985,-0.22984425442414358,0.3162512575659901
1772786302511322000,1.066322021484375,-0.4042681983888149,-0.32240671145580707,-0.8678387728348373
1772786302521338000,1.076338134765625,-0.3429588664233684,-0.3471044783281162,-1.9449701383166014
1772786302531353900,1.086353759765625,-0.2849409772187471,-0.22593413177570326,-2.442599780361354
1772786302541369900,1.096369873046875,-0.23203590098321436,0.02278151232167147,-2.3490879684492945
1772786302551385900,1.1063857421875,-0.28300094906687734,0.3517849277619272,-1.7464824328005313
1772786302561401900,1.11640185546875,-0.3282774301201105,0.7414750771567225,-1.002770974893868
1772786302571418000,1.126418212890625,-0.07379647309482097,1.075220709554851,-0.2993228460535407
1772786302581434000,1.13643408203125,0.27145488817989827,1.3092661967948078,0.2969238220877945
1772786302591449900,1.146449951171875,0.5540794051498175,1.42034654475376,0.6466502829499542
1772786302601465900,1.1564658203125,1.1332330458015203,1.509649652929604,1.016930506214872
1772786302611481900,1.16648193359375,1.4005138631671665,1.5180397340036929,1.3593557772181928
1772786302621498000,1.176498046875,1.6362585555404423,1.5594132162690162,1.5248162424013019
1772786302631514000,1.18651416015625,1.8313468278765677,1.4368199790403247,1.6384887988105414
1772786302641530000,1.196530029296875,1.8168442552715538,1.214168430865556,1.7530678025402127
1772786302651546000,1.206546142578125,1.659271766859293,1.1498187082909046,1.7791824870057402
1772786302661561900,1.216561767578125,1.507268018490076,1.1937313536450267,1.8104831958070395
1772786302671578000,1.226578125,1.387894620090723,1.3314092011503875,1.8293764045864342
1772786302681594000,1.236593994140625,1.2318074018001555,1.5936181220792234,1.8589863838218152
1772786302691610000,1.246610107421875,0.9664584292799234,1.9529677129417657,1.8630258684709666
1772786302701626000,1.256626220703125,0.6625052930772304,2.2931319802105428,1.8298259019196033
1772786302711642000,1.26664208984375,0.4928998370438814,2.469418813703954,1.6903525492995977
1772786302721658000,1.276658203125,0.5088660524606704,2.39575853420943,1.3837965371221304
1772786302731673900,1.286673828125,0.8257213403344154,1.2435707586996256,0.390796649331972
1772786302741690000,1.296690185546875,1.0055115057736634,-0.05167664411885198,-0.8593152746394276
1772786302751706000,1.3067060546875,0.8709674262493848,-0.6084096188176423,-1.7831331243276596
1772786302761722000,1.31672216796875,0.5572849231928587,-0.9079085520904511,-2.3009176656506956
1772786302771738000,1.326738037109375,0.18816168794333935,-1.080144795018807,-2.32438490434736
1772786302781754000,1.336754150390625,-0.06493102959394455,-0.9774511671330779,-1.9532924148514865
1772786302791769900,1.346769775390625,-0.05226853189766407,-0.8044665900554507,-1.3740939121447502
1772786302801785900,1.356785888671875,0.021148586490750312,-0.6960569956757128,-0.7454040871687233
1772786302811802000,1.366802001953125,0.07403320446014404,-0.5698974077349528,-0.1636747142774984
1772786302821818000,1.376818115234375,0.204253575566411,-0.39843532751686866,0.3343929538583383
1772786302831834000,1.386834228515625,0.3354483446627855,-0.24637159258872268,0.7088375667937099
1772786302841850000,1.39685009765625,0.4014987336754799,-0.14100969534181057,0.9632077569209039
1772786302851866000,1.4068662109375,0.4819423896998167,-0.06267163329459727,1.1357637333229182
1772786302861881900,1.4168818359375,0.47680678037703034,-0.0507943311592564,1.2428379143804311
1772786302871898000,1.426898193359375,0.6134037007778883,-0.0771451259355992,1.3604763056807219
1772786302881914000,1.4369140625,0.7930243548691273,-0.07254625383801758,1.4898735238358378
1772786302891930000,1.44693017578125,0.8551829971402883,-0.07597484004721045,1.5583926410496234
1772786302901946000,1.456946044921875,0.8495148883759975,-0.09167780141793191,1.4655365165673195
1772786302911963000,1.466962890625,0.8621931681632995,-0.09309804347939789,1.2474214427784085
1772786302921979000,1.476978759765625,0.9839490777850151,-0.1697347815014422,1.0673474919617176
1772786302931995100,1.4869951171875,0.9462234505027532,-0.3579745761822909,0.8113802419014274
1772786302942011100,1.49701123046875,0.5555500622242688,-0.5560343386098742,0.3741565532416105
1772786302952027100,1.507027099609375,0.036628479695320126,-0.7974799460384995,-0.19092004674077032
1772786302962043100,1.517043212890625,-0.34306700297296044,-0.9565385082900524,-0.8096618936762213
1772786302972059100,1.52705908203125,-0.438567358353734,-1.14161231322065,-1.2969601113207638
1772786302982075000,1.537074951171875,-0.42069209444522854,-1.35178431905061,-1.4960218173325062
1772786302992091000,1.5470908203125,-0.3733937521755695,-1.5253613090634346,-1.372982005380094
1772786303002107100,1.557107177734375,-0.34112931290864945,-1.5401716324433683,-1.0520587374150752
1772786303012123100,1.567123046875,-0.3600894494444132,-1.6138555850744247,-0.7347698073644191
1772786303022139100,1.57713916015625,-0.5366109684765339,-1.7965049393370747,-0.39603243109360337
1772786303032155100,1.587155029296875,-0.662845484817028,-1.8395994001761078,-0.11360044102109967
1772786303042171000,1.5971708984375,-0.7155401331722736,-1.7937565174117682,0.31529439523257313
1772786303052187000,1.607186767578125,-0.8971563449949026,-1.6597823467299342,0.6977834541421383
1772786303062203100,1.617203125,-1.1370219166904687,-1.453414263227582,0.9541494211964309
1772786303072219100,1.62721923828125,-1.2213935598134993,-1.1911605533089489,1.1215226611983031
1772786303082235100,1.637235107421875,-1.290201723101735,-0.7830903322886675,1.2167218416754155
1772786303092251100,1.647251220703125,-1.2102040572792292,-0.23461784376781433,1.1206320690341294
1772786303102267100,1.65726708984375,-0.9852888019561767,0.3327006168572232,0.8657195156585424
1772786303112283000,1.667282958984375,-0.7303706225574016,0.7742363600298762,0.739248194887489
1772786303122299000,1.677298828125,-0.508079870519042,0.9590339783675969,0.6220216723237186
1772786303132315100,1.687315185546875,-0.6910019042432308,0.9418201009772718,0.4477479687510058
1772786303142331100,1.6973310546875,-0.9535685525685548,0.897263239435479,0.2237332059316337
1772786303152347100,1.70734716796875,-1.2514631193846464,1.0103116725970058,0.0992617537409067
1772786303162363100,1.717363037109375,-1.5862480317026375,1.2235656431555748,0.06394165323041379
1772786303172379100,1.727379150390625,-1.6040829636007548,1.493050692567229,0.03993563148193061
1772786303182395000,1.737394775390625,-1.3790461277246475,1.7170565779604017,0.04761069615446031
1772786303192411000,1.747410888671875,-1.0971364810258148,1.855903176984191,0.07134718024656177
1772786303202427100,1.75742724609375,-0.6943477075397968,1.9329161279074847,0.0844555950794369
1772786303212443100,1.767443115234375,-0.2784030998826027,1.956301533539593,0.029583383489400147
1772786303222459100,1.777459228515625,0.0952712228000164,1.9436143397934733,-0.12161978908665477
1772786303232475100,1.78747509765625,0.4577735786050558,1.954798435500264,-0.3677061349932104
1772786303242491000,1.797490966796875,0.8353963466525077,1.9768295039139687,-0.7066258820936083
1772786303252507000,1.8075068359375,1.2857961816191672,1.9038874556913972,-1.142777849868685
1772786303262523100,1.817523193359375,1.5179402191519735,1.866697250460088,-1.625539300866425
1772786303272539100,1.8275390625,1.4564040926933288,1.7626874254092573,-2.099523863429576
1772786303282555100,1.83755517578125,1.333719962310791,1.5828898073159157,-2.4869942178830504
1772786303292571100,1.847571044921875,0.9385621220946312,1.3169713643446563,-2.767870137619972
1772786303302587100,1.857587158203125,0.3436924413949251,1.051382445588708,-2.896880548414588
1772786303312603000,1.867602783203125,-0.2901788778722286,0.8958467237010598,-3.0021219610869885
1772786303322619000,1.877618896484375,-0.8899936137586831,0.8239361374180764,-3.0112118609935044
1772786303332635100,1.88763525390625,-1.5301847836971283,0.7204302433013916,-2.9316636925041673
1772786303342651100,1.897651123046875,-1.747587179172039,0.3976872125633061,-2.859199929317832
1772786303352667100,1.907667236328125,-1.5530904429882764,0.11713369318116455,-2.3562935159139333
1772786303362683100,1.91768310546875,-1.354997728139162,-0.10202380233276635,-1.6860893388971685
1772786303372700000,1.927699951171875,-1.0346990218132734,-0.3489776883214712,-1.1039099937487393
1772786303382716000,1.9377158203125,-0.8875479741722345,-0.4651787402950227,-0.7207849019579589
1772786303392732200,1.947732177734375,-0.610030424952507,-0.4379132783591747,-0.3381118647836149
1772786303402748200,1.957748046875,-0.26790976291894913,-0.33009039782620964,0.04341952807493508
1772786303412764200,1.96776416015625,0.1833615941852331,-0.18845997677017,0.4305995212797075
1772786303422780200,1.9777802734375,0.629155981183052,-0.006069273443706333,0.7312156220141798
1772786303432796000,1.9877958984375,0.8751058412283659,0.14265291423788293,0.863758810044825
1772786303442812000,1.99781201171875,1.1076666428685187,0.22396147999586535,0.8344704639792442
1772786303452828200,2.007828125,1.2394447648108005,0.1413006593787111,0.6765599027190357
1772786303462844200,2.01784423828125,1.2284709508538245,-0.07660417832615785,0.4196943155795336
1772786303472860200,2.027860107421875,1.241239831534028,-0.35168855471536514,0.09473222055248916
1772786303482876200,2.037876220703125,1.2844710704952478,-0.5630574056470766,-0.18490085951648652
1772786303492892000,2.047891845703125,1.3224737611532211,-0.7844532912049442,-0.4512817323677242
1772786303502908000,2.057907958984375,1.3449188171952962,-0.9891529300384223,-0.767748824641481
1772786303512924000,2.067923828125,1.274444181999564,-1.1295286383256316,-1.1106431744612753
1772786303522940200,2.077940185546875,1.1664338891357182,-1.2076926589801906,-1.441652075371891
1772786303532956200,2.0879560546875,1.088924532997608,-1.2672813046328724,-1.8255147607222197
1772786303542972200,2.09797216796875,0.9619722237765789,-1.332384329792857,-2.1125651313103733
1772786303552988200,2.10798828125,0.8408277240514754,-1.3437439281970263,-2.27701408136338
1772786303563004000,2.11800390625,0.8868634990394115,-1.2445051169402896,-2.3190561105400325
1772786303573020000,2.12802001953125,1.1067436828047037,-1.0594737629119306,-2.056354437658191
1772786303583036000,2.138035888671875,1.1270569875150918,-0.8755285966850817,-1.6751728080853818
1772786303593052200,2.14805224609375,1.0270546445399522,-0.5540603351231664,-1.4522899353727698
1772786303603068200,2.158068115234375,1.1449416037738323,-0.23030074775367973,-1.1812839600041507
1772786303613084200,2.168084228515625,1.2534306200653313,-0.07140596122909337,-0.9143094321087002
1772786303623100700,2.1781005859375,1.4754016386300324,-0.0255713531027548,-0.6664226857166737
1772786303633116700,2.18811669921875,1.4717437006443739,-0.03883681252771057,-0.4897147772669792
1772786303643133000,2.1981328125,1.3356822022944688,-0.13885819813003764,-0.46477563938684757
1772786303653149000,2.20814892578125,1.2100713708102702,-0.36711635240651663,-0.5517245856519788
1772786303663165000,2.2181650390625,0.9201093505591154,-0.6073526571106165,-0.6819271288406104
1772786303673181000,2.228180908203125,0.5125058702677489,-0.8171364673405885,-0.7504253493968397
1772786303683196700,2.23819677734375,-0.03149170132875442,-0.9425414740543812,-0.8029455179680138
1772786303693212700,2.248212646484375,-0.7316501409739256,-1.0492795550253242,-0.9543832299523055
1772786303703228700,2.258228759765625,-1.3408300865769385,-1.1903901534583419,-1.2319132002621889
1772786303713245000,2.268244873046875,-1.5342635774433613,-1.3497881767973303,-1.5183938081383703
1772786303723261000,2.278260986328125,-1.3827759619027375,-1.5996658778108654,-1.6510244552567601
1772786303733277000,2.28827685546875,-1.1260580396056175,-1.8600057899974285,-1.5945231080949305
1772786303743293000,2.29829296875,-1.0794073475897312,-2.0241163018763064,-1.5933623937524855
1772786303753308700,2.30830859375,-1.3282751409083604,-2.0682539881579576,-1.719669829198718
1772786303763324700,2.31832470703125,-1.8069260878473519,-1.9547287312649189,-2.1442332121193406
1772786303773340700,2.328340576171875,-2.081079713591933,-1.9361954418390988,-3.047152942946553
1772786303783357000,2.33835693359375,-2.381212999245524,-1.4131027111053467,-3.4480896588250993
1772786303793373000,2.348373046875,-2.7962340623170134,-0.10795861747553571,-2.6555048644170163
1772786303803389000,2.358388916015625,-3.0457378154516217,0.7577792192909866,-1.0630519867248833
1772786303813404700,2.36840478515625,-3.3510622400075194,1.0038793745271861,1.026765160074085
1772786303823420700,2.378420654296875,-3.3836697936236857,1.2307514630064367,2.395577332423627
1772786303833436700,2.388436767578125,-3.1874551476061344,1.6903437814712523,2.994201689481735
1772786303843452700,2.39845263671875,-2.787060575780272,1.8466124938085675,2.9132386857584116
1772786303853470000,2.408469970703125,-1.906862379848957,1.4158169385001063,1.7936287993788718
1772786303863485700,2.418485595703125,-0.7685369793444872,1.128796816919744,0.7919134710177779
1772786303873501700,2.428501708984375,0.6079892745137214,0.4261194532562047,-0.8022959680180997
1772786303883517700,2.438517578125,1.2799363496750593,0.0917760193617083,-2.330732665938884
1772786303893533700,2.44853369140625,1.3766566022396087,0.1511835180275142,-2.953007509306073
1772786303903550000,2.458550048828125,1.3203899406164883,0.43337965351752933,-2.81191532331258
1772786303913566000,2.46856591796875,0.9312363092511892,0.8006674900334328,-1.902942722187191
1772786303923582000,2.47858203125,0.67992521443367,1.1910842001371085,-0.9289647110573946
1772786303933597700,2.48859765625,0.6135381408125162,1.5855457286521792,-0.42544608403928574
1772786303943613700,2.49861376953125,0.8130483212441205,1.848119245109707,-0.21516528407260774
1772786303953629700,2.508629638671875,1.315765203425288,1.9642516157612204,-0.0008670651581138372
1772786303963645700,2.518645751953125,1.7310609917849302,2.129034766204655,0.22827976332008837
1772786303973662000,2.528661865234375,1.9016449374616144,2.2999799464091657,0.594196969069913
1772786303983678000,2.538677978515625,2.011357358068228,2.3906755318567154,1.0003048770412801
1772786303993694000,2.54869384765625,2.042614081597328,2.5541654276192185,1.4038114434078335
1772786304003709700,2.558709716796875,2.095739522585273,2.467212535831332,1.5531348666518925
1772786304013725700,2.5687255859375,2.2271961574882266,2.0880678189136086,1.4151426925003527
1772786304023741700,2.57874169921875,2.4456851791560648,1.7409975716486572,1.1915057134848088
1772786304033758000,2.588758056640625,2.5514409710913895,1.5633102237075567,1.0525086731396616
1772786304043774000,2.59877392578125,2.502463297432661,1.4063371624931693,1.0683334342591464
1772786304053790000,2.6087900390625,2.0461141986727713,1.2856672945424914,1.2703460990309714
1772786304063805700,2.6188056640625,1.1390361791223287,1.4361638532191514,1.4785546958334743
1772786304073821700,2.62882177734375,0.17283786208331584,1.6360922590628266,1.4474595926068723
1772786304083837700,2.638837646484375,-0.7937889095008372,1.8903087199330328,1.1382552578777074
1772786304093853700,2.648853759765625,-1.3428729905813932,1.9566668597206471,0.6970902842462062
1772786304103870000,2.658869873046875,-1.1565800191193818,0.997390158638358,-0.14856646739691495
1772786304113886000,2.668885986328125,-0.5511176327347755,-0.47004247387386855,-1.1048312733121215
1772786304123902000,2.67890185546875,-0.1962894648194313,-1.1773108185894787,-1.6315715667679904
1772786304133917700,2.688917724609375,-0.28568799619376656,-1.3889160720929503,-1.6623671025261282
1772786304143933700,2.69893359375,-0.576997339400649,-1.3727793224148452,-1.3306653970457614
1772786304153949700,2.70894970703125,-0.710778033336997,-1.2018022857673465,-0.8633354700662195
1772786304163965700,2.718965576171875,-0.5670522839695215,-0.9089919634129852,-0.41566959010809656
1772786304173982000,2.72898193359375,-0.27101298963129516,-0.6229806535489857,-0.032819735062122345
1772786304183998000,2.738998046875,0.08921206889152526,-0.42129228882808234,0.28204452512487765
1772786304194014000,2.749013916015625,0.4016729211986065,-0.35961602324638514,0.4970126791901886
1772786304204029700,2.75902978515625,0.5475345135509967,-0.45238286201003935,0.6139949446693063
1772786304214045700,2.769045654296875,0.5835656118750572,-0.6204292155005038,0.6347904799386859
1772786304224061700,2.779061767578125,0.5510410603672266,-0.7636440927363932,0.5836294708915054
1772786304234077700,2.78907763671875,0.44854163987934587,-0.7614479709316044,0.4852168813258409
1772786304244094000,2.799093994140625,0.5543915398389101,-0.732292822791636,0.40300212397575375
1772786304254110000,2.80910986328125,0.7910691291481255,-0.6637880263641476,0.4474433232486248
1772786304264125700,2.819125732421875,0.870972686946392,-0.4917852999307215,0.5527294518455863
1772786304274141700,2.8291416015625,0.7595306660681963,-0.3993276732467115,0.5461565031960606
1772786304284157700,2.83915771484375,0.48262803387641906,-0.5024349964998662,0.3539792960010469
1772786304294173700,2.849173583984375,-0.08480477384328841,-0.7289630938470363,-0.027395664186775682
1772786304304190000,2.85918994140625,-0.5031488438576459,-0.9276588160905986,-0.5164040467500687
1772786304314206000,2.8692060546875,-0.7194377251327038,-1.157556024544686,-1.0582600762732326
1772786304324222000,2.879221923828125,-0.8130711175978184,-1.41040134319216,-1.5969629024624823
1772786304334237700,2.88923779296875,-0.7903115887790918,-1.5608222062841057,-1.9647377918429672
1772786304344253700,2.899253662109375,-0.5728185924112796,-1.6242875472396612,-2.0289530743829904
1772786304354269700,2.909269775390625,-0.1771796906799078,-1.6754245908893644,-1.7936401975557208
1772786304364285700,2.91928564453125,0.11599661544263362,-1.8436098048612475,-1.4557815768808127
1772786304374302000,2.929302001953125,0.19227964465618133,-2.1966949285015462,-1.182162934795767
1772786304384318000,2.93931787109375,-0.05183832378685474,-2.4341709747120737,-0.7951815329030155
1772786304394334700,2.949334716796875,-0.4544435573995113,-2.5186723816946146,-0.4857758303828537
1772786304404350700,2.959350830078125,-0.8867501017928123,-2.4445336710333825,-0.2993180237479508
1772786304414366700,2.96936669921875,-1.201129354941845,-2.1937239498667416,-0.0760245244078338
1772786304424383000,2.979383056640625,-1.4012041835188864,-1.788365472023189,0.3011934622310102
1772786304434399000,2.98939892578125,-1.414936940795183,-1.3231097209692,0.8158617712296545
1772786304444415000,2.9994150390625,-1.0718512331217527,-0.9180896082345396,1.389534642382711
1772786304454430700,3.0094306640625,-0.7472066065460443,-0.6195039173491299,1.7336884176790712
1772786304464446700,3.01944677734375,-0.9502116433560848,-0.5060862124837935,1.4984144115574658
1772786304474462700,3.029462646484375,-1.0332499920487404,-0.5798240872591733,0.9117584324516356
1772786304484478700,3.039478759765625,-1.1066139189451931,-0.8569261875458061,0.32792832442149517
1772786304494495000,3.049494873046875,-1.6291566145807503,-1.1146869699593633,0.1267646776944399
1772786304504511000,3.059510986328125,-2.0933751315414906,0.06036247956939041,0.7650503062725067
1772786304514526700,3.069526611328125,-2.3568103793948887,1.427934369534254,1.6538846669934688
1772786304524542700,3.079542724609375,-2.621430453118682,2.13643437493667,2.408157120272517
1772786304534558700,3.089558837890625,-2.7989129261374472,2.64663942091614,2.747038361993432
1772786304544574700,3.09957470703125,-2.524330261325836,3.0956571538746354,2.469487787286937
1772786304554590700,3.1095908203125,-1.423786602205038,3.1854172120377418,1.9101462238252163
1772786304564607000,3.11960693359375,-0.03575228138267994,2.9976155895784498,1.2211080208703875
1772786304574623000,3.129623046875,1.3386463127970694,2.8293822986811397,0.4722245671533048
1772786304584638700,3.139638671875,2.286402379694581,2.768646674950421,-0.42981516596898434
1772786304594654700,3.14965478515625,2.485034608247876,2.6524440155416724,-1.4635368671827018
1772786304604670700,3.159670654296875,2.0593986276596783,2.3637981924556195,-2.455735448527336
1772786304614686700,3.169686767578125,1.6449667626529931,1.885107790289074,-3.3370974275410172
1772786304624702700,3.17970263671875,1.4094026875436305,1.2684778209410608,-3.965498790964484
1772786304634719000,3.189718994140625,0.9997136331498623,0.6740740041874349,-4.259162003821134
1772786304644735000,3.19973486328125,0.29454350282251834,0.26314696896392853,-4.250083209830522
1772786304654750700,3.209750732421875,-0.47711014723777767,-0.20642627996299415,-3.895952376529574
1772786304664766700,3.2197666015625,-0.9935697235673665,-0.5100506956679747,-3.118454676616192
1772786304674782700,3.22978271484375,-1.2876456088781356,-0.48790414764843876,-2.130095673434436
1772786304684798700,3.239798828125,-1.5773375800162552,-0.4134291177049279,-1.2162414377473294
1772786304694815000,3.24981494140625,-1.8879706323742866,-0.3070243968741968,-0.6128181559748948
1772786304704831000,3.2598310546875,-1.8103057934135198,-0.2461854223668575,-0.10520897170752286
1772786304714847000,3.269846923828125,-1.5191770674705505,-0.2737804085180163,0.38102337027117605
1772786304724862700,3.27986279296875,-1.3997984083741903,-0.35113771589957177,0.5992034721203148
1772786304734878700,3.289878662109375,-0.942939606526494,-0.5091465133698657,0.62945817900002
1772786304744894700,3.299894775390625,-0.43670039543807504,-0.6236563608534633,0.4998008486039936
1772786304754910700,3.30991064453125,0.07353636085391044,-0.7052985790126025,0.3850719150096178
1772786304764927000,3.319927001953125,0.5711082813620567,-0.7234037061542272,0.33166736481934783
1772786304774943000,3.32994287109375,0.9403495900332928,-0.6863540784373879,0.20911372894868255
1772786304784958700,3.339958740234375,1.2388146502137183,-0.5579315505333244,0.051177521790564055
1772786304794974700,3.349974609375,1.5854571735858916,-0.4609055564878508,-0.1772811052277684
1772786304804990700,3.35999072265625,1.8450678947150707,-0.4651583550941199,-0.4019384402669966
1772786304815006700,3.3700068359375,2.1831588628411294,-0.5240604432547464,-0.6313697847750037
1772786304825022700,3.380022705078125,2.4344623588740824,-0.7291543055702,-0.8561562991518527
1772786304835039000,3.3900390625,2.2125749269396064,-0.9145403913203626,-1.0564517116770147
1772786304845055000,3.400054931640625,1.8093138597667215,-0.8718427477791905,-1.2086132809564472
1772786304855070700,3.41007080078125,1.461957635167241,-0.83316106188111,-1.3290410107143222
1772786304865086700,3.420086669921875,1.2741489984452723,-0.9252317350741476,-1.4867223663285374
1772786304875102700,3.430102783203125,1.3377297824740408,-1.141270952437073,-1.6237576781466603
1772786304885118700,3.44011865234375,1.3457184431403875,-1.2936904420003295,-1.694989415320009
1772786304895135000,3.450135009765625,1.141518059065938,-1.3797864246979354,-1.7470035340651868
1772786304905151000,3.46015087890625,0.6507143175184726,-1.3256998835928737,-1.7804454926788806
1772786304915167000,3.4701669921875,0.16738368833065032,-1.1237036584991962,-1.7868541906774043
1772786304925182700,3.4801826171875,-0.10780454115867615,-0.9194538092598319,-1.7497531250342726
1772786304935198700,3.49019873046875,-0.34380934577286243,-0.7316662153258919,-1.8433492542289196
1772786304945214700,3.500214599609375,0.2063531781941652,-0.5084185644214972,-1.5916247563049197
1772786304955230700,3.510230712890625,0.752919723495841,-0.2769780720481649,-1.1187709513373671
1772786304965247000,3.5202470703125,1.0855986034452914,-0.10344270182051696,-0.7838117053657769
1772786304975263700,3.530263671875,1.017353334736824,-0.01700073696314357,-0.6238374165087938
1772786304985279700,3.54027978515625,0.49784138509929177,-0.0015214830793906003,-0.5920806345030665
1772786304995295700,3.550295654296875,-0.03817278652787209,0.008996823928738013,-0.7293047468915581
1772786305005311700,3.560311767578125,-0.35503450414240356,-0.09787246394013054,-1.0587617421850561
1772786305015327700,3.57032763671875,-0.2615834825068712,-0.24971518566189332,-1.4433172321051357
1772786305025344000,3.580343994140625,0.06959200714230537,-0.40890897339936344,-1.7882773553483187
1772786305035359700,3.59035986328125,0.18522855710089206,-0.5508091513074934,-2.1346144660331308
1772786305045375700,3.600375732421875,-0.21308862392902372,-0.5041358090683817,-2.4060931734800337
1772786305055391700,3.610391845703125,-1.1834288630783558,-0.1887625581796281,-2.48073778783679
1772786305065407700,3.62040771484375,-2.072719297003746,0.26640587942833077,-1.9872380852036178
1772786305075423700,3.630423828125,-2.3848306052207944,0.9438599362418055,-0.33499756868798286
1772786305085440000,3.64043994140625,-2.8165479515492913,1.1253723954290151,1.346675889995694
1772786305095456000,3.6504560546875,-3.2274960660934444,0.7104991433303803,1.8129989780202507
1772786305105471700,3.6604716796875,-2.9267618919372556,0.34998065481893714,1.6706714050129055
1772786305115487700,3.67048779296875,-2.5892104375153777,0.1908060467059724,1.4044453573971987
1772786305125503700,3.680503662109375,-2.3731442590802905,0.020066362478304654,1.0701209752630443
1772786305135519700,3.690519775390625,-2.330798570781946,-0.390983111814782,-0.13719751664251087
1772786305145535700,3.70053564453125,-1.762363308021426,-0.19011811924073843,-1.2980325628578662
1772786305155552000,3.710552001953125,-1.1724953811317682,-0.0473709691144526,-2.175339421261847
1772786305165568000,3.720568115234375,-0.8643459622830152,-0.009119947984907775,-2.1134104960933326
1772786305175583700,3.730583740234375,-0.6464478922456502,0.2991128930972889,-1.0822517041701822
1772786305185599700,3.740599853515625,-0.3280874605059623,0.6634927697446197,0.19109430732913313
1772786305195615700,3.75061572265625,-0.11220131481289863,1.1205070544149727,1.1430019409481436
1772786305205631700,3.7606318359375,0.10172551350593566,1.401824361243844,1.58743694922626
1772786305215647700,3.770647705078125,0.213028418174386,1.547816594238579,1.708824610057473
1772786305225664000,3.7806640625,0.4674234504818916,1.6232264938794077,1.6574382678218185
1772786305235679700,3.7906796875,1.0543038859933613,1.6541731285460293,1.5152759683787822
1772786305245695700,3.80069580078125,1.7178747624754904,1.6107644871912896,1.3673176960080862
1772786305255711700,3.810711669921875,2.377977670586109,1.5554751461677252,1.234059272380173
1772786305265727700,3.820727783203125,2.849218049007654,1.5587516836203634,1.2165246386028825
1772786305275743700,3.83074365234375,2.9950679509222504,1.628070719040185,1.1883869238771498
1772786305285760000,3.840760009765625,2.9022429522305724,1.657250197903812,1.1010753548447043
1772786305295776000,3.85077587890625,2.6076795756638047,1.6468614903584122,1.0362994427472352
1772786305305791700,3.860791748046875,2.21864869389534,1.6837639646895228,0.7877620504267513
1772786305315807700,3.870807861328125,1.6892407886654137,1.6047960803061723,0.5132558483848348
1772786305325823700,3.88082373046875,1.1500526631772519,1.4719628963530063,0.2776783658046275
1772786305335839700,3.89083984375,0.6392723015278577,1.203896773828566,0.13049769021030513
1772786305345855700,3.900855712890625,0.2698123816698789,0.8479323684249073,-0.004723704053647816
1772786305355872000,3.9108720703125,0.03528115673959255,0.5129222690489142,-0.11904935407675803
1772786305365888000,3.920887939453125,-0.03374854034483433,0.20608612475581467,-0.26749047806095333
1772786305375903700,3.93090380859375,0.10409808785617351,-0.06125531848957762,-0.4072694260314107
1772786305385919700,3.940919677734375,0.3146387808680534,-0.2875138233814388,-0.4428198646990582
1772786305395935700,3.950935791015625,0.5099935951858758,-0.37844570180289444,-0.38930936991628257
1772786305405951700,3.96095166015625,0.641422173038125,-0.38853140781372786,-0.2008538135929033
1772786305415967700,3.9709677734375,0.5818377651691437,-0.3337080038014799,0.07956033385116607
1772786305425984000,3.98098388671875,0.3961006740242243,-0.3562754075815901,0.2973541397964582
1772786305435999700,3.990999755859375,0.27487960193157196,-0.4945567008728161,0.41904290246609593
1772786305446015700,4.001015625,0.15303776759207247,-0.7186477437987924,0.3892257467534393
1772786305456031700,4.01103173828125,0.06727905402481556,-0.92583079694584,0.22870661043003201
1772786305466047700,4.0210478515625,0.1335001234292984,-1.0444548382826149,0.02668159763328731
1772786305476063700,4.031063720703125,0.40822365801632404,-1.1474027331903576,-0.12346220208294689
1772786305486079700,4.041079833984375,0.6820072814047337,-1.1919359946608543,-0.20201441833749412
1772786305496096000,4.051095947265625,0.8409060499846934,-1.0908969290491193,-0.1230443785296753
1772786305506111700,4.06111181640625,0.7699035915225744,-0.8442617170881479,0.0764787709813565
1772786305516127700,4.071127685546875,0.5732534766972065,-0.6203571001123637,0.2766971727475524
1772786305526143700,4.081143798828125,0.37863925161361695,-0.5223608362626284,0.43946573196556415
1772786305536159700,4.09115966796875,0.16294950527548788,-0.5074815392997115,0.3993530999489128
1772786305546175700,4.10117578125,0.08415127837061881,-0.4869657708197832,0.18615593761149793
1772786305556192000,4.11119189453125,0.10370528914630413,-0.4193468173161149,-0.05166006287680939
1772786305566208000,4.1212080078125,0.253135387635231,-0.3424710098411888,-0.1770447757212445
1772786305576223700,4.1312236328125,0.5868225678443908,-0.29342165918573737,-0.05875361960064619
1772786305586239700,4.14123974609375,0.7638368388295174,-0.2916526036866009,0.15084887924566864
1772786305596255700,4.151255859375,0.5853542488574981,-0.3443243826229125,0.3034672889145091
1772786305606271700,4.161271728515625,0.26024258929193017,-0.5832978277843445,0.22644732372853904
1772786305616287700,4.171287841796875,0.07474398307800292,-0.9579057780552654,0.051899735117889936
1772786305626303000,4.181302978515625,-0.08852876280248165,-1.3482608210995792,-0.1233562940230593
1772786305636319200,4.1913193359375,-0.2913601966112852,-1.5906500660538672,-0.25914767019469287
1772786305646336000,4.2013359375,-0.41741994090676304,-1.6932915253609417,-0.27252770504318174
1772786305656352000,4.21135205078125,-0.3726782973825931,-1.693773317528516,-0.005217515452578664
1772786305666368000,4.221367919921875,-0.35038112537860866,-1.619474301739037,0.3343309214727953
1772786305676384000,4.231384033203125,-0.5488713151127099,-1.529702260877192,0.5713818741390482
1772786305686400300,4.241400146484375,-0.8523428052783012,-1.497258665651083,0.6012593086715787
1772786305696416300,4.251416259765625,-1.0871762280255555,-1.4765994701124727,0.4835371115453541
1772786305706432000,4.261431884765625,-1.0012947648614645,-1.4249651444651186,0.36409247454069554
1772786305716448000,4.271447998046875,-0.7940086897313594,-1.2529419597655533,0.2539757474495098
1772786305726464000,4.281464111328125,-1.0444254660576582,-1.0451868788842111,0.029864282790012655
1772786305736480000,4.29147998046875,-1.0004980615258217,-0.6361003204282373,0.08028335089609026
1772786305746496000,4.30149609375,-1.1260703145653008,-0.2862991138294339,0.34829697604831306
1772786305756512300,4.31151220703125,-1.7020336347430944,-0.09791516143754124,0.3541457751417532
1772786305766528300,4.3215283203125,-2.4469091679930686,-0.029754283076897262,-0.05308079812861979
1772786305776544000,4.3315439453125,-2.5373405495464803,0.2100627733018249,-0.15974259899295865
1772786305786560000,4.34156005859375,-2.7561177405059336,0.618116993035376,0.11295403287634252
1772786305796576000,4.351575927734375,-2.7518618366271257,1.2444760369762777,0.5265625988014042
1772786305806592000,4.361592041015625,-2.2839859662026165,1.9373297065660355,0.9614523646209389
1772786305816608000,4.37160791015625,-1.5876508842378854,2.404992957153171,1.2361357863932847
1772786305826624300,4.381624267578125,-0.8160515947133302,2.579613172608614,1.3641510486707091
1772786305836640000,4.391639892578125,0.03647591948211193,2.5466645504698158,1.4714046779483556
1772786305846656000,4.401656005859375,0.5262216764092446,2.4185516730368137,1.5209434926211833
1772786305856672000,4.411672119140625,0.7490618790239095,2.2963415899068114,1.3769742898866533
1772786305866688000,4.42168798828125,0.8234861286282539,2.1625611882314084,1.0756555207755416
1772786305876704000,4.4317041015625,0.8594739723324775,2.141063642172515,0.5528493518982083
1772786305886720000,4.441719970703125,1.0337713855743407,2.2154700638592244,-0.2163235141970217
1772786305896736300,4.451736328125,1.376461956450343,2.1483663664013144,-1.2152378867279738
1772786305906752000,4.461751953125,1.414403856831789,2.1012011489920317,-2.083911137625575
1772786305916768000,4.47176806640625,1.435741243892908,1.470387317599356,-2.9725355088576673
1772786305926784000,4.481783935546875,1.3804238458186386,1.2526523291692138,-3.3675545251250263
1772786305936800000,4.491800048828125,1.0484060601264238,0.9611461482159793,-3.4734991176307197
1772786305946816000,4.50181591796875,0.4008610202938318,0.7471487388789654,-3.1644127101927992
1772786305956832300,4.511832275390625,-0.45922143932580944,0.7178184533677995,-2.52042448605895
1772786305966848300,4.52184814453125,-1.2340607336848974,0.8527642455607652,-1.8577226474963127
1772786305976864000,4.531864013671875,-1.9001731113433837,0.9583670388914645,-1.3498548122927545
1772786305986880000,4.5418798828125,-2.522189157643914,1.158701395187527,-0.9894758783824741
1772786305996896000,4.55189599609375,-2.6514070737093687,1.144836535964161,-0.6715956313751638
1772786306006912000,4.561912109375,-1.7647762143820522,0.2012500098362565,-0.4626936454810202
1772786306016928000,4.571927978515625,-1.0702835454136133,-0.3224622045027092,-0.390318729621917
1772786306026944300,4.5819443359375,-0.5070306537270546,-0.4579667265569791,-0.4670285328801721
1772786306036960000,4.5919599609375,0.19520751480162143,-0.4676562363244593,-0.3608793577130884
1772786306046976000,4.60197607421875,0.7596236050486564,-0.5077945142390207,-0.17730616660378873
1772786306056992000,4.611991943359375,1.0836012921482323,-0.42765239844452585,-0.05359240091256797
1772786306067008000,4.622008056640625,1.3633447007238864,-0.239145002336055,-0.019895079298317433
1772786306077024000,4.63202392578125,1.6419050369948147,-0.151083637849614,-0.04015533864721656
1772786306087040000,4.6420400390625,1.6481781259149313,-0.1466089401209727,-0.08976933744810521
1772786306097056300,4.65205615234375,1.5000924277722836,-0.17552118288315832,-0.1754170649215579
1772786306107072000,4.662072021484375,1.2923790671408175,-0.23602752790264783,-0.2622144008215517
1772786306117088000,4.672087890625,1.1591396404743195,-0.3765483437489718,-0.36198487126957624
1772786306127104000,4.68210400390625,1.118306110304594,-0.5788503103235736,-0.5125875572018325
1772786306137120000,4.6921201171875,1.1538520554602145,-0.8080156608391552,-0.7585280648969114
1772786306147136000,4.702135986328125,1.2582277912139892,-0.9830184458713978,-1.0386775700554252
1772786306157152300,4.71215234375,1.3820909022480248,-1.139663298044726,-1.2005045010417699
1772786306167168300,4.722168212890625,1.2044763272821903,-1.2316732540264725,-1.252480187472701
1772786306177184000,4.73218408203125,0.8014677735656499,-1.2161954797137529,-1.2793898217082023
1772786306187200000,4.742199951171875,0.4883931732743978,-1.1493041098322718,-1.293691318783164
1772786306197216000,4.752216064453125,0.3496580718010664,-1.045009768751636,-1.280578154709935
1772786306207232000,4.76223193359375,0.4796013795316219,-0.9946474358014762,-1.2421028781041503
1772786306217248000,4.772248046875,0.7608201213568448,-0.9378690252639352,-1.2028209612905978
1772786306227264300,4.78226416015625,0.9591057284295559,-0.8464761782672255,-1.1434320029284804
1772786306237280300,4.7922802734375,1.146639055341482,-0.758369221073389,-1.0032044709403067
1772786306247296000,4.8022958984375,1.2033306643784045,-0.662027592562884,-0.7098239474825561
1772786306257312000,4.81231201171875,0.9573007248342037,-0.4223794630102813,-0.42376364737767724
1772786306267328000,4.822327880859375,0.6858253783881664,-0.14868161820918321,-0.23791703144367782
1772786306277344000,4.832343994140625,0.6093634854763746,0.01680027335444465,-0.18074067109711467
1772786306287360000,4.842360107421875,0.6935328840255737,0.012601990547543391,-0.21013729984275994
1772786306297376300,4.852376220703125,0.769950937795639,-0.09143512436901219,-0.3839633327132091
1772786306307392000,4.86239208984375,0.887886412346363,-0.25130548706064,-0.658499126175791
1772786306317408000,4.872407958984375,0.9872668240308761,-0.4614116428464651,-1.0039401648037134
1772786306327424000,4.882424072265625,0.9114683634638786,-0.616186901755631,-1.428437935142219
1772786306337440000,4.89243994140625,0.8303478310912847,-0.7204810967057943,-1.8154903564445672
1772786306347456000,4.9024560546875,0.5223854592472315,-0.8109085327364504,-2.1205289497964084
1772786306357472000,4.912471923828125,0.2598515441477299,-0.9713350954055786,-2.407413608428836
1772786306367488300,4.92248828125,0.042868835389614106,-1.1892653872121124,-2.674916544112563
1772786306377504000,4.93250390625,-0.29893618482351303,-1.480386587435752,-2.8846389064788815
1772786306387520000,4.94252001953125,-0.6479968752533197,-1.7392600803315639,-3.063747519394755
1772786306397536000,4.952535888671875,-1.0861614980250596,-1.6902394443139432,-3.3675264680743218
1772786306407552000,4.962552001953125,-1.4066133490860462,-1.2760270672768355,-3.3662375973075624
1772786306417568000,4.972568115234375,-2.102227715560794,-0.3497818077785894,-2.4318682507276534
1772786306427584300,4.982584228515625,-2.8756349312901497,0.8921910507377236,-0.4938012428630143
1772786306437600300,4.992600341796875,-3.4079654459685087,1.8906458429329096,1.360370653349161
1772786306447616000,5.002615966796875,-3.5189380957692857,2.3149214949533343,2.3182351495459677
1772786306457632000,5.012632080078125,-3.227124894693494,2.1802862300142642,2.4497392768524584
1772786306467648000,5.02264794921875,-2.7707354639232156,1.9776707770437,2.212651645437628
1772786306477664000,5.0326640625,-2.0634937880188224,1.6578705217592418,1.5475595507375894
1772786306487680000,5.042679931640625,-1.4518278708189725,1.0990504979535938,0.19407774358671157
1772786306497697000,5.052697021484375,-0.8813105410873889,0.5263855982666835,-1.7622975493088364
1772786306507712000,5.0627119140625,-0.4691109651774168,-0.023880148612800984,-3.7479973190292712
1772786306517729000,5.07272900390625,-0.1835965719848871,-0.37521541464477776,-4.7557843685194845
1772786306527745000,5.0827451171875,-0.00010930559337139129,-0.2564460830857977,-3.923280528438091
1772786306537761000,5.092760986328125,0.1626648431152105,0.3118876555290073,-1.7490264181949198
1772786306547777300,5.10277734375,0.15896481955349445,1.0839625266760586,0.24713822957966475
1772786306557793000,5.11279296875,0.2245440839231014,1.5527144492827354,1.3534258026473223
1772786306567809000,5.12280908203125,0.622246347925067,1.7965175065577028,2.000727827504277
1772786306577825000,5.132824951171875,1.1094114407092333,1.9537156086996197,2.489137951913476
1772786306587841000,5.142841064453125,1.506796309325099,2.022157715154439,2.7129809018298983
1772786306597857000,5.15285693359375,1.7726532313674688,2.0750494935169814,2.763347984020412
1772786306607873000,5.162873046875,1.9228350250065325,2.006670077034831,2.6673674439072608
1772786306617889300,5.17288916015625,2.063526521244645,1.936925363548845,2.3378961278274653
1772786306627905500,5.182905517578125,1.5905734936863183,1.9172551790475845,2.3985486033193766
1772786306637921500,5.192921630859375,1.4262655595391989,2.2059730444565413,2.1741199624694882
1772786306647937800,5.202937744140625,0.9041127400040626,2.497724286212027,1.8287568113833665
1772786306657953800,5.212953857421875,0.5894821424424648,2.4337667778253556,1.584168448949605
1772786306667969800,5.2229697265625,0.45546179453134533,2.0736868268616497,1.2240892286382614
1772786306677985800,5.23298583984375,0.3775210612386465,1.5887699513956903,0.6634225540526211
1772786306688001500,5.24300146484375,0.4213327304363251,1.1218498473260552,-0.13233191990014165
1772786306698017500,5.253017578125,0.4134837705016136,0.7157126401949674,-0.7851083941128104
1772786306708033800,5.26303369140625,0.21699264563024043,0.41731520189065485,-1.1539357882209123
1772786306718049800,5.2730498046875,-0.006295885273814201,0.23845758632747455,-1.2573043927587568
1772786306728065800,5.283065673828125,0.028667291557788847,0.19611187976282088,-1.0209117578707634
1772786306738081800,5.293081787109375,0.1026169093877077,0.22912850737022233,-0.5724258302340284
1772786306748097500,5.30309765625,0.16683073062300682,0.282503155612573,-0.12482077708505093
1772786306758113500,5.313113525390625,0.1960486418008804,0.2749846697412431,0.2042926289351657
1772786306768129500,5.323129638671875,0.12167758368849754,0.23417590868659316,0.41975079500712453
1772786306778145800,5.333145751953125,0.2141185514986515,0.10613094539064913,0.5529570135237649
1772786306788161800,5.343161865234375,0.35882337503135203,-0.12970960857253522,0.6443576419681311
1772786306798177800,5.353177734375,0.4513736484348774,-0.4238626507727429,0.6198108644064515
1772786306808193800,5.36319384765625,0.43590369210243224,-0.7337419986866414,0.5059840672835707
1772786306818209500,5.37320947265625,0.3426753733068704,-1.0344051534332335,0.3436716908678412
1772786306828225500,5.3832255859375,0.25447861893773077,-1.1816536700993776,0.07554198332158849
1772786306838241500,5.393241455078125,0.31510756742358204,-1.2705635411739349,-0.26553503314424304
1772786306848257800,5.4032578125,0.5461000968337059,-1.296906481437385,-0.5111731603592634
1772786306858273800,5.413273681640625,0.8010340583235025,-1.374065416702628,-0.6256821675926446
1772786306868289800,5.423289794921875,1.0770388648927212,-1.4146446798503398,-0.5446947235478088
1772786306878305800,5.433305908203125,1.1152671810001134,-1.266816463600099,-0.2668394302736968
1772786306888321500,5.443321533203125,0.8490279816418885,-1.1320132947482169,-0.007351495273970067
1772786306898337500,5.453337646484375,0.428462728446722,-1.1401746085677296,0.0936557504273951
1772786306908353500,5.463353515625,-0.06591068828105927,-1.2038649904508143,0.02429813656285405
1772786306918369800,5.473369873046875,-0.47908173957169053,-1.220495076603815,-0.12858674202244727
1772786306928385800,5.4833857421875,-0.6780395468175411,-1.1677147957917302,-0.25877142076082527
1772786306938401800,5.49340185546875,-0.7298685182541609,-1.105833363026753,-0.2882345388714224
1772786306948417500,5.50341748046875,-0.6925795288234948,-1.0551412866655736,-0.2730841333495453
1772786306958433500,5.51343359375,-0.6056371584296226,-1.012018549580127,-0.3165598851237446
1772786306968449500,5.523449462890625,-0.4101426433801651,-0.987712814232707,-0.35167164011318236
1772786306978465800,5.5334658203125,-0.14727613532543182,-0.8688832403864711,-0.34522772467080504
1772786306988481800,5.543481689453125,0.10408522837460041,-0.798434251088649,-0.30382790238782764
1772786306998497800,5.553497802734375,0.31418343831598755,-0.7824286535095423,-0.22782891428004948
1772786307008513800,5.563513671875,0.4651280330210924,-0.8124996013201773,-0.1799698328550905
1772786307018529500,5.573529541015625,0.42630467362999913,-0.8940046029657125,-0.24871928822603076
1772786307028545500,5.583545654296875,0.04794190087020397,-1.0082993098612874,-0.4668672779038548
1772786307038561500,5.5935615234375,-0.4506318901568651,-1.0444020851820706,-0.6130341368131339
1772786307048577800,5.603577880859375,-0.781758279967308,-1.0424089386034756,-0.6476713696260005
1772786307058593800,5.61359375,-0.9313274946659803,-1.00371578146331,-0.5736850730475038
1772786307068609800,5.62360986328125,-0.8842126922696828,-0.9467731202747672,-0.41014724649004636
1772786307078625800,5.633625732421875,-0.7913976304501295,-0.8390088380612433,-0.21256869170814752
1772786307088641500,5.6436416015625,-0.8672504515528678,-0.6336177828975021,-0.13808171559851615
1772786307098657500,5.653657470703125,-0.9898726226150989,-0.22843151981569826,-0.09005093086846172
1772786307108673500,5.663673583984375,-1.2223311329245568,0.3200914202507585,0.1012079193726182
1772786307118689800,5.673689697265625,-1.5825649592757225,0.6816886439096183,0.35740536145959045
1772786307128705800,5.683705810546875,-2.0015888282477854,0.6333302711930126,0.575745147382468
1772786307138721800,5.6937216796875,-2.3844372219890353,0.6138640117660165,0.7467279561836272
1772786307148737800,5.70373779296875,-2.7518168284416196,0.9432051986601203,0.9159863523449748
1772786307158753500,5.71375341796875,-2.9166040705382823,1.611344771297276,1.0948214820817113
1772786307168769500,5.72376953125,-2.6202146475881336,2.2755779110804197,1.2495805205084383
1772786307178785800,5.733785888671875,-2.0529180334687234,2.667437878794968,1.3209940439894794
1772786307188801800,5.7438017578125,-1.375398711133003,2.749070744603872,1.268188190344721
1772786307198817800,5.75381787109375,-0.6090899292320012,2.6728175260066984,1.135232987447083
1772786307208833800,5.763833740234375,0.1924672761827707,2.565505736801028,0.9932102426052093
1772786307218849500,5.773849609375,0.9194429956048726,2.4802555572777987,0.8016236947797238
1772786307228865500,5.783865478515625,1.505867504042387,2.3320501782782372,0.4101116271873936
1772786307238881500,5.793881591796875,1.9996996535003184,2.3848308974817396,-0.06440583667606115
1772786307248897800,5.803897705078125,2.209082408648729,2.2162485008858144,-0.7910476479686797
1772786307258913800,5.813913818359375,2.167870108294487,2.0741057829260825,-1.7003956582777202
1772786307268929800,5.8239296875,1.9476596696615218,1.9113444936990738,-2.6967396688640117
1772786307278945800,5.83394580078125,1.5207079302996396,1.6062784278184175,-3.7173067049503326
1772786307288961500,5.84396142578125,1.140545999163389,1.3266254740051924,-4.426391962894797
1772786307298977500,5.8539775390625,0.815074858635664,1.0376921392146496,-4.200157441666722
1772786307308993500,5.86399365234375,0.14104863911271096,0.7836840603981167,-3.4874449331358073
1772786307319009800,5.874009765625,-0.6070300740927458,0.6434943031370639,-2.9662387468010185
1772786307329025800,5.88402587890625,-0.9871616100907326,0.48356177106257525,-2.1420025304578245
1772786307339041800,5.894041748046875,-1.1546487587958574,0.49264571615234015,-0.9794919522456824
1772786307349057800,5.904057861328125,-1.2095453011095523,0.523728982810676,0.0064331017874181265
1772786307359073500,5.914073486328125,-1.217968261539936,0.6534003417320549,0.6520541878201067
1772786307369089500,5.924089599609375,-0.9861527253091334,0.4713780333265662,1.0464850289359688
1772786307379105500,5.93410546875,-0.5892383968144654,0.05186952264271676,1.15453667672351
1772786307389121800,5.944121826171875,-0.30857611982822414,-0.23630583338737488,0.8697613383952528
1772786307399137800,5.9541376953125,0.04632978949844837,-0.4464680484756827,0.35938510056734085
1772786307409153800,5.96415380859375,0.5316664978116751,-0.6077663890106603,-0.11330401535779237
1772786307419169800,5.974169677734375,0.8840805903226137,-0.7447807676386088,-0.458209631934762
1772786307429185500,5.984185546875,1.0414011498004196,-0.818001998128742,-0.6883009747214615
1772786307439201500,5.994201416015625,1.0284376233309507,-0.8679974705278873,-0.8121333983562886
1772786307449217800,6.0042177734375,0.7927993139415979,-0.9703259914282709,-0.900034092388302
1772786307459233800,6.01423388671875,0.5419903234273195,-1.084106465191394,-1.0309550129793583
1772786307469249800,6.024249755859375,0.45074762549102304,-1.1933842937730252,-1.0890387339618057
1772786307479265800,6.034265869140625,0.5010013104349375,-1.2921385363832116,-1.0639216091662644
1772786307489281500,6.044281494140625,0.7370639827162027,-1.3599547660246492,-1.0062659043375402
1772786307499297500,6.054297607421875,0.991060371094942,-1.461992998741567,-0.9998163628719746
1772786307509313500,6.0643134765625,1.1759177567958832,-1.597415030144155,-1.1029787773132325
1772786307519329800,6.074329833984375,1.1248311281591654,-1.7859136949568986,-1.2167137314341963
1772786307529345800,6.084345703125,0.8850842144072055,-1.8845244374431669,-1.3375345521628856
1772786307539361800,6.09436181640625,0.728260498535633,-1.8436811165317892,-1.3660909306921063
1772786307549377800,6.104377685546875,0.7240127779632807,-1.7339096592143177,-1.2941639047309756
1772786307559393500,6.1143935546875,0.6851748055249453,-1.6464473565995692,-1.1541633133664726
1772786307569409500,6.124409423828125,0.6149690503984689,-1.4860525042429567,-0.9102806149840355
1772786307579425500,6.134425537109375,0.39543957976698874,-1.1986229250788687,-0.7372039757087826
1772786307589441800,6.14444189453125,0.275595641246438,-0.9350798329368233,-0.6473303741686046
1772786307599457800,6.154457763671875,0.3249123376011848,-0.7126410507299006,-0.6326628202602267
1772786307609473800,6.164473876953125,0.5378922404587269,-0.5676751285756007,-0.7361836196850985
1772786307619489800,6.17448974609375,0.6761644005954265,-0.5417702874684706,-0.8937314120475203
1772786307629505300,6.18450537109375,0.5935656123638152,-0.6165455790001899,-1.078697884146124
1772786307639521000,6.19452099609375,0.39528292790055275,-0.6231267109561711,-1.2680579880937932
1772786307649537300,6.204537353515625,0.176599260443449,-0.5897453964885324,-1.4250684587091207
1772786307659553300,6.21455322265625,0.012492401826381682,-0.5230129069631919,-1.5483726206861435
1772786307669569300,6.2245693359375,-0.03194236770570278,-0.5806172469308599,-1.690418892534077
1772786307679585300,6.234585205078125,0.13032675409018993,-0.8336100477576255,-1.8957102867156266
1772786307689601300,6.244601318359375,0.4216185616403818,-1.1185831006150693,-2.106232859548926
1772786307699617000,6.254616943359375,0.7027221526533365,-1.288864337018132,-2.2163982846200465
1772786307709633000,6.264633056640625,0.8558581199228763,-1.4782218106172977,-2.223890978462994
1772786307719649300,6.274649169921875,0.9690332482039928,-1.6606988770529627,-2.253908515585959
1772786307729665300,6.284665283203125,0.9008195436775683,-1.8748203511610626,-2.467878890785575
1772786307739681300,6.294681396484375,0.4140273758590221,-1.5798868261076509,-2.9894854746147987
1772786307749697300,6.304697265625,-0.1749140838354826,-1.4308166469722985,-3.9296512325137853
1772786307759713300,6.31471337890625,-1.0314069945305586,-1.3602312448784708,-4.709038691696525
1772786307769729000,6.32472900390625,-1.9271967273473738,-0.4153086843738332,-4.048333141517639
1772786307779745300,6.334745361328125,-2.7546348084717986,1.7482734078705309,-1.8209804782934487
1772786307789761300,6.34476123046875,-3.686272099739313,2.7543796646669505,0.13609277027100325
1772786307799777300,6.35477734375,-3.8970705669045445,3.206286689326167,1.7421344667240977
1772786307809793300,6.364793212890625,-3.2481606684595343,3.365625018367171,3.115326023201644
1772786307819809300,6.374809326171875,-2.4564433045357466,3.0061142455935475,3.908379019643366
1772786307829825300,6.3848251953125,-1.9163854104757307,2.484346625983715,3.997449926498532
1772786307839841000,6.394841064453125,-1.1614800661206244,1.6324663236506283,3.179973851940036
1772786307849857300,6.404857177734375,-0.4608744672298431,0.7474152808606624,1.9617332031995056
1772786307859873300,6.414873291015625,0.1302887601673603,0.21280447322539983,0.8256621574930846
1772786307869889300,6.42488916015625,0.5177993005007505,-0.074555214473675,-0.05604081697799265
1772786307879905300,6.4349052734375,0.6076560970366001,-0.16708207503557204,-0.7214614860452712
1772786307889921300,6.44492138671875,0.49280923615098,-0.0008933366771088913,-1.2056499011062085
1772786307899937300,6.454937255859375,0.41134558942914007,0.0844784370989073,-1.4538776429556308
1772786307909953000,6.464953125,0.5838835917830467,0.3759786175696179,-0.8656390708334744
1772786307919969300,6.47496923828125,1.0228653761565685,0.42535541008114813,-0.6315234409667552
1772786307929985300,6.4849853515625,1.3941156865626572,0.5663346006868407,-0.4556532985154539
1772786307940001300,6.495001220703125,1.7904928394407034,0.7575389077290892,-0.21106002244455738
1772786307950017300,6.505017333984375,2.0938842501074073,0.8110225145049392,0.10065291583836078
1772786307960033300,6.515033203125,2.0470833359658718,0.8662584448408335,0.4675564292117953
1772786307970049000,6.525049072265625,1.712577240589261,1.1007588362414389,0.7424781167194247
1772786307980065000,6.53506494140625,1.5002975949555635,1.439368056087941,1.100196380053088
1772786307990081300,6.545081298828125,1.3512842605739832,1.776016131929308,1.5834980023421346
1772786308000097300,6.55509716796875,1.0488245777994394,2.179163947986066,1.9906851569175719
1772786308010113300,6.56511328125,0.7067600298672914,2.731049934744835,2.3506666159428655
1772786308020129300,6.57512939453125,0.2051993319839239,2.993004004129767,2.3793260164551437
1772786308030145300,6.585145263671875,0.015230302357673644,2.553245390164852,2.4362157784126697
1772786308040161000,6.5951611328125,0.8650760301232338,2.037380857118964,1.939356974609941
1772786308050177300,6.60517724609375,1.069769166150689,1.2765858702033757,1.1914967264607548
1772786308060193300,6.615193359375,1.035714336335659,0.6752567842312157,0.6998119642950594
1772786308070209300,6.625209228515625,0.5231038366496563,0.039531251932121814,0.3542013777865097
1772786308080225300,6.635225341796875,-0.7391963185697793,-0.7886177904732525,-0.05917023757752031
1772786308090241300,6.6452412109375,-0.45188685865402217,-0.7609381947785615,-0.5139221668064594
1772786308100257300,6.65525732421875,0.7408592833459376,-0.27697642808035017,-0.8147069021061062
1772786308110273000,6.66527294921875,1.1758487832129,0.00029744857661426064,-0.9974446653045713
1772786308120289300,6.675289306640625,0.7519231136739254,-0.34441797919049855,-0.8658091667033732
1772786308130305300,6.68530517578125,0.7451233705312014,-0.4816088468965143,-0.5861608160000294
1772786308140322300,6.695322265625,0.7697919478416443,-0.49837264243178064,-0.3215752290677279
1772786308150337300,6.705337158203125,0.6580564969748258,-0.7297272831525653,-0.3992501875637099
1772786308160354000,6.71535400390625,0.2224228539854288,-0.7501371801052242,-0.16210655164532362
1772786308170369000,6.725369140625,0.32015900559425353,-0.5803972840372472,0.02119699220973998
1772786308180385000,6.735385009765625,0.7530646849244833,-0.5143734177052974,0.3158531616264954
1772786308190401300,6.7454013671875,0.5166361019402742,-0.38167102052494883,0.8913707473307847
1772786308200417300,6.755417236328125,-0.15630758304297923,-0.30338264283835886,1.0214170770443975
1772786308210434300,6.765434326171875,-0.5172796605408191,-0.30627588006183504,0.8653772050268947
1772786308220449300,6.77544921875,-0.22969313724935053,-0.18155629832893608,0.7269569416563958
1772786308230466000,6.785466064453125,0.15192892956733703,-0.08761413217559456,0.7310371236421167
1772786308240481000,6.79548095703125,0.7371557526528835,-0.07797975012883543,0.6897562150310724
1772786308250497300,6.805497314453125,1.0382260268956423,-0.3290457841441035,0.9890592604056
1772786308260513300,6.81551318359375,0.7344213592529296,-0.7236192486010491,1.0485602277748287
1772786308270530300,6.8255302734375,-0.1754793165028095,-0.6440085362695157,0.6972165409743786
1772786308280546300,6.83554638671875,-1.0677280157119036,-0.7411388309396802,0.34373942234180865
1772786308290561300,6.845561279296875,-1.3996154530227183,-0.9804502758838236,0.11521598645895718
1772786308300578000,6.855578125,-1.5071815092504024,-1.0122732549935578,-0.17914120001122355
1772786308310594300,6.86559423828125,-1.5839374166727065,-0.8101293650574982,-0.34122276334576307
1772786308320610300,6.8756103515625,-0.7533604530006647,-0.2655304665669799,0.24483897619396447
1772786308330626300,6.885626220703125,0.28597908809483047,-0.5774161493346095,0.5525721423920243
1772786308340642300,6.895642333984375,-1.2802063987880945,-1.2551916383884847,-0.6074195848669857
1772786308350658300,6.905658203125,-0.36644144881963725,-0.6460138847425579,-0.7978805627286434
1772786308360674000,6.915674072265625,0.28258301591575147,-0.6736077018499373,0.14938720919527113
1772786308370690000,6.92568994140625,-0.2721884631514549,-0.5393216887399553,0.2018840334234759
1772786308380706300,6.935706298828125,-0.1237701720535755,-0.7549066595293581,0.04541939665526151
1772786308390722300,6.945722412109375,-0.16805647302567958,-0.9432092172481119,0.29663645651377735
1772786308400738300,6.95573828125,-0.5611527045369148,-0.9069187373355031,0.1578229925746098
1772786308410754300,6.96575439453125,-0.7865332392841577,-0.9088549660950899,0.1323942080140114
1772786308420770000,6.97577001953125,-0.5372638794273138,-0.7442635388314723,0.21108981479462235
1772786308430786000,6.9857861328125,-0.2734802565276623,-0.5596665576323866,0.21121329504381864
1772786308440802300,6.99580224609375,0.17571429430246352,-0.46312166163474316,0.1357206124903634
1772786308450818300,7.005818359375,0.4024117568671703,-0.43988224034458395,-0.07331767660193145
1772786308460834300,7.015834228515625,0.09338613970577717,-0.5863290852390229,-0.4637128689935431
1772786308470850300,7.025850341796875,-0.6816998228907585,-0.386192443472147,-0.49538599130380895
1772786308480866300,7.0358662109375,-0.9240566268801689,-0.3966900182195008,-0.5624194365371018
1772786308490882000,7.045882080078125,-0.41449323980510233,-0.7774282879389822,-1.0864181761998684
1772786308500898000,7.05589794921875,0.011796236255764961,-1.10471772993505,-1.3664382828250528
1772786308510914300,7.065914306640625,0.5490647918581962,-1.3388545487202703,-1.5690414608359335
1772786308520930300,7.075930419921875,0.8143973977655172,-1.4738010715655983,-1.6749417758084832
1772786308530946300,7.0859462890625,0.44826808363497256,-1.3890391139507292,-1.8595912178471683
