time,seconds_elapsed,z,y,x
1772786301499703300,0.054703369140625,-0.20993100106716156,0.07909440994262695,0.26450225710868835
1772786301509719000,0.064718994140625,-0.14994190633296967,0.10165785253047943,0.2836909294128418
1772786301519735300,0.0747353515625,-0.10788899660110474,0.12496956437826157,0.25802579522132874
1772786301529751300,0.084751220703125,-0.07816078513860703,0.13371634483337402,0.2224275767803192
1772786301539767300,0.094767333984375,-0.044820938259363174,0.1262323260307312,0.18428391218185425
1772786301549783300,0.104783203125,-0.010471232235431671,0.1190638318657875,0.14713813364505768
1772786301559799300,0.11479931640625,0.022181786596775055,0.11832320690155029,0.12136725336313248
1772786301569815000,0.12481494140625,0.06324183940887451,0.10806646198034286,0.1075068786740303
1772786301579831000,0.1348310546875,0.09496035426855087,0.12222888320684433,0.11495707184076309
1772786301589847300,0.144847412109375,0.12490057200193405,0.136155903339386,0.14291121065616608
1772786301599863300,0.15486328125,0.14780856668949127,0.1568443924188614,0.17894750833511353
1772786301609879300,0.16487939453125,0.15762440860271454,0.17411750555038452,0.2150464951992035
1772786301619895000,0.17489501953125,0.15615354478359222,0.1888357251882553,0.24910326302051544
1772786301629911000,0.1849111328125,0.17053543031215668,0.20333324372768402,0.2843230664730072
1772786301639926800,0.1949267578125,0.19858144223690033,0.185475155711174,0.3003110885620117
1772786301649942800,0.20494287109375,0.23205426335334778,0.14219222962856293,0.28764259815216064
1772786301659958800,0.214958740234375,0.2544868588447571,0.10389969497919083,0.2502121329307556
1772786301669975000,0.22497509765625,0.2722748816013336,0.09494969248771667,0.20259299874305725
1772786301679991000,0.234990966796875,0.300972580909729,0.0987689346075058,0.1674288809299469
1772786301690007000,0.245007080078125,0.3494672477245331,0.12323221564292908,0.15602430701255798
1772786301700023000,0.25502294921875,0.40774837136268616,0.15388520061969757,0.15632417798042297
1772786301710038800,0.265038818359375,0.45572516322135925,0.19505420327186584,0.1714804470539093
1772786301720054800,0.2750546875,0.4799748659133911,0.17725177109241486,0.2014220952987671
1772786301730070800,0.28507080078125,0.4906363785266876,0.19339416921138763,0.25876370072364807
1772786301740087000,0.295087158203125,0.5176581144332886,0.24049164354801178,0.32435521483421326
1772786301750103000,0.30510302734375,0.5473591089248657,0.20885121822357178,0.37648552656173706
1772786301760119000,0.315119140625,0.5853988528251648,0.21798719465732574,0.41414421796798706
1772786301770135000,0.325135009765625,0.6142919063568115,0.21448637545108795,0.42335245013237
1772786301780151800,0.33515185546875,0.5795443058013916,0.06292348355054855,0.3807067275047302
1772786301790168000,0.34516796875,0.4668484628200531,-0.21951837837696075,0.2990069091320038
1772786301800184000,0.35518408203125,0.35940083861351013,-0.3791924715042114,0.2277793288230896
1772786301810200000,0.365199951171875,0.33876925706863403,-0.3296314477920532,0.17071545124053955
1772786301820216000,0.375216064453125,0.4503413438796997,-0.14994849264621735,0.11137223243713379
1772786301830231800,0.385231689453125,0.6412325501441956,0.04919779673218727,0.10172756761312485
1772786301840247800,0.395247802734375,0.789221465587616,0.18066473305225372,0.17425130307674408
1772786301850263800,0.405263916015625,0.8059172630310059,0.24768246710300446,0.2395729422569275
1772786301860280000,0.415280029296875,0.6513726711273193,0.17112722992897034,0.2188681960105896
1772786301870296000,0.425296142578125,0.4409712851047516,0.08164091408252716,0.17832964658737183
1772786301880312000,0.43531201171875,0.3046150505542755,0.018532251939177513,0.20657752454280853
1772786301890327800,0.445327880859375,0.2535357177257538,0.045081380754709244,0.2943456172943115
1772786301900343800,0.45534375,0.2515338361263275,0.08133897930383682,0.37514805793762207
1772786301910359800,0.46535986328125,0.27332669496536255,0.07218583673238754,0.4184475541114807
1772786301920375800,0.475375732421875,0.29102712869644165,0.03677618131041527,0.41662299633026123
1772786301930392000,0.48539208984375,0.27393877506256104,-0.02337934449315071,0.37692880630493164
1772786301940408000,0.495407958984375,0.2159140706062317,-0.07569608092308044,0.32887473702430725
1772786301950424000,0.505424072265625,0.16229259967803955,-0.09669330716133118,0.28502485156059265
1772786301960439800,0.515439697265625,0.13220447301864624,-0.09980254620313644,0.24644283950328827
1772786301970455800,0.525455810546875,0.14240682125091553,-0.128790020942688,0.19378013908863068
1772786301980471800,0.535471923828125,0.1876523345708847,-0.18475528061389923,0.12639710307121277
1772786301990488000,0.545488037109375,0.23296944797039032,-0.23415809869766235,0.06631063669919968
1772786302000504000,0.555504150390625,0.25129199028015137,-0.26952967047691345,0.024428701028227806
1772786302010520000,0.56552001953125,0.2402792125940323,-0.3194456994533539,-0.006795854773372412
1772786302020536000,0.5755361328125,0.23689940571784973,-0.3502289056777954,-0.021621938794851303
1772786302030551800,0.5855517578125,0.24714449048042297,-0.357982337474823,-0.028688298538327217
1772786302040567800,0.59556787109375,0.25063270330429077,-0.31629082560539246,-0.02617880143225193
1772786302050583800,0.605583740234375,0.24735777080059052,-0.2745976448059082,-0.04995400086045265
1772786302060600000,0.61560009765625,0.24627678096294403,-0.23521961271762848,-0.11037207394838333
1772786302070616000,0.625615966796875,0.25327277183532715,-0.22183401882648468,-0.20012152194976807
1772786302080632000,0.635632080078125,0.25582194328308105,-0.15917809307575226,-0.24650952219963074
1772786302090647800,0.645647705078125,0.26021137833595276,-0.11040648818016052,-0.25337299704551697
1772786302100663800,0.655663818359375,0.2606870234012604,-0.069107785820961,-0.2436942756175995
1772786302110679800,0.6656796875,0.26226919889450073,-0.040252938866615295,-0.23073360323905945
1772786302120697000,0.675697021484375,0.2665203809738159,-0.0040533896535634995,-0.2212066799402237
1772786302130713000,0.685713134765625,0.2794194519519806,0.024076931178569794,-0.2194230705499649
1772786302140728800,0.695728759765625,0.2905120551586151,0.02976624295115471,-0.21604804694652557
1772786302150744800,0.705744873046875,0.290822833776474,0.033559650182724,-0.21427518129348755
1772786302160760800,0.7157607421875,0.28019335865974426,0.05028429999947548,-0.20961199700832367
1772786302170776800,0.72577685546875,0.25999656319618225,0.039443232119083405,-0.21679367125034332
1772786302180793000,0.73579296875,0.24258722364902496,0.04375142976641655,-0.22509288787841797
1772786302190809000,0.74580908203125,0.23130960762500763,-0.000006280839443206787,-0.24203838407993317
1772786302200825000,0.7558251953125,0.24154654145240784,-0.018938694149255753,-0.23820875585079193
1772786302210840800,0.7658408203125,0.27692949771881104,-0.0511428602039814,-0.24875374138355255
1772786302220856800,0.77585693359375,0.2959545850753784,-0.027822358533740044,-0.2260867804288864
1772786302230872800,0.785872802734375,0.28707337379455566,0.018207259476184845,-0.18096835911273956
1772786302240888800,0.795888916015625,0.27894511818885803,0.025201786309480667,-0.1523846536874771
1772786302250905000,0.805905029296875,0.2900896668434143,0.008721974678337574,-0.14354336261749268
1772786302260921000,0.815921142578125,0.316860556602478,-0.034272365272045135,-0.15283672511577606
1772786302270937000,0.82593701171875,0.3165343999862671,-0.04554268345236778,-0.10108648240566254
1772786302280952800,0.835952880859375,0.297862708568573,-0.07698129117488861,-0.03799646347761154
1772786302290968800,0.84596875,0.2851327061653137,-0.10471981018781662,0.016163788735866547
1772786302300984800,0.85598486328125,0.27281397581100464,-0.10708123445510864,0.0710025429725647
1772786302311000800,0.866000732421875,0.2420061081647873,-0.09257016330957413,0.11478838324546814
1772786302321017000,0.87601708984375,0.20214524865150452,-0.06697558611631393,0.13675333559513092
1772786302331033000,0.886033203125,0.15569733083248138,-0.048881541937589645,0.13614188134670258
1772786302341048800,0.896048828125,0.11128512769937515,-0.05582573264837265,0.1341807246208191
1772786302351064800,0.90606494140625,0.055762894451618195,-0.1101854145526886,0.13556581735610962
1772786302361080800,0.916080810546875,-0.0059531987644732,-0.1811099350452423,0.1589379906654358
1772786302371096800,0.926096923828125,-0.060129158198833466,-0.22432033717632294,0.21678592264652252
1772786302381113000,0.936113037109375,-0.07141350209712982,-0.2342986762523651,0.2876097559928894
1772786302391129000,0.946129150390625,-0.029239431023597717,-0.19329111278057098,0.3491884171962738
1772786302401145000,0.95614501953125,0.05402270331978798,-0.09215597808361053,0.3851032853126526
1772786302411160800,0.966160888671875,0.12268325686454773,0.062326572835445404,0.37909719347953796
1772786302421176800,0.9761767578125,0.1198565810918808,0.25599244236946106,0.3324412703514099
1772786302431192800,0.98619287109375,0.10175815969705582,0.5699405074119568,0.18629829585552216
1772786302441208800,0.996208740234375,0.1649741530418396,0.888068675994873,-0.002211696933954954
1772786302451225000,1.00622509765625,0.2599031329154968,0.9403868913650513,-0.11206996440887451
1772786302461241000,1.016240966796875,0.3416491448879242,0.8012170195579529,-0.06457967311143875
1772786302471257000,1.026257080078125,0.3836562931537628,0.5861338973045349,0.1074792668223381
1772786302481272800,1.03627294921875,0.39497098326683044,0.29126015305519104,0.3167312741279602
1772786302491289900,1.046289794921875,0.39879316091537476,0.03169823810458183,0.4436885416507721
1772786302501305900,1.056305908203125,0.39946669340133667,-0.12209159135818481,0.4923551380634308
1772786302511322000,1.066322021484375,0.3523413836956024,-0.13579212129116058,0.4562456011772156
1772786302521338000,1.076338134765625,0.26600968837738037,-0.04081127792596817,0.33326029777526855
1772786302531353900,1.086353759765625,0.15122905373573303,0.0736338347196579,0.1827162206172943
1772786302541369900,1.096369873046875,0.04073316603899002,0.17033162713050842,0.05308045446872711
1772786302551385900,1.1063857421875,-0.02352667599916458,0.22351813316345215,-0.014053027145564556
1772786302561401900,1.11640185546875,-0.034142568707466125,0.2108963429927826,-0.0035748197697103024
1772786302571418000,1.126418212890625,0.005956719163805246,0.11963576823472977,0.05177437514066696
1772786302581434000,1.13643408203125,0.051554564386606216,0.06868257373571396,0.1647249013185501
1772786302591449900,1.146449951171875,0.0924111157655716,-0.033386312425136566,0.2923732399940491
1772786302601465900,1.1564658203125,0.14137467741966248,-0.16996225714683533,0.37129148840904236
1772786302611481900,1.16648193359375,0.19577455520629883,-0.25084978342056274,0.3920769989490509
1772786302621498000,1.176498046875,0.24137000739574432,-0.2995763123035431,0.35052183270454407
1772786302631514000,1.18651416015625,0.25733694434165955,-0.31750407814979553,0.24435175955295563
1772786302641530000,1.196530029296875,0.2551787197589874,-0.29393139481544495,0.10369637608528137
1772786302651546000,1.206546142578125,0.25495192408561707,-0.22217091917991638,-0.04958290979266167
1772786302661561900,1.216561767578125,0.25843295454978943,-0.1377769410610199,-0.19141913950443268
1772786302671578000,1.226578125,0.26743772625923157,-0.06759805232286453,-0.32145100831985474
1772786302681594000,1.236593994140625,0.29920923709869385,-0.010587232187390327,-0.4227624535560608
1772786302691610000,1.246610107421875,0.38504931330680847,0.027504226192831993,-0.475087434053421
1772786302701626000,1.256626220703125,0.5161663293838501,0.055630140006542206,-0.4778035879135132
1772786302711642000,1.26664208984375,0.6777530312538147,0.07128756493330002,-0.4551645517349243
1772786302721658000,1.276658203125,0.8227986097335815,0.07806877046823502,-0.43561801314353943
1772786302731673900,1.286673828125,0.8331421613693237,0.07193874567747116,-0.4444306492805481
1772786302741690000,1.296690185546875,0.724320113658905,0.06606408208608627,-0.4906522035598755
1772786302751706000,1.3067060546875,0.5448585152626038,0.08525263518095016,-0.557219386100769
1772786302761722000,1.31672216796875,0.3305038809776306,0.12176510691642761,-0.5997106432914734
1772786302771738000,1.326738037109375,0.11527616530656815,0.1511555314064026,-0.5870861411094666
1772786302781754000,1.336754150390625,-0.056776292622089386,0.1607586145401001,-0.5292471051216125
1772786302791769900,1.346769775390625,-0.17824788391590118,0.1460445076227188,-0.4551064074039459
1772786302801785900,1.356785888671875,-0.24768687784671783,0.10018860548734665,-0.37084823846817017
1772786302811802000,1.366802001953125,-0.2763577699661255,0.03397098928689957,-0.29007190465927124
1772786302821818000,1.376818115234375,-0.27482858300209045,-0.04261672869324684,-0.21918733417987823
1772786302831834000,1.386834228515625,-0.25445500016212463,-0.08796399086713791,-0.16406404972076416
1772786302841850000,1.39685009765625,-0.22138679027557373,-0.08728115260601044,-0.13017000257968903
1772786302851866000,1.4068662109375,-0.17371700704097748,-0.055568527430295944,-0.09606382995843887
1772786302861881900,1.4168818359375,-0.11863857507705688,-0.0013423042837530375,-0.07648081332445145
1772786302871898000,1.426898193359375,-0.066240593791008,0.05348138138651848,-0.08493905514478683
1772786302881914000,1.4369140625,-0.009837236255407333,0.09425598382949829,-0.12574639916419983
1772786302891930000,1.44693017578125,0.043873757123947144,0.13713255524635315,-0.17325007915496826
1772786302901946000,1.456946044921875,0.10010932385921478,0.18240709602832794,-0.21246591210365295
1772786302911963000,1.466962890625,0.15482772886753082,0.2294498234987259,-0.24554722011089325
1772786302921979000,1.476978759765625,0.2001858949661255,0.23561425507068634,-0.28608158230781555
1772786302931995100,1.4869951171875,0.23005422949790955,0.21411867439746857,-0.320730984210968
1772786302942011100,1.49701123046875,0.2302885800600052,0.1871270090341568,-0.32568100094795227
1772786302952027100,1.507027099609375,0.19599571824073792,0.17079392075538635,-0.2786986827850342
1772786302962043100,1.517043212890625,0.11797574907541275,0.1594557762145996,-0.20092079043388367
1772786302972059100,1.52705908203125,-0.0027877569664269686,0.12889699637889862,-0.1035386398434639
1772786302982075000,1.537074951171875,-0.14830288290977478,0.09264019131660461,-0.010753839276731014
1772786302992091000,1.5470908203125,-0.2994343042373657,0.06560875475406647,0.047436993569135666
1772786303002107100,1.557107177734375,-0.43805718421936035,0.023062093183398247,0.07549206167459488
1772786303012123100,1.567123046875,-0.575874388217926,-0.007688987534493208,0.08668864518404007
1772786303022139100,1.57713916015625,-0.7137337327003479,-0.01637968048453331,0.08357834070920944
1772786303032155100,1.587155029296875,-0.8487386703491211,-0.024665893986821175,0.07644010335206985
1772786303042171000,1.5971708984375,-0.9598939418792725,-0.046762142330408096,0.07725875824689865
1772786303052187000,1.607186767578125,-1.0346286296844482,-0.06381510943174362,0.10021750628948212
1772786303062203100,1.617203125,-1.0846904516220093,-0.06092637777328491,0.14676477015018463
1772786303072219100,1.62721923828125,-1.0950771570205688,-0.05938727408647537,0.21610921621322632
1772786303082235100,1.637235107421875,-1.045984148979187,-0.05210885405540466,0.30933985114097595
1772786303092251100,1.647251220703125,-0.9400689005851746,-0.026600776240229607,0.393390953540802
1772786303102267100,1.65726708984375,-0.8095202445983887,-0.000899674603715539,0.43723270297050476
1772786303112283000,1.667282958984375,-0.6857156753540039,-0.01830892823636532,0.4478336274623871
1772786303122299000,1.677298828125,-0.5942485928535461,-0.04401802271604538,0.43338385224342346
1772786303132315100,1.687315185546875,-0.5476740598678589,-0.022034883499145508,0.3870772123336792
1772786303142331100,1.6973310546875,-0.5603365898132324,0.03946629539132118,0.32563117146492004
1772786303152347100,1.70734716796875,-0.5954813957214355,0.13441070914268494,0.29109305143356323
1772786303162363100,1.717363037109375,-0.6363803744316101,0.25395071506500244,0.2886277735233307
1772786303172379100,1.727379150390625,-0.6681675910949707,0.36327314376831055,0.292561799287796
1772786303182395000,1.737394775390625,-0.7012613415718079,0.42993366718292236,0.3082488775253296
1772786303192411000,1.747410888671875,-0.7158905267715454,0.4303925931453705,0.3374958634376526
1772786303202427100,1.75742724609375,-0.7008844614028931,0.3525947332382202,0.36868464946746826
1772786303212443100,1.767443115234375,-0.6602228283882141,0.20397590100765228,0.4020763039588928
1772786303222459100,1.777459228515625,-0.6204309463500977,0.009379775263369083,0.43741244077682495
1772786303232475100,1.78747509765625,-0.5793247222900391,-0.20223857462406158,0.4787965714931488
1772786303242491000,1.797490966796875,-0.5431792736053467,-0.417000949382782,0.5125707387924194
1772786303252507000,1.8075068359375,-0.5177032351493835,-0.6276882886886597,0.5221951007843018
1772786303262523100,1.817523193359375,-0.5085440874099731,-0.7643835544586182,0.4899112284183502
1772786303272539100,1.8275390625,-0.5216728448867798,-0.7918641567230225,0.3952118456363678
1772786303282555100,1.83755517578125,-0.5625249147415161,-0.7479609251022339,0.2586857080459595
1772786303292571100,1.847571044921875,-0.6336297392845154,-0.617357611656189,0.10662602633237839
1772786303302587100,1.857587158203125,-0.7156221270561218,-0.38590893149375916,-0.051294632256031036
1772786303312603000,1.867602783203125,-0.8138192296028137,-0.11692656576633453,-0.18432208895683289
1772786303322619000,1.877618896484375,-0.9242226481437683,0.16844472289085388,-0.2665890157222748
1772786303332635100,1.88763525390625,-1.0147162675857544,0.4772777855396271,-0.30928611755371094
1772786303342651100,1.897651123046875,-1.1182551383972168,0.7106558680534363,-0.32037603855133057
1772786303352667100,1.907667236328125,-1.2290399074554443,0.8483473658561707,-0.28361502289772034
1772786303362683100,1.91768310546875,-1.3248324394226074,0.8722667694091797,-0.21401679515838623
1772786303372700000,1.927699951171875,-1.3919336795806885,0.800764799118042,-0.11108694225549698
1772786303382716000,1.9377158203125,-1.4347504377365112,0.7099243402481079,-0.02666740119457245
1772786303392732200,1.947732177734375,-1.4456238746643066,0.581591784954071,0.06455864012241364
1772786303402748200,1.957748046875,-1.418013334274292,0.41972219944000244,0.16297443211078644
1772786303412764200,1.96776416015625,-1.3426220417022705,0.21833118796348572,0.2501028776168823
1772786303422780200,1.9777802734375,-1.2250045537948608,0.015235872939229012,0.31505605578422546
1772786303432796000,1.9877958984375,-1.0752276182174683,-0.12575840950012207,0.3341729938983917
1772786303442812000,1.99781201171875,-0.908622145652771,-0.22223301231861115,0.3080979883670807
1772786303452828200,2.007828125,-0.7514560222625732,-0.27410778403282166,0.2528424859046936
1772786303462844200,2.01784423828125,-0.6279265880584717,-0.29121115803718567,0.20651468634605408
1772786303472860200,2.027860107421875,-0.5595458149909973,-0.29093271493911743,0.17923416197299957
1772786303482876200,2.037876220703125,-0.5280430316925049,-0.2655823528766632,0.15842634439468384
1772786303492892000,2.047891845703125,-0.527612030506134,-0.19971603155136108,0.12213058769702911
1772786303502908000,2.057907958984375,-0.5451827645301819,-0.12063053250312805,0.07080002129077911
1772786303512924000,2.067923828125,-0.5854284763336182,-0.04421953111886978,0.027646338567137718
1772786303522940200,2.077940185546875,-0.6345717906951904,0.035366907715797424,-0.0008289783145301044
1772786303532956200,2.0879560546875,-0.700869083404541,0.08792553842067719,-0.008094144985079765
1772786303542972200,2.09797216796875,-0.7798140048980713,0.12634509801864624,0.011875035241246223
1772786303552988200,2.10798828125,-0.8563582897186279,0.17102305591106415,0.05732371285557747
1772786303563004000,2.11800390625,-0.9286314249038696,0.1806599646806717,0.1255890429019928
1772786303573020000,2.12802001953125,-0.9628961086273193,0.1326884925365448,0.18346291780471802
1772786303583036000,2.138035888671875,-0.9609746336936951,0.08963369578123093,0.2500448524951935
1772786303593052200,2.14805224609375,-0.9168946146965027,0.038901299238204956,0.31179824471473694
1772786303603068200,2.158068115234375,-0.8404009342193604,-0.002317244652658701,0.3419542908668518
1772786303613084200,2.168084228515625,-0.7364999651908875,-0.037688836455345154,0.3378583490848541
1772786303623100700,2.1781005859375,-0.616757333278656,-0.06626322865486145,0.3009580969810486
1772786303633116700,2.18811669921875,-0.4972929358482361,-0.0765424594283104,0.24350705742835999
1772786303643133000,2.1981328125,-0.3914855420589447,-0.06421495229005814,0.16700349748134613
1772786303653149000,2.20814892578125,-0.3147662281990051,-0.006125160492956638,0.07863843441009521
1772786303663165000,2.2181650390625,-0.2655126750469208,0.056090280413627625,-0.011078139767050743
1772786303673181000,2.228180908203125,-0.22371721267700195,0.10908222198486328,-0.075895294547081
1772786303683196700,2.23819677734375,-0.19832690060138702,0.123550646007061,-0.0974557101726532
1772786303693212700,2.248212646484375,-0.1944945752620697,0.156014546751976,-0.060577623546123505
1772786303703228700,2.258228759765625,-0.22299757599830627,0.16961610317230225,0.008301039226353168
1772786303713245000,2.268244873046875,-0.28275492787361145,0.14649896323680878,0.0793168842792511
1772786303723261000,2.278260986328125,-0.34690621495246887,0.0699905976653099,0.11706293374300003
1772786303733277000,2.28827685546875,-0.4049725830554962,-0.07879986613988876,0.1409171223640442
1772786303743293000,2.29829296875,-0.45699450373649597,-0.24316589534282684,0.17056316137313843
1772786303753308700,2.30830859375,-0.49007144570350647,-0.34919920563697815,0.21420501172542572
1772786303763324700,2.31832470703125,-0.49245044589042664,-0.3460252285003662,0.2497456967830658
1772786303773340700,2.328340576171875,-0.5315098762512207,-0.21099917590618134,0.2265850305557251
1772786303783357000,2.33835693359375,-0.5794664621353149,0.1145605519413948,0.11168348789215088
1772786303793373000,2.348373046875,-0.6268185377120972,0.48055845499038696,-0.046414975076913834
1772786303803389000,2.358388916015625,-0.6172788143157959,0.7751871943473816,-0.17598281800746918
1772786303813404700,2.36840478515625,-0.5196292996406555,0.8893219828605652,-0.21531575918197632
1772786303823420700,2.378420654296875,-0.3500101566314697,0.886867344379425,-0.1766621172428131
1772786303833436700,2.388436767578125,-0.1282053142786026,0.7208072543144226,-0.08018516004085541
1772786303843452700,2.39845263671875,0.06518945842981339,0.4671792984008789,0.1263994425535202
1772786303853470000,2.408469970703125,0.1409977376461029,0.17486020922660828,0.32641860842704773
1772786303863485700,2.418485595703125,0.15156063437461853,-0.09953086823225021,0.44514286518096924
1772786303873501700,2.428501708984375,0.08485566079616547,-0.3259812593460083,0.4206013083457947
1772786303883517700,2.438517578125,-0.06213751807808876,-0.43294525146484375,0.28435131907463074
1772786303893533700,2.44853369140625,-0.24647553265094757,-0.45801472663879395,0.13998574018478394
1772786303903550000,2.458550048828125,-0.4184419512748718,-0.43618664145469666,0.02181701734662056
1772786303913566000,2.46856591796875,-0.5358554720878601,-0.39944154024124146,-0.03087674267590046
1772786303923582000,2.47858203125,-0.5818650126457214,-0.4076419472694397,-0.0015798398526385427
1772786303933597700,2.48859765625,-0.5893751382827759,-0.3860674202442169,0.06832121312618256
1772786303943613700,2.49861376953125,-0.5912867784500122,-0.32927656173706055,0.13554206490516663
1772786303953629700,2.508629638671875,-0.584675133228302,-0.26736438274383545,0.1848127245903015
1772786303963645700,2.518645751953125,-0.5598943829536438,-0.19912461936473846,0.2180633544921875
1772786303973662000,2.528661865234375,-0.5188005566596985,-0.08241720497608185,0.23126685619354248
1772786303983678000,2.538677978515625,-0.4591897130012512,0.07212922722101212,0.20383763313293457
1772786303993694000,2.54869384765625,-0.3899303674697876,0.2637561857700348,0.1386525183916092
1772786304003709700,2.558709716796875,-0.3583924174308777,0.4542379677295685,0.04091370850801468
1772786304013725700,2.5687255859375,-0.3706352114677429,0.6250070333480835,-0.0887572318315506
1772786304023741700,2.57874169921875,-0.4057508409023285,0.7421280741691589,-0.24535882472991943
1772786304033758000,2.588758056640625,-0.4445415139198303,0.7788934111595154,-0.41947656869888306
1772786304043774000,2.59877392578125,-0.47046977281570435,0.706818163394928,-0.5778419971466064
1772786304053790000,2.6087900390625,-0.4736972451210022,0.5956100821495056,-0.6894075274467468
1772786304063805700,2.6188056640625,-0.4423840641975403,0.47985899448394775,-0.7414278984069824
1772786304073821700,2.62882177734375,-0.3722086250782013,0.37582191824913025,-0.7152713537216187
1772786304083837700,2.638837646484375,-0.2777146100997925,0.326519638299942,-0.6234663128852844
1772786304093853700,2.648853759765625,-0.20537681877613068,0.31340792775154114,-0.5064682364463806
1772786304103870000,2.658869873046875,-0.2556469142436981,0.2516329884529114,-0.3849729895591736
1772786304113886000,2.668885986328125,-0.41515788435935974,0.15090245008468628,-0.324093222618103
1772786304123902000,2.67890185546875,-0.6167477369308472,0.05504888296127319,-0.33174368739128113
1772786304133917700,2.688917724609375,-0.8109995722770691,0.0010989189613610506,-0.3585779368877411
1772786304143933700,2.69893359375,-0.9863295555114746,-0.007607487495988607,-0.3633180856704712
1772786304153949700,2.70894970703125,-1.1287992000579834,-0.00006889598444104195,-0.3526547849178314
1772786304163965700,2.718965576171875,-1.2268445491790771,0.004056606907397509,-0.3367288112640381
1772786304173982000,2.72898193359375,-1.2633346319198608,0.007822231389582157,-0.31587284803390503
1772786304183998000,2.738998046875,-1.2529453039169312,-0.0005488824099302292,-0.2841191589832306
1772786304194014000,2.749013916015625,-1.2036962509155273,-0.025852099061012268,-0.24878095090389252
1772786304204029700,2.75902978515625,-1.14385986328125,-0.03777693212032318,-0.21252574026584625
1772786304214045700,2.769045654296875,-1.0926707983016968,-0.014387078583240509,-0.19311681389808655
1772786304224061700,2.779061767578125,-1.0516386032104492,0.05227610468864441,-0.18661735951900482
1772786304234077700,2.78907763671875,-1.0178204774856567,0.16170205175876617,-0.17739196121692657
1772786304244094000,2.799093994140625,-0.9899206161499023,0.2662135660648346,-0.17880688607692719
1772786304254110000,2.80910986328125,-0.9505236744880676,0.339610755443573,-0.19373328983783722
1772786304264125700,2.819125732421875,-0.8783623576164246,0.38798442482948303,-0.2099607288837433
1772786304274141700,2.8291416015625,-0.7864980101585388,0.41290339827537537,-0.2212720662355423
1772786304284157700,2.83915771484375,-0.7076181173324585,0.43427953124046326,-0.2219809889793396
1772786304294173700,2.849173583984375,-0.6601850390434265,0.48131948709487915,-0.1943945288658142
1772786304304190000,2.85918994140625,-0.6586737036705017,0.5169981122016907,-0.12831804156303406
1772786304314206000,2.8692060546875,-0.7006794810295105,0.521615743637085,-0.025903530418872833
1772786304324222000,2.879221923828125,-0.7939655184745789,0.49246907234191895,0.09356986731290817
1772786304334237700,2.88923779296875,-0.9119642972946167,0.43902310729026794,0.2070447951555252
1772786304344253700,2.899253662109375,-1.04157292842865,0.3620971739292145,0.2818963825702667
1772786304354269700,2.909269775390625,-1.1641547679901123,0.2677590847015381,0.2991185784339905
1772786304364285700,2.91928564453125,-1.2734216451644897,0.17807447910308838,0.26372623443603516
1772786304374302000,2.929302001953125,-1.3740394115447998,0.08660948276519775,0.1955985128879547
1772786304384318000,2.93931787109375,-1.4613993167877197,-0.008932756260037422,0.14628902077674866
1772786304394334700,2.949334716796875,-1.544819712638855,-0.0976145789027214,0.14309810101985931
1772786304404350700,2.959350830078125,-1.6318347454071045,-0.1412251591682434,0.16506358981132507
1772786304414366700,2.96936669921875,-1.698532223701477,-0.1343192607164383,0.20137706398963928
1772786304424383000,2.979383056640625,-1.7072231769561768,-0.09553909301757812,0.2547345459461212
1772786304434399000,2.98939892578125,-1.6424274444580078,-0.03997909277677536,0.32879242300987244
1772786304444415000,2.9994150390625,-1.5106167793273926,-0.04917658865451813,0.4038831889629364
1772786304454430700,3.0094306640625,-1.3192148208618164,-0.10476662218570709,0.4797040522098541
1772786304464446700,3.01944677734375,-1.1456100940704346,-0.1096591204404831,0.5424664616584778
1772786304474462700,3.029462646484375,-1.0790807008743286,-0.10064154118299484,0.5554652810096741
1772786304484478700,3.039478759765625,-1.1192370653152466,-0.031639039516448975,0.48616501688957214
1772786304494495000,3.049494873046875,-1.2059621810913086,0.14122967422008514,0.336394339799881
1772786304504511000,3.059510986328125,-1.1901108026504517,0.26265648007392883,0.21469160914421082
1772786304514526700,3.069526611328125,-1.081694483757019,0.28975027799606323,0.2038608342409134
1772786304524542700,3.079542724609375,-0.8903018832206726,0.21401582658290863,0.2976139485836029
1772786304534558700,3.089558837890625,-0.6501542329788208,0.12857656180858612,0.5254836082458496
1772786304544574700,3.09957470703125,-0.40617164969444275,-0.03589919954538345,0.8019716739654541
1772786304554590700,3.1095908203125,-0.19281165301799774,-0.2567804455757141,1.023517370223999
1772786304564607000,3.11960693359375,-0.017194824293255806,-0.4994575083255768,1.1282155513763428
1772786304574623000,3.129623046875,0.1268148571252823,-0.7624257802963257,1.119720697402954
1772786304584638700,3.139638671875,0.23165366053581238,-0.9786105155944824,1.039231777191162
1772786304594654700,3.14965478515625,0.262775182723999,-1.0612413883209229,0.8873708844184875
1772786304604670700,3.159670654296875,0.22457079589366913,-0.9296883940696716,0.6700599193572998
1772786304614686700,3.169686767578125,0.10585011541843414,-0.6990823149681091,0.40146374702453613
1772786304624702700,3.17970263671875,-0.07749494165182114,-0.45594799518585205,0.12365210056304932
1772786304634719000,3.189718994140625,-0.2834315598011017,-0.20287346839904785,-0.14505530893802643
1772786304644735000,3.19973486328125,-0.4974961578845978,0.07416212558746338,-0.3824358880519867
1772786304654750700,3.209750732421875,-0.7230980396270752,0.3251880705356598,-0.5399477481842041
1772786304664766700,3.2197666015625,-0.9336915016174316,0.5048097968101501,-0.5928245186805725
1772786304674782700,3.22978271484375,-1.0921363830566406,0.6036198735237122,-0.5652021765708923
1772786304684798700,3.239798828125,-1.1857118606567383,0.6684659719467163,-0.4824065864086151
1772786304694815000,3.24981494140625,-1.2055346965789795,0.7194136381149292,-0.3627432882785797
1772786304704831000,3.2598310546875,-1.172925353050232,0.6737715601921082,-0.22730958461761475
1772786304714847000,3.269846923828125,-1.096253514289856,0.5635029077529907,-0.07640441507101059
1772786304724862700,3.27986279296875,-0.977358341217041,0.43055734038352966,0.07846692204475403
1772786304734878700,3.289878662109375,-0.854027271270752,0.22761034965515137,0.22761030495166779
1772786304744894700,3.299894775390625,-0.7421076893806458,-0.005957405082881451,0.3602714240550995
1772786304754910700,3.30991064453125,-0.6419346332550049,-0.24759748578071594,0.4573284387588501
1772786304764927000,3.319927001953125,-0.5435438752174377,-0.4760764539241791,0.52867192029953
1772786304774943000,3.32994287109375,-0.4345076084136963,-0.6565846800804138,0.5731533169746399
1772786304784958700,3.339958740234375,-0.32389774918556213,-0.7793868184089661,0.588992714881897
1772786304794974700,3.349974609375,-0.22506040334701538,-0.8569391965866089,0.583004355430603
1772786304804990700,3.35999072265625,-0.1358216106891632,-0.8658594489097595,0.5474511384963989
1772786304815006700,3.3700068359375,-0.06858670711517334,-0.8571832180023193,0.47180572152137756
1772786304825022700,3.380022705078125,-0.03108193911612034,-0.8341436386108398,0.3605199456214905
1772786304835039000,3.3900390625,-0.033041346818208694,-0.7603009343147278,0.23543336987495422
1772786304845055000,3.400054931640625,-0.05679274722933769,-0.6580115556716919,0.13608627021312714
1772786304855070700,3.41007080078125,-0.08389580249786377,-0.5399646162986755,0.08032283186912537
1772786304865086700,3.420086669921875,-0.10643040388822556,-0.4466729760169983,0.05716398358345032
1772786304875102700,3.430102783203125,-0.13951870799064636,-0.3945132791996002,0.044679585844278336
1772786304885118700,3.44011865234375,-0.18150876462459564,-0.38230136036872864,0.04628520831465721
1772786304895135000,3.450135009765625,-0.23349298536777496,-0.3883732855319977,0.05803612992167473
1772786304905151000,3.46015087890625,-0.2873479425907135,-0.3558315932750702,0.0946119874715805
1772786304915167000,3.4701669921875,-0.3069726228713989,-0.3363274931907654,0.12559553980827332
1772786304925182700,3.4801826171875,-0.3450166583061218,-0.2223988026380539,0.21505272388458252
1772786304935198700,3.49019873046875,-0.425864577293396,-0.09371348470449448,0.33557480573654175
1772786304945214700,3.500214599609375,-0.4541129767894745,-0.014685509726405144,0.3454849421977997
1772786304955230700,3.510230712890625,-0.397138386964798,0.05690419673919678,0.25943902134895325
1772786304965247000,3.5202470703125,-0.30955421924591064,0.0762544572353363,0.14758197963237762
1772786304975263700,3.530263671875,-0.2079606056213379,0.052411600947380066,0.07423295825719833
1772786304985279700,3.54027978515625,-0.11679261922836304,0.018608098849654198,0.06967496126890182
1772786304995295700,3.550295654296875,-0.050764791667461395,-0.0022243803832679987,0.12719489634037018
1772786305005311700,3.560311767578125,-0.018987951800227165,0.0004638147074729204,0.2033597081899643
1772786305015327700,3.57032763671875,-0.014079752378165722,-0.004627143498510122,0.25303858518600464
1772786305025344000,3.580343994140625,-0.013275743462145329,-0.01588832028210163,0.246774822473526
1772786305035359700,3.59035986328125,0.00626212265342474,-0.04230121150612831,0.200685515999794
1772786305045375700,3.600375732421875,0.026797756552696228,-0.06357667595148087,0.15554626286029816
1772786305055391700,3.610391845703125,0.03224905952811241,-0.03539367765188217,0.14257553219795227
1772786305065407700,3.62040771484375,0.04006224125623703,0.08100403845310211,0.12078341096639633
1772786305075423700,3.630423828125,0.04667741060256958,0.26747503876686096,0.009903613477945328
1772786305085440000,3.64043994140625,0.07803932577371597,0.5772739052772522,-0.11491608619689941
1772786305095456000,3.6504560546875,0.12697367370128632,0.8962048888206482,-0.23773367702960968
1772786305105471700,3.6604716796875,0.16445259749889374,0.9984079599380493,-0.2876857817173004
1772786305115487700,3.67048779296875,0.19048713147640228,0.9070019125938416,-0.2041938304901123
1772786305125503700,3.680503662109375,0.19717219471931458,0.7309578657150269,-0.054201677441596985
1772786305135519700,3.690519775390625,0.13469305634498596,0.5493155121803284,0.12623578310012817
1772786305145535700,3.70053564453125,0.03170916065573692,0.39427050948143005,0.1660122126340866
1772786305155552000,3.710552001953125,-0.12345106154680252,0.2829960286617279,0.13126987218856812
1772786305165568000,3.720568115234375,-0.2532061040401459,0.24288508296012878,0.03135606274008751
1772786305175583700,3.730583740234375,-0.3199007511138916,0.20055130124092102,-0.07245498150587082
1772786305185599700,3.740599853515625,-0.3023119270801544,0.09298702329397202,-0.12865592539310455
1772786305195615700,3.75061572265625,-0.22356602549552917,-0.06796369701623917,-0.13149456679821014
1772786305205631700,3.7606318359375,-0.13172078132629395,-0.26525360345840454,-0.08449643105268478
1772786305215647700,3.770647705078125,-0.04217435047030449,-0.4323883652687073,0.004870699252933264
1772786305225664000,3.7806640625,0.03708238899707794,-0.5406570434570312,0.10626176744699478
1772786305235679700,3.7906796875,0.10145711153745651,-0.6119291186332703,0.1767946481704712
1772786305245695700,3.80069580078125,0.15375547111034393,-0.6601424813270569,0.18876449763774872
1772786305255711700,3.810711669921875,0.205302894115448,-0.7015199065208435,0.13950125873088837
1772786305265727700,3.820727783203125,0.2611360549926758,-0.733020544052124,0.03931048512458801
1772786305275743700,3.83074365234375,0.3233078420162201,-0.7441821098327637,-0.08898143470287323
1772786305285760000,3.840760009765625,0.3744136393070221,-0.6954880356788635,-0.22970712184906006
1772786305295776000,3.85077587890625,0.4267454743385315,-0.6117455959320068,-0.3560791015625
1772786305305791700,3.860791748046875,0.46517834067344666,-0.48988038301467896,-0.45506879687309265
1772786305315807700,3.870807861328125,0.47657012939453125,-0.3555068075656891,-0.5169345140457153
1772786305325823700,3.88082373046875,0.46417418122291565,-0.20783241093158722,-0.538401186466217
1772786305335839700,3.89083984375,0.4288145899772644,-0.061210859566926956,-0.535624623298645
1772786305345855700,3.900855712890625,0.3765822649002075,0.06286022812128067,-0.5091072916984558
1772786305355872000,3.9108720703125,0.30825045704841614,0.14490966498851776,-0.45283836126327515
1772786305365888000,3.920887939453125,0.2244144231081009,0.19313524663448334,-0.3897683024406433
1772786305375903700,3.93090380859375,0.11978411674499512,0.1882345825433731,-0.3547818064689636
1772786305385919700,3.940919677734375,-0.0000943504273891449,0.14951887726783752,-0.3501740097999573
1772786305395935700,3.950935791015625,-0.11881327629089355,0.08918628841638565,-0.3663380444049835
1772786305405951700,3.96095166015625,-0.21632172167301178,0.020626408979296684,-0.3945326805114746
1772786305415967700,3.9709677734375,-0.27952393889427185,-0.03667396679520607,-0.42770934104919434
1772786305425984000,3.98098388671875,-0.3194769620895386,-0.09098301082849503,-0.44903990626335144
1772786305435999700,3.990999755859375,-0.34811586141586304,-0.14886020123958588,-0.4449787735939026
1772786305446015700,4.001015625,-0.38120564818382263,-0.2113017439842224,-0.41678789258003235
1772786305456031700,4.01103173828125,-0.43418529629707336,-0.253737211227417,-0.3740822970867157
1772786305466047700,4.0210478515625,-0.5034224390983582,-0.2680754065513611,-0.3385450541973114
1772786305476063700,4.031063720703125,-0.577208399772644,-0.2556152939796448,-0.33393245935440063
1772786305486079700,4.041079833984375,-0.6441951990127563,-0.2212166041135788,-0.36122000217437744
1772786305496096000,4.051095947265625,-0.6909642815589905,-0.1665709912776947,-0.40716391801834106
1772786305506111700,4.06111181640625,-0.7019463181495667,-0.09534207731485367,-0.4405445158481598
1772786305516127700,4.071127685546875,-0.6852723360061646,-0.032321661710739136,-0.4507065415382385
1772786305526143700,4.081143798828125,-0.6490349769592285,0.036095209419727325,-0.4316630959510803
1772786305536159700,4.09115966796875,-0.6085447072982788,0.10550487041473389,-0.38546815514564514
1772786305546175700,4.10117578125,-0.5621207356452942,0.1646329015493393,-0.31658628582954407
1772786305556192000,4.11119189453125,-0.5144843459129333,0.2107914239168167,-0.2394213229417801
1772786305566208000,4.1212080078125,-0.466124564409256,0.23538464307785034,-0.16616655886173248
1772786305576223700,4.1312236328125,-0.42264291644096375,0.2193957269191742,-0.10829812288284302
1772786305586239700,4.14123974609375,-0.3709637522697449,0.18173302710056305,-0.07701529562473297
1772786305596255700,4.151255859375,-0.33505555987358093,0.16428080201148987,-0.047693364322185516
1772786305606271700,4.161271728515625,-0.335575670003891,0.18624815344810486,-0.03063128888607025
1772786305616287700,4.171287841796875,-0.3727572560310364,0.20743508636951447,-0.020439930260181427
1772786305626303000,4.181302978515625,-0.43605074286460876,0.2398686707019806,-0.016157034784555435
1772786305636319200,4.1913193359375,-0.5275372862815857,0.29853907227516174,-0.011774889193475246
1772786305646336000,4.2013359375,-0.6257959604263306,0.35196366906166077,-0.00933010783046484
1772786305656352000,4.21135205078125,-0.7182764410972595,0.35995200276374817,-0.009130662307143211
1772786305666368000,4.221367919921875,-0.7916417121887207,0.31479117274284363,-0.009834801778197289
1772786305676384000,4.231384033203125,-0.8410320281982422,0.25894033908843994,-0.00019461335614323616
1772786305686400300,4.241400146484375,-0.8707627654075623,0.21840517222881317,0.01796974241733551
1772786305696416300,4.251416259765625,-0.8841127157211304,0.2034759819507599,0.062243178486824036
1772786305706432000,4.261431884765625,-0.8734803199768066,0.13109099864959717,0.06533430516719818
1772786305716448000,4.271447998046875,-0.8306095600128174,0.1542770117521286,0.047800321131944656
1772786305726464000,4.281464111328125,-0.794766366481781,0.20522914826869965,0.07012906670570374
1772786305736480000,4.29147998046875,-0.7990136742591858,0.18309207260608673,0.13809651136398315
1772786305746496000,4.30149609375,-0.8034944534301758,0.10303957760334015,0.15981271862983704
1772786305756512300,4.31151220703125,-0.7803019285202026,0.09373835474252701,0.1514843851327896
1772786305766528300,4.3215283203125,-0.7828385829925537,0.1654767096042633,0.15534436702728271
1772786305776544000,4.3315439453125,-0.7948343753814697,0.272754430770874,0.1275261789560318
1772786305786560000,4.34156005859375,-0.7983633279800415,0.4851362109184265,0.18576577305793762
1772786305796576000,4.351575927734375,-0.7546706795692444,0.6915744543075562,0.31392261385917664
1772786305806592000,4.361592041015625,-0.6357868909835815,0.8050123453140259,0.4138108789920807
1772786305816608000,4.37160791015625,-0.47546303272247314,0.8675535917282104,0.4579181969165802
1772786305826624300,4.381624267578125,-0.30966687202453613,0.8474363684654236,0.45842739939689636
1772786305836640000,4.391639892578125,-0.15236034989356995,0.7021908760070801,0.4263553321361542
1772786305846656000,4.401656005859375,-0.0043940613977611065,0.4775703251361847,0.38729020953178406
1772786305856672000,4.411672119140625,0.11789490282535553,0.192561075091362,0.37090054154396057
1772786305866688000,4.42168798828125,0.21038542687892914,-0.12629227340221405,0.3967374563217163
1772786305876704000,4.4317041015625,0.27767983078956604,-0.4420247972011566,0.4621099829673767
1772786305886720000,4.441719970703125,0.3028818666934967,-0.7243896126747131,0.5280727744102478
1772786305896736300,4.451736328125,0.27936357259750366,-0.9233814477920532,0.5492071509361267
1772786305906752000,4.461751953125,0.18460512161254883,-0.9512248039245605,0.4876505434513092
1772786305916768000,4.47176806640625,0.03593932464718819,-0.8642163276672363,0.3252852261066437
1772786305926784000,4.481783935546875,-0.14468824863433838,-0.7108734250068665,0.1063891053199768
1772786305936800000,4.491800048828125,-0.3447389602661133,-0.5461066365242004,-0.12073079496622086
1772786305946816000,4.50181591796875,-0.5305484533309937,-0.3862144649028778,-0.30336347222328186
1772786305956832300,4.511832275390625,-0.67852383852005,-0.22275038063526154,-0.4053056240081787
1772786305966848300,4.52184814453125,-0.7806214094161987,-0.044962022453546524,-0.4282785952091217
1772786305976864000,4.531864013671875,-0.8378069400787354,0.1450040638446808,-0.3805999457836151
1772786305986880000,4.5418798828125,-0.838661789894104,0.35357964038848877,-0.24735961854457855
1772786305996896000,4.55189599609375,-0.8523015379905701,0.44103819131851196,-0.03787010908126831
1772786306006912000,4.561912109375,-0.9105497002601624,0.42533379793167114,0.12334994226694107
1772786306016928000,4.571927978515625,-0.9492723345756531,0.38756462931632996,0.2294313758611679
1772786306026944300,4.5819443359375,-0.981640636920929,0.3317277431488037,0.2974085509777069
1772786306036960000,4.5919599609375,-0.9952993988990784,0.2186468541622162,0.3419496417045593
1772786306046976000,4.60197607421875,-0.9752125144004822,0.09421704709529877,0.36148151755332947
1772786306056992000,4.611991943359375,-0.9105287194252014,-0.018104948103427887,0.35697996616363525
1772786306067008000,4.622008056640625,-0.8192757368087769,-0.1319044828414917,0.3488794267177582
1772786306077024000,4.63202392578125,-0.7285305261611938,-0.2378157526254654,0.32485195994377136
1772786306087040000,4.6420400390625,-0.6395452618598938,-0.3153076171875,0.2807313799858093
1772786306097056300,4.65205615234375,-0.5572704672813416,-0.36044493317604065,0.23814071714878082
1772786306107072000,4.662072021484375,-0.48593926429748535,-0.3831036388874054,0.21666312217712402
1772786306117088000,4.672087890625,-0.43234172463417053,-0.3768353760242462,0.19960030913352966
1772786306127104000,4.68210400390625,-0.40004000067710876,-0.329932302236557,0.17475754022598267
1772786306137120000,4.6921201171875,-0.3857358694076538,-0.2575795352458954,0.13335518538951874
1772786306147136000,4.702135986328125,-0.3983089327812195,-0.16740569472312927,0.08084696531295776
1772786306157152300,4.71215234375,-0.4271014928817749,-0.09536457061767578,0.024584047496318817
1772786306167168300,4.722168212890625,-0.45895636081695557,-0.03072059527039528,-0.0013729844940826297
1772786306177184000,4.73218408203125,-0.5010791420936584,0.04978952556848526,0.0082058971747756
1772786306187200000,4.742199951171875,-0.5350518226623535,0.13512438535690308,0.04675648733973503
1772786306197216000,4.752216064453125,-0.5535850524902344,0.21697546541690826,0.09323236346244812
1772786306207232000,4.76223193359375,-0.5482009053230286,0.2522064447402954,0.1343158781528473
1772786306217248000,4.772248046875,-0.5237953662872314,0.23494994640350342,0.16696421802043915
1772786306227264300,4.78226416015625,-0.48367324471473694,0.20223355293273926,0.17922434210777283
1772786306237280300,4.7922802734375,-0.4311177134513855,0.13614758849143982,0.15932421386241913
1772786306247296000,4.8022958984375,-0.3569111227989197,0.02937506139278412,0.13821040093898773
1772786306257312000,4.81231201171875,-0.25103649497032166,-0.0883161649107933,0.14725728332996368
1772786306267328000,4.822327880859375,-0.12271153181791306,-0.18690478801727295,0.1775837540626526
1772786306277344000,4.832343994140625,0.021663643419742584,-0.27816253900527954,0.20916524529457092
1772786306287360000,4.842360107421875,0.15213057398796082,-0.3617421090602875,0.2313070297241211
1772786306297376300,4.852376220703125,0.2502918839454651,-0.4284714460372925,0.2351101189851761
1772786306307392000,4.86239208984375,0.3149377405643463,-0.5005317330360413,0.23094281554222107
1772786306317408000,4.872407958984375,0.3452092111110687,-0.587609589099884,0.2111198753118515
1772786306327424000,4.882424072265625,0.3515360951423645,-0.6768337488174438,0.18206265568733215
1772786306337440000,4.89243994140625,0.3288832902908325,-0.7917543053627014,0.15424415469169617
1772786306347456000,4.9024560546875,0.28445056080818176,-0.8543228507041931,0.12863360345363617
1772786306357472000,4.912471923828125,0.2119634747505188,-0.9247198700904846,0.10570456087589264
1772786306367488300,4.92248828125,0.10833827406167984,-1.0071220397949219,0.11497076600790024
1772786306377504000,4.93250390625,-0.03576008230447769,-1.0861119031906128,0.15132734179496765
1772786306387520000,4.94252001953125,-0.18461240828037262,-1.1070952415466309,0.19261913001537323
1772786306397536000,4.952535888671875,-0.3184897303581238,-1.0184805393218994,0.20967499911785126
1772786306407552000,4.962552001953125,-0.47126007080078125,-0.8193524479866028,0.2040589302778244
1772786306417568000,4.972568115234375,-0.6015897393226624,-0.4340016841888428,0.1514807790517807
1772786306427584300,4.982584228515625,-0.6152170896530151,0.0734274610877037,0.03443032503128052
1772786306437600300,4.992600341796875,-0.45810166001319885,0.6030929088592529,-0.11007104814052582
1772786306447616000,5.002615966796875,-0.2353854924440384,0.9481499195098877,-0.1756654977798462
1772786306457632000,5.012632080078125,-0.023519206792116165,1.034929633140564,-0.10050947964191437
1772786306467648000,5.02264794921875,0.1604551523923874,0.8951821327209473,0.07270384579896927
1772786306477664000,5.0326640625,0.2960202693939209,0.6637528538703918,0.23581887781620026
1772786306487680000,5.042679931640625,0.3405986726284027,0.4639710485935211,0.32209518551826477
1772786306497697000,5.052697021484375,0.2572450637817383,0.2950742244720459,0.34354519844055176
1772786306507712000,5.0627119140625,0.03435501456260681,0.17801709473133087,0.3136911690235138
1772786306517729000,5.07272900390625,-0.2852191627025604,0.09310225397348404,0.26201921701431274
1772786306527745000,5.0827451171875,-0.5836566686630249,0.0055460380390286446,0.2012818306684494
1772786306537761000,5.092760986328125,-0.7434160709381104,-0.09884955734014511,0.14226436614990234
1772786306547777300,5.10277734375,-0.7829429507255554,-0.18050900101661682,0.10670611262321472
1772786306557793000,5.11279296875,-0.7833943963050842,-0.24876517057418823,0.09049173444509506
1772786306567809000,5.12280908203125,-0.7452172040939331,-0.3449020981788635,0.07525898516178131
1772786306577825000,5.132824951171875,-0.6660863757133484,-0.4637053310871124,0.05557338893413544
1772786306587841000,5.142841064453125,-0.5706810355186462,-0.5868828892707825,0.029699446633458138
1772786306597857000,5.15285693359375,-0.4699693024158478,-0.6986339092254639,-0.00351695972494781
1772786306607873000,5.162873046875,-0.37189173698425293,-0.7979474067687988,-0.039729826152324677
1772786306617889300,5.17288916015625,-0.2926049530506134,-0.812512993812561,-0.11185963451862335
1772786306627905500,5.182905517578125,-0.2072831392288208,-0.7236496806144714,-0.21500280499458313
1772786306637921500,5.192921630859375,-0.0773429125547409,-0.5327388048171997,-0.3280813694000244
1772786306647937800,5.202937744140625,0.026869777590036392,-0.23998363316059113,-0.4520496428012848
1772786306657953800,5.212953857421875,0.10320655256509781,0.03644411265850067,-0.5459972620010376
1772786306667969800,5.2229697265625,0.1631159633398056,0.2813824713230133,-0.5998679399490356
1772786306677985800,5.23298583984375,0.17758114635944366,0.47658461332321167,-0.6360397338867188
1772786306688001500,5.24300146484375,0.1217421144247055,0.6024802327156067,-0.6615490913391113
1772786306698017500,5.253017578125,0.005926532205194235,0.6630488634109497,-0.6678040027618408
1772786306708033800,5.26303369140625,-0.134712353348732,0.6767159104347229,-0.6321948766708374
1772786306718049800,5.2730498046875,-0.28396496176719666,0.6641455292701721,-0.57881098985672
1772786306728065800,5.283065673828125,-0.40985816717147827,0.5804147124290466,-0.5184129476547241
1772786306738081800,5.293081787109375,-0.49102702736854553,0.4588804244995117,-0.45993247628211975
1772786306748097500,5.30309765625,-0.5418813824653625,0.3314465582370758,-0.40734145045280457
1772786306758113500,5.313113525390625,-0.5795941948890686,0.24799790978431702,-0.3787715435028076
1772786306768129500,5.323129638671875,-0.6078636646270752,0.2277062088251114,-0.36923184990882874
1772786306778145800,5.333145751953125,-0.6271376609802246,0.2492869347333908,-0.37909799814224243
1772786306788161800,5.343161865234375,-0.6473652124404907,0.3004459738731384,-0.40805160999298096
1772786306798177800,5.353177734375,-0.6648960113525391,0.3596487045288086,-0.4423096776008606
1772786306808193800,5.36319384765625,-0.6852743029594421,0.4220878481864929,-0.4570063054561615
1772786306818209500,5.37320947265625,-0.7047895193099976,0.49370431900024414,-0.4476999044418335
1772786306828225500,5.3832255859375,-0.7220337390899658,0.5760415196418762,-0.4213348627090454
1772786306838241500,5.393241455078125,-0.7326074242591858,0.6464653015136719,-0.385242223739624
1772786306848257800,5.4032578125,-0.7453355193138123,0.692172646522522,-0.35129839181900024
1772786306858273800,5.413273681640625,-0.760243833065033,0.72125244140625,-0.3338897228240967
1772786306868289800,5.423289794921875,-0.7679449319839478,0.7131918668746948,-0.3555084466934204
1772786306878305800,5.433305908203125,-0.7451418042182922,0.6684924364089966,-0.39481931924819946
1772786306888321500,5.443321533203125,-0.707712709903717,0.5971934795379639,-0.4103982746601105
1772786306898337500,5.453337646484375,-0.6688396334648132,0.49826985597610474,-0.38906335830688477
1772786306908353500,5.463353515625,-0.6362276077270508,0.39264407753944397,-0.3269408643245697
1772786306918369800,5.473369873046875,-0.6130889058113098,0.28146281838417053,-0.2287714183330536
1772786306928385800,5.4833857421875,-0.6001765727996826,0.17433476448059082,-0.11238595843315125
1772786306938401800,5.49340185546875,-0.6041145920753479,0.059296026825904846,0.004721088334918022
1772786306948417500,5.50341748046875,-0.6192029714584351,-0.05249202251434326,0.121377132833004
1772786306958433500,5.51343359375,-0.6639224290847778,-0.15525734424591064,0.22531241178512573
1772786306968449500,5.523449462890625,-0.7249866127967834,-0.24535687267780304,0.30616065859794617
1772786306978465800,5.5334658203125,-0.7902346253395081,-0.3109665811061859,0.3533073365688324
1772786306988481800,5.543481689453125,-0.8539454340934753,-0.34805163741111755,0.36187979578971863
1772786306998497800,5.553497802734375,-0.9247211217880249,-0.34711191058158875,0.3290007412433624
1772786307008513800,5.563513671875,-0.9978539347648621,-0.3097645342350006,0.2576006054878235
1772786307018529500,5.573529541015625,-1.088249921798706,-0.24776366353034973,0.1714232712984085
1772786307028545500,5.583545654296875,-1.201811671257019,-0.15251412987709045,0.10450070351362228
1772786307038561500,5.5935615234375,-1.3246475458145142,-0.041827671229839325,0.07727193832397461
1772786307048577800,5.603577880859375,-1.4382425546646118,0.07163044810295105,0.0841681957244873
1772786307058593800,5.61359375,-1.5254013538360596,0.19289489090442657,0.09941883385181427
1772786307068609800,5.62360986328125,-1.5815160274505615,0.2835427522659302,0.1154172420501709
1772786307078625800,5.633625732421875,-1.5973105430603027,0.34333357214927673,0.14516271650791168
1772786307088641500,5.6436416015625,-1.5654772520065308,0.398754745721817,0.17628787457942963
1772786307098657500,5.653657470703125,-1.508449673652649,0.4266958236694336,0.19234205782413483
1772786307108673500,5.663673583984375,-1.4410269260406494,0.42732539772987366,0.18652091920375824
1772786307118689800,5.673689697265625,-1.3750932216644287,0.4185863435268402,0.15422195196151733
1772786307128705800,5.683705810546875,-1.3407288789749146,0.38832271099090576,0.13305620849132538
1772786307138721800,5.6937216796875,-1.3113065958023071,0.342040479183197,0.17134219408035278
1772786307148737800,5.70373779296875,-1.2519711256027222,0.30675944685935974,0.27223846316337585
1772786307158753500,5.71375341796875,-1.1480634212493896,0.28783732652664185,0.4010888934135437
1772786307168769500,5.72376953125,-1.0120328664779663,0.2670723795890808,0.5041633248329163
1772786307178785800,5.733785888671875,-0.8643601536750793,0.22600305080413818,0.5798566937446594
1772786307188801800,5.7438017578125,-0.7381998300552368,0.1583545058965683,0.6360235214233398
1772786307198817800,5.75381787109375,-0.6399385333061218,0.05520101264119148,0.6571584343910217
1772786307208833800,5.763833740234375,-0.5697202682495117,-0.08800648152828217,0.6519476771354675
1772786307218849500,5.773849609375,-0.5118452310562134,-0.27276811003685,0.6345539093017578
1772786307228865500,5.783865478515625,-0.4790937006473541,-0.4649417996406555,0.6164907813072205
1772786307238881500,5.793881591796875,-0.4654830992221832,-0.6373300552368164,0.5768894553184509
1772786307248897800,5.803897705078125,-0.48354971408843994,-0.7438938021659851,0.5239665508270264
1772786307258913800,5.813913818359375,-0.5479090809822083,-0.7459325194358826,0.4415527582168579
1772786307268929800,5.8239296875,-0.6567301154136658,-0.6316900849342346,0.31732985377311707
1772786307278945800,5.83394580078125,-0.8216297626495361,-0.4091530740261078,0.15355296432971954
1772786307288961500,5.84396142578125,-1.0246633291244507,-0.1732073873281479,-0.029190482571721077
1772786307298977500,5.8539775390625,-1.2499444484710693,0.03768887743353844,-0.18591460585594177
1772786307308993500,5.86399365234375,-1.426880121231079,0.29016345739364624,-0.30546095967292786
1772786307319009800,5.874009765625,-1.5665311813354492,0.5567922592163086,-0.3997536599636078
1772786307329025800,5.88402587890625,-1.6913697719573975,0.799663782119751,-0.4454902410507202
1772786307339041800,5.894041748046875,-1.7466198205947876,0.9902304410934448,-0.4324783384799957
1772786307349057800,5.904057861328125,-1.7181979417800903,1.102827787399292,-0.37333032488822937
1772786307359073500,5.914073486328125,-1.6356050968170166,1.121477484703064,-0.25100305676460266
1772786307369089500,5.924089599609375,-1.5430101156234741,1.0423872470855713,-0.11035698652267456
1772786307379105500,5.93410546875,-1.4537204504013062,0.8961424231529236,0.023290477693080902
1772786307389121800,5.944121826171875,-1.3678507804870605,0.7465068697929382,0.12485811114311218
1772786307399137800,5.9541376953125,-1.2937631607055664,0.5730399489402771,0.19620537757873535
1772786307409153800,5.96415380859375,-1.2302669286727905,0.3813575804233551,0.23438605666160583
1772786307419169800,5.974169677734375,-1.17494797706604,0.1882338672876358,0.23196770250797272
1772786307429185500,5.984185546875,-1.1148109436035156,0.011022058315575123,0.20640428364276886
1772786307439201500,5.994201416015625,-1.0573362112045288,-0.14465053379535675,0.17841972410678864
1772786307449217800,6.0042177734375,-1.001589059829712,-0.2525186836719513,0.1666749119758606
1772786307459233800,6.01423388671875,-0.9561381936073303,-0.3141079246997833,0.1717957854270935
1772786307469249800,6.024249755859375,-0.9270279407501221,-0.34825098514556885,0.18700295686721802
1772786307479265800,6.034265869140625,-0.8957159519195557,-0.36276113986968994,0.19539622962474823
1772786307489281500,6.044281494140625,-0.8662523031234741,-0.37258899211883545,0.19067764282226562
1772786307499297500,6.054297607421875,-0.8348554968833923,-0.3775841295719147,0.16251905262470245
1772786307509313500,6.0643134765625,-0.8073157072067261,-0.37088096141815186,0.10650532692670822
1772786307519329800,6.074329833984375,-0.8017799258232117,-0.34802109003067017,0.06054601073265076
1772786307529345800,6.084345703125,-0.7990124225616455,-0.31760379672050476,0.04185061901807785
1772786307539361800,6.09436181640625,-0.7931716442108154,-0.30871662497520447,0.040006592869758606
1772786307549377800,6.104377685546875,-0.7734458446502686,-0.3268199861049652,0.059672437608242035
1772786307559393500,6.1143935546875,-0.7451331615447998,-0.3614215552806854,0.09323202073574066
1772786307569409500,6.124409423828125,-0.6801890730857849,-0.40734216570854187,0.1404045820236206
1772786307579425500,6.134425537109375,-0.5817488431930542,-0.42869314551353455,0.2054784744977951
1772786307589441800,6.14444189453125,-0.4496459364891052,-0.4325731098651886,0.2742210328578949
1772786307599457800,6.154457763671875,-0.30049166083335876,-0.4350486993789673,0.32876157760620117
1772786307609473800,6.164473876953125,-0.15849030017852783,-0.43134424090385437,0.3516373336315155
1772786307619489800,6.17448974609375,-0.03977547958493233,-0.40586215257644653,0.3328191339969635
1772786307629505300,6.18450537109375,0.054773394018411636,-0.33734646439552307,0.2850334942340851
1772786307639521000,6.19452099609375,0.1334470510482788,-0.251269668340683,0.23560374975204468
1772786307649537300,6.204537353515625,0.18479813635349274,-0.179426372051239,0.20664480328559875
1772786307659553300,6.21455322265625,0.21736866235733032,-0.15924003720283508,0.20641621947288513
1772786307669569300,6.2245693359375,0.22625084221363068,-0.20702886581420898,0.2362779825925827
1772786307679585300,6.234585205078125,0.19460201263427734,-0.33018794655799866,0.2781231105327606
1772786307689601300,6.244601318359375,0.1257324069738388,-0.5216931700706482,0.30515846610069275
1772786307699617000,6.254616943359375,0.03589610755443573,-0.769232451915741,0.33069220185279846
1772786307709633000,6.264633056640625,-0.06976719945669174,-1.0302183628082275,0.35954034328460693
1772786307719649300,6.274649169921875,-0.1814238429069519,-1.3030394315719604,0.38898947834968567
1772786307729665300,6.284665283203125,-0.2896943986415863,-1.5273886919021606,0.41554704308509827
1772786307739681300,6.294681396484375,-0.3430042564868927,-1.6305453777313232,0.4053840637207031
1772786307749697300,6.304697265625,-0.4370782971382141,-1.621445894241333,0.3979756832122803
1772786307759713300,6.31471337890625,-0.6388622522354126,-1.3383877277374268,0.32672548294067383
1772786307769729000,6.32472900390625,-0.830482006072998,-0.7616201043128967,0.0928671807050705
1772786307779745300,6.334745361328125,-0.8030336499214172,0.013594546355307102,-0.23067057132720947
1772786307789761300,6.34476123046875,-0.6062073707580566,0.8523486256599426,-0.5425283312797546
1772786307799777300,6.35477734375,-0.37514418363571167,1.5402894020080566,-0.7615377902984619
1772786307809793300,6.364793212890625,-0.11058498173952103,1.8149666786193848,-0.8144537210464478
1772786307819809300,6.374809326171875,0.21742895245552063,1.771870493888855,-0.6767232418060303
1772786307829825300,6.3848251953125,0.5052317380905151,1.585301160812378,-0.43131589889526367
1772786307839841000,6.394841064453125,0.640315055847168,1.3028393983840942,-0.18710678815841675
1772786307849857300,6.404857177734375,0.6239815950393677,1.0269197225570679,-0.04766901582479477
1772786307859873300,6.414873291015625,0.5132836699485779,0.7636345028877258,-0.01032310351729393
1772786307869889300,6.42488916015625,0.3508443832397461,0.515993595123291,-0.022924914956092834
1772786307879905300,6.4349052734375,0.1796661764383316,0.30367377400398254,-0.04660726338624954
1772786307889921300,6.44492138671875,0.007273636292666197,0.1313565969467163,-0.061186738312244415
1772786307899937300,6.454937255859375,-0.1693020612001419,0.033739425241947174,-0.05271245166659355
1772786307909953000,6.464953125,-0.293914794921875,-0.0545416995882988,-0.013204987160861492
1772786307919969300,6.47496923828125,-0.39599287509918213,-0.1405004858970642,0.03909112885594368
1772786307929985300,6.4849853515625,-0.49349385499954224,-0.22139480710029602,0.06662847846746445
1772786307940001300,6.495001220703125,-0.5853275060653687,-0.31401073932647705,0.0637664943933487
1772786307950017300,6.505017333984375,-0.6497608423233032,-0.4369662404060364,0.03353589028120041
1772786307960033300,6.515033203125,-0.6747136116027832,-0.5161536335945129,-0.01551773026585579
1772786307970049000,6.525049072265625,-0.6559751033782959,-0.48639705777168274,-0.09746105968952179
1772786307980065000,6.53506494140625,-0.6017746925354004,-0.4252874255180359,-0.2098114788532257
1772786307990081300,6.545081298828125,-0.5221453905105591,-0.3553975522518158,-0.35249271988868713
1772786308000097300,6.55509716796875,-0.45133987069129944,-0.25150585174560547,-0.49048006534576416
1772786308010113300,6.56511328125,-0.35022470355033875,-0.17726680636405945,-0.5701506733894348
1772786308020129300,6.57512939453125,-0.20963025093078613,-0.016201797872781754,-0.5319118499755859
1772786308030145300,6.585145263671875,-0.047850411385297775,-0.010869615711271763,-0.4070069193840027
1772786308040161000,6.5951611328125,0.12014297395944595,-0.13404235243797302,-0.29640594124794006
1772786308050177300,6.60517724609375,0.20076270401477814,-0.2777845859527588,-0.293154776096344
1772786308060193300,6.615193359375,0.18882471323013306,-0.4833931624889374,-0.37253841757774353
1772786308070209300,6.625209228515625,0.09373202174901962,-0.5531916618347168,-0.43343958258628845
1772786308080225300,6.635225341796875,-0.017813796177506447,-0.34056469798088074,-0.41014277935028076
1772786308090241300,6.6452412109375,-0.1364608258008957,-0.22674091160297394,-0.40679413080215454
1772786308100257300,6.65525732421875,-0.2953701317310333,-0.25417131185531616,-0.47381874918937683
1772786308110273000,6.66527294921875,-0.4651769995689392,-0.27556875348091125,-0.5740481615066528
1772786308120289300,6.675289306640625,-0.5948753356933594,-0.2132503241300583,-0.6237741708755493
1772786308130305300,6.68530517578125,-0.7121793627738953,-0.2100081890821457,-0.6459242105484009
1772786308140322300,6.695322265625,-0.817435622215271,-0.23495332896709442,-0.6767410635948181
1772786308150337300,6.705337158203125,-0.939814031124115,-0.23872064054012299,-0.6714536547660828
1772786308160354000,6.71535400390625,-1.0225989818572998,-0.20726792514324188,-0.6051815748214722
1772786308170369000,6.725369140625,-1.0674253702163696,-0.18868838250637054,-0.5519553422927856
1772786308180385000,6.735385009765625,-1.084989309310913,-0.30143463611602783,-0.5716056227684021
1772786308190401300,6.7454013671875,-1.0587692260742188,-0.3531779944896698,-0.6423263549804688
1772786308200417300,6.755417236328125,-1.0099908113479614,-0.2777266800403595,-0.715620219707489
1772786308210434300,6.765434326171875,-0.9516617655754089,-0.1761971414089203,-0.7352386713027954
1772786308220449300,6.77544921875,-0.8951219320297241,-0.12328605353832245,-0.7238221168518066
1772786308230466000,6.785466064453125,-0.7774925231933594,-0.08626757562160492,-0.7085496783256531
1772786308240481000,6.79548095703125,-0.6899756789207458,-0.06773415952920914,-0.7507185935974121
1772786308250497300,6.805497314453125,-0.5520433783531189,-0.039756856858730316,-0.8200622200965881
1772786308260513300,6.81551318359375,-0.42484110593795776,-0.04115540534257889,-0.8872414827346802
1772786308270530300,6.8255302734375,-0.36065518856048584,0.019985711202025414,-0.8751099705696106
1772786308280546300,6.83554638671875,-0.3745829463005066,0.1043493002653122,-0.7656272053718567
1772786308290561300,6.845561279296875,-0.44897088408470154,0.16291247308254242,-0.6006848216056824
1772786308300578000,6.855578125,-0.5256277322769165,0.24053862690925598,-0.40881162881851196
1772786308310594300,6.86559423828125,-0.5225850939750671,0.32239726185798645,-0.21768614649772644
1772786308320610300,6.8756103515625,-0.3653548061847687,0.14145773649215698,-0.13975757360458374
1772786308330626300,6.885626220703125,-0.1943814605474472,0.0629541352391243,-0.1645159274339676
1772786308340642300,6.895642333984375,-0.2623501121997833,0.38599416613578796,-0.09193412959575653
1772786308350658300,6.905658203125,-0.37246274948120117,0.3584195375442505,-0.04513094574213028
1772786308360674000,6.915674072265625,-0.3546774387359619,0.28450876474380493,-0.05451224744319916
1772786308370690000,6.92568994140625,-0.32685407996177673,0.2880289554595947,-0.05877996236085892
1772786308380706300,6.935706298828125,-0.3038806915283203,0.2727276086807251,-0.06274320930242538
1772786308390722300,6.945722412109375,-0.29771971702575684,0.21724754571914673,-0.07091192156076431
1772786308400738300,6.95573828125,-0.32790037989616394,0.22662274539470673,-0.05087600648403168
1772786308410754300,6.96575439453125,-0.34862270951271057,0.24485395848751068,-0.009646544232964516
1772786308420770000,6.97577001953125,-0.33936581015586853,0.2550401985645294,0.023463431745767593
1772786308430786000,6.9857861328125,-0.3149941563606262,0.2605598568916321,0.019976023584604263
1772786308440802300,6.99580224609375,-0.2774525582790375,0.2423112541437149,0.006069059018045664
1772786308450818300,7.005818359375,-0.2652222514152527,0.1700008362531662,0.00041010824497789145
1772786308460834300,7.015834228515625,-0.3027151823043823,0.10094506293535233,0.0853247418999672
1772786308470850300,7.025850341796875,-0.28419795632362366,0.07002949714660645,0.18873955309391022
1772786308480866300,7.0358662109375,-0.2868664562702179,0.06542379409074783,0.3166699707508087
1772786308490882000,7.045882080078125,-0.36018967628479004,0.007461958564817905,0.38777583837509155
1772786308500898000,7.05589794921875,-0.4811459183692932,-0.023923395201563835,0.3792822062969208
1772786308510914300,7.065914306640625,-0.646204948425293,-0.08657904714345932,0.326926052570343
1772786308520930300,7.075930419921875,-0.8202130198478699,-0.1260012984275818,0.243994802236557
1772786308530946300,7.0859462890625,-1.0173836946487427,-0.13244295120239258,0.1228923425078392
