time,seconds_elapsed,z,y,x
1772785582066541000,0.062541015625,0.9206775058358907,0.08860749059449881,0.3253756442639977
1772785582076557800,0.072557861328125,0.6744938370347022,0.21773462310396133,0.3657773588877171
1772785582086573800,0.08257373046875,0.4940934307426214,0.14597604904491454,0.42126105343960224
1772785582096590800,0.0925908203125,0.22969605985879896,0.03673705463632941,0.44501120073087513
1772785582106606800,0.10260693359375,0.12885609701573847,0.06080021339952946,0.3990531671542674
1772785582116624000,0.112623779296875,-0.006830722802877426,0.04635791961438954,0.3659296999052167
1772785582126639900,0.122639892578125,-0.4809393501371145,-0.01214154256209731,0.37304150467179714
1772785582136656600,0.13265673828125,-0.342877617880702,0.13143449613638222,0.4766518820762634
1772785582146673000,0.1426728515625,0.26372984688580037,0.18528510959371924,0.6139353234365582
1772785582156690000,0.15268994140625,0.6795891143471002,0.09638422554321587,0.8684346198361367
1772785582166706000,0.162705810546875,1.0041998386532067,-0.047450537156686186,0.8443724109210073
1772785582176722700,0.17272265625,0.878867239588499,-0.29001272752508517,0.4120296261705458
1772785582186739000,0.182739013671875,0.3243061884015798,-0.2751337228231132,0.17742708956971764
1772785582196756000,0.192755859375,-0.09787585234045981,-0.15438998591862618,0.003702653910219669
1772785582206772700,0.202772705078125,-0.18766835146844385,-0.14214154891595243,0.05984831950217485
1772785582216788700,0.212788818359375,-0.04352876060307025,-0.18985555931441483,0.13334551738947628
1772785582226806000,0.222805908203125,0.1367798757523298,-0.47163609974086285,-0.11361425035074353
1772785582236822000,0.232822021484375,-0.011319266393780707,-0.7977148507729173,-0.39928295732215047
1772785582246838800,0.2428388671875,-0.20189093808829783,-0.7641350180584937,-0.5184653631940483
1772785582256854800,0.252854736328125,-0.18081074065864086,-0.5528855191901326,-0.45766756094731387
1772785582266871800,0.262871826171875,-0.1164332532942295,-0.5402710984192788,-0.3934538858424872
1772785582276887800,0.2728876953125,-0.13201719139516352,-0.5743418564558029,-0.4675915735904127
1772785582286904800,0.28290478515625,-0.3540361407548189,-0.4345021912740543,-0.5951915330652148
1772785582296920800,0.2929208984375,-0.5213602078527212,-0.2734035014970228,-0.5848047982811927
1772785582306937900,0.302937744140625,-0.42165071034431456,-0.19704550735112278,-0.5154297218251973
1772785582316953900,0.312953857421875,-0.2155821943104267,-0.25306666978057474,-0.48740708484649653
1772785582326971000,0.322970947265625,-0.14169219771325586,-0.32643322702553124,-0.5138039472542703
1772785582336987000,0.33298681640625,-0.4874275431126356,-0.3010843393007293,-0.5540198569823056
1772785582347004000,0.34300390625,-0.8303028229057788,-0.10248100804835557,-0.465565620720759
1772785582357020000,0.35302001953125,-0.7570218981176614,0.11908665387984364,-0.19562983186691998
1772785582367037000,0.363036865234375,-0.5363321515351533,0.09828019535765051,-0.025173019701242444
1772785582377053700,0.3730537109375,-0.40087563334107396,-0.10490659122746437,-0.11697707784734665
1772785582387070000,0.383070068359375,-0.3814128079801798,-0.14445205434802919,-0.2558073833234608
1772785582397087000,0.3930869140625,-0.36552725658416746,-0.11488649877626449,-0.3269601369764656
1772785582407102700,0.403102783203125,-0.2206587669223547,-0.13906393156889826,-0.28300204504542054
1772785582417119700,0.41311962890625,0.008194996893405913,-0.17255119062904267,-0.1884962536599487
1772785582427136000,0.423135986328125,0.03494914830625057,-0.1560791811145842,-0.13916874365024268
1772785582437152800,0.43315283203125,0.053362172353267665,-0.1976012050051242,-0.14632636031992732
1772785582447168800,0.443168701171875,0.09285364026427269,-0.28676534310169516,-0.2137958954155445
1772785582457185800,0.453185791015625,0.2035387052953243,-0.4074156661016866,-0.31574213900007303
1772785582467202000,0.4632021484375,0.36481355535686016,-0.5501440384622663,-0.44805729042850434
1772785582477218800,0.47321875,0.44607612654864787,-0.5224689728122204,-0.4297830172650516
1772785582487234800,0.48323486328125,0.5581967773407698,-0.3671550769817084,-0.36291926604285835
1772785582497251800,0.493251953125,0.5481745650202036,-0.30933066452257335,-0.27649054425954817
1772785582507267800,0.503267822265625,0.19736264700889586,-0.2756236069655977,-0.2521931383490562
1772785582517284900,0.513284912109375,-0.28918928231298924,-0.17961135653993113,-0.41397126175761223
1772785582527300900,0.52330078125,-0.7972270672559738,-0.06729507357785477,-0.5383543050125241
1772785582537317600,0.533317626953125,-0.9219465028584003,0.07255326810069382,-0.45517610945776105
1772785582547334000,0.543333984375,-0.9066811291873454,0.14828397892741485,-0.3195087249919772
1772785582557351000,0.553350830078125,-0.9320692529439926,0.07504932270012796,-0.3719625503286719
1772785582567367700,0.56336767578125,-0.9088035281687974,-0.018334478918090463,-0.490397791095078
1772785582577383700,0.5733837890625,-0.6882792012810707,-0.06180496999528259,-0.4894279596822336
1772785582587401000,0.58340087890625,-0.33940146620273587,-0.13298870330844073,-0.3620995836904272
1772785582597417000,0.5934169921875,0.13219839318096638,-0.16618134506987406,-0.26774690050743516
1772785582607433700,0.603433837890625,0.5516577309608459,-0.2230410041500814,-0.192756760648638
1772785582617449700,0.61344970703125,0.7218523850589991,-0.26191777422884477,-0.11704477278869599
1772785582627467000,0.623467041015625,0.7659843722522258,-0.19589807261535896,-0.06372552626170218
1772785582637483000,0.63348291015625,0.7575503059059381,-0.10360652321325614,0.02053903975766152
1772785582647499800,0.643499755859375,0.6591232494235039,0.02923130038240924,0.08699841143004595
1772785582657515800,0.653515869140625,0.4852443538546562,0.14167930169906467,0.12328834335338323
1772785582667532800,0.66353271484375,0.274694893014431,0.24218698211414738,0.1433288590043783
1772785582677548800,0.673548828125,0.057173839595913885,0.2398665215436369,0.0825559720031917
1772785582687565800,0.68356591796875,-0.17124036375880242,0.11780023993165231,-0.03533084110021591
1772785582697581800,0.693581787109375,-0.1693979507625103,0.04725000961590558,-0.10634374789111316
1772785582707598800,0.703598876953125,-0.045344870114326474,-0.021257590690022334,-0.06879983385130763
1772785582717614800,0.71361474609375,0.0807318253159523,-0.06697586982715875,-0.040406062005273996
1772785582727632000,0.7236318359375,-0.022633856612443923,-0.030999817025428637,0.02205960038844496
1772785582737647900,0.73364794921875,-0.30036008014678955,0.01643430785257369,-0.05879201538227498
1772785582747665000,0.743664794921875,-0.3359311597436666,0.028794580332422628,-0.0868299229953438
1772785582757681000,0.753680908203125,-0.15172025525271893,-0.02549525565924123,-0.0071772712182253595
1772785582767698000,0.763697998046875,-0.06810790606439113,-0.030339133760146794,-0.00944726197682321
1772785582777715000,0.77371484375,0.014720599269866942,0.01799446070822887,-0.05442855947576463
1772785582787731000,0.78373095703125,0.1713186896920204,0.022055755330389365,-0.024141813489980995
1772785582797748000,0.793748046875,0.20289105504155158,0.05150553903537802,0.007911869103088975
1772785582807763700,0.803763671875,0.12863047156631946,0.11587860595299862,0.0888167494310066
1772785582817780700,0.81378076171875,0.06229074421823024,0.12798740615611895,0.11681827055644244
1772785582827797000,0.823796875,0.21147183638215064,0.050180756705021486,0.0526184413138777
1772785582837813800,0.833813720703125,0.3534481117337942,-0.07779083082745783,0.03561473607551306
1772785582847829800,0.843829833984375,0.3113946843802929,-0.19306931546283884,-0.04842562926653772
1772785582857846800,0.8538466796875,0.21382979768514632,-0.23203984650596976,-0.12707261113245039
1772785582867863000,0.863863037109375,-0.05510697019398212,-0.18367314435243606,-0.14292674447689205
1772785582877879800,0.8738798828125,-0.1955652421981096,-0.07293884248533286,-0.1998525275958702
1772785582887895800,0.883895751953125,-0.126014736109972,-0.03661514528971165,-0.1584130308896303
1772785582897912800,0.893912841796875,-0.12711714439392088,-0.043988281573331914,-0.18339494846556334
1772785582907928800,0.9039287109375,-0.12022855392396449,-0.01039515555249527,-0.21603560063373295
1772785582917945900,0.91394580078125,-0.08630757962167263,0.02338069292437285,-0.17125453841462732
1772785582927961900,0.9239619140625,0.016195932519435883,0.010182695545325986,-0.1438371373200789
1772785582937978600,0.933978515625,0.15650573596358297,-0.01650342299945187,-0.119849235750176
1772785582947995000,0.943994873046875,0.28856910458803176,-0.01846750331376679,-0.0648524113997817
1772785582958012000,0.954011962890625,0.3699345516324043,-0.026087399166380053,0.006249013924784958
1772785582968028000,0.96402783203125,0.37938334797918793,-0.06487906651126686,0.009595730536803602
1772785582978044700,0.974044677734375,0.21193302415311335,-0.18332380119180305,-0.09895144568271934
1772785582988060700,0.984060791015625,0.05604863495826721,-0.24503185015125198,-0.26854203294049944
1772785582998077700,0.99407763671875,0.024719430714845655,-0.17240235674288124,-0.2301661981211975
1772785583008094000,1.004093994140625,0.06786065330505371,-0.08433666314119473,-0.14289229421801863
1772785583018110700,1.01411083984375,0.14476561380922792,-0.0190720998771023,-0.0928071707740426
1772785583028127700,1.024127685546875,0.1675929471671581,0.006427214327681577,-0.05081562967561185
1772785583038143700,1.034143798828125,0.04894143330156803,-0.03463021170032443,-0.07790007248874753
1772785583048160800,1.044160888671875,-0.20290917522013185,-0.017828445075114722,-0.16181118542794137
1772785583058176800,1.0541767578125,-0.44939211922883987,0.012671304340532515,-0.27512963116988537
1772785583068193800,1.06419384765625,-0.4748386951744556,-0.01108759251277661,-0.31443927624057977
1772785583078209500,1.07420947265625,-0.2837842083990574,-0.06899435634298716,-0.3241984171781689
1772785583088226800,1.084226806640625,-0.10533025999963283,-0.09526960623166524,-0.23936266367472706
1772785583098242800,1.094242919921875,-0.09977028778493403,-0.033638536065141666,-0.1288906934050843
1772785583108259600,1.104259521484375,-0.14966741437613965,-0.00874888389952248,-0.15330759750939904
1772785583118275600,1.114275634765625,-0.08282675176858902,0.002637419848481659,-0.15047829236760735
1772785583128292900,1.12429296875,0.05731470937132835,-0.020059843689261468,-0.14003409177530557
1772785583138308900,1.134308837890625,0.1803729337632656,-0.03547584134476492,-0.11541337219458073
1772785583148325600,1.14432568359375,0.2748568055778742,-0.04737296927529387,-0.09875796893723308
1772785583158341600,1.154341552734375,0.3634825990140438,-0.0772751272571273,-0.07524082668423653
1772785583168359000,1.16435888671875,0.3682002751857042,-0.14387467458518222,-0.09055157386697828
1772785583178374700,1.174374755859375,0.30592005236148834,-0.12308715822547674,-0.11213299881704152
1772785583188391700,1.1843916015625,0.22769173429906367,-0.08477755704279988,-0.07470503930710255
1772785583198407700,1.19440771484375,0.060190557068586344,-0.02219830788952531,-0.02361574378926307
1772785583208424700,1.2044248046875,-0.062494157835841176,0.04607311132363975,-0.00043247313313186166
1772785583218440700,1.214440673828125,-0.21761574596464633,0.04468659800183959,-0.03501023084372282
1772785583228457700,1.224457763671875,-0.28567922836542126,0.02175445256256498,-0.0660169251345098
1772785583238473700,1.2344736328125,-0.20135025534033774,-0.01798021527045639,-0.07686031764484942
1772785583248490800,1.24449072265625,-0.07811725890338421,-0.05836928732502274,-0.06741480923369526
1772785583258506800,1.2545068359375,0.001373041918873787,-0.0864538562245667,-0.07276559567712247
1772785583268523800,1.264523681640625,0.14830372480750084,-0.07817540056509896,-0.0502792943092063
1772785583278539800,1.274539794921875,0.1200847615391016,-0.037326928554568435,-0.04998330703731626
1772785583288556800,1.284556884765625,0.15252923354804515,0.042394030085252596,0.010126111086457968
1772785583298572800,1.29457275390625,0.24527181465327738,0.03201729610543698,0.09591262597609311
1772785583308589800,1.30458984375,0.31716449995338913,-0.0019495540320407598,0.0901669219309464
1772785583318605600,1.31460546875,0.37219782038927074,-0.03057003817288205,0.08964603986199944
1772785583328622800,1.324622802734375,0.3035387101829052,-0.08779824743769131,0.014987214316800236
1772785583338639600,1.3346396484375,0.18457856875956058,-0.11586356364749371,-0.0879175721015781
1772785583348655600,1.344655517578125,0.1284510233461857,-0.1084759741468355,-0.15613416270483285
1772785583358672600,1.354672607421875,0.030460604715347287,-0.12998621529052035,-0.16042890075668692
1772785583368689000,1.36468896484375,-0.06128945822119713,-0.08719702100837602,-0.17313096327837554
1772785583378705700,1.37470556640625,-0.031768764704465866,-0.07658979360777884,-0.16966789027769116
1772785583388721700,1.3847216796875,0.059141340276598925,-0.08321381485741584,-0.11079316504802554
1772785583398738700,1.39473876953125,0.07346446466147899,-0.12765506892921402,-0.11212872450072317
1772785583408755000,1.4047548828125,0.17306407205462454,-0.17256985879689454,-0.10970343358255923
1772785583418771700,1.414771728515625,0.2568868491232395,-0.2348160697536543,-0.1055615845374763
1772785583428787700,1.42478759765625,0.29693419735133647,-0.1976475466311909,-0.05916599979382008
1772785583438804700,1.4348046875,0.24236264920830725,-0.109221276088804,0.009141082104481757
1772785583448820700,1.44482080078125,0.1731143409371376,0.011634280309837777,0.03907379048820585
1772785583458837800,1.454837646484375,0.09306231457889079,0.03862052116221748,0.060705995777435594
1772785583468853800,1.464853759765625,-0.024911153894662856,0.03035719913979992,0.08057751153707504
1772785583478870500,1.47487060546875,-0.21813830853402613,-0.002938507987174671,-0.0016556947851553558
1772785583488886800,1.48488671875,-0.33662615627050396,-0.03320894215897424,-0.0947379561735317
1772785583498903800,1.49490380859375,-0.4450415228039026,-0.038071805804851463,-0.06789334999825805
1772785583508919800,1.504919921875,-0.42807752852141856,0.0003896203720942139,-0.037845454269647597
1772785583518936600,1.5149365234375,-0.4399538442760706,0.043979819705663246,-0.00040774055067449805
1772785583528952800,1.524952880859375,-0.4126724541187286,0.1395911155144684,0.0396493253538385
1772785583538969900,1.534969970703125,-0.26172961297929287,0.12882659692661835,0.048939460540190334
1772785583548985600,1.544985595703125,-0.009369301369786262,0.04939030958022922,-0.002066577140986919
1772785583559002600,1.555002685546875,0.2973772649437189,-0.021371894402208273,-0.029854017124325036
1772785583569019000,1.565018798828125,0.5486871907174586,-0.13002580751539208,-0.004456175691261887
1772785583579035600,1.57503564453125,0.6899287220537662,-0.17973682781681416,0.00939089214708656
1772785583589051600,1.5850517578125,0.6748685155659914,-0.15159651014204137,-0.035133126571029426
1772785583599068700,1.595068603515625,0.4729904369592666,-0.06356197886359878,-0.07154785391781479
1772785583609084700,1.605084716796875,0.1573410177439451,0.056005654333066195,-0.06284819543790073
1772785583619101700,1.615101806640625,-0.14663783742189407,0.1378358054128941,-0.049073060324601826
1772785583629117700,1.62511767578125,-0.2994254296451807,0.11754914211425929,-0.061840114373899996
1772785583639134700,1.635134765625,-0.2787023750901222,0.049395501778577454,-0.07831234308406711
1772785583649150700,1.645150634765625,-0.17112988912165164,-0.09059502028306014,-0.12074001057744026
1772785583659167700,1.655167724609375,-0.022349778974056243,-0.1616990850892849,-0.17798125285375863
1772785583669184800,1.665184814453125,0.08021627700924873,-0.19196981152202933,-0.20994634384792296
1772785583679200800,1.67520068359375,0.1254693771868944,-0.13839432521164416,-0.1672356216294691
1772785583689217800,1.6852177734375,0.10681611464321612,-0.05082227861210704,-0.0973309318087995
1772785583699233800,1.69523388671875,0.036217560806870455,0.0228097771516419,-0.028287754188291728
1772785583709250800,1.705250732421875,-0.04426408914029598,0.0351732782016159,-0.0028634266071021555
1772785583719266600,1.7152666015625,-0.06669570117890834,-0.002461257280688733,-0.027853344826400277
1772785583729283800,1.725283935546875,0.008746201035380362,-0.04904429545442108,-0.061828533533960575
1772785583739299800,1.7352998046875,0.08372691547870635,-0.05311563654656056,-0.03920348128248006
1772785583749316600,1.745316650390625,0.16299802059233187,-0.04870011709267273,-0.05172423242051154
1772785583759332600,1.75533251953125,0.09303659561574458,-0.02783016944678966,-0.04132021770812571
1772785583769350000,1.765349853515625,-0.0915413886219263,0.04063833182461094,-0.06775850810483097
1772785583779366000,1.775365966796875,-0.11572656632959842,0.04787201853834558,-0.051775012759678066
1772785583789382700,1.785382568359375,-0.016816694766283034,0.019535000114538705,-0.01303279231339693
1772785583799398700,1.795398681640625,0.056039282608032225,-0.022459760420862583,-0.008629406255297362
1772785583809416000,1.805416015625,0.08403203590512275,-0.030475144697353244,-0.03341576472651213
1772785583819431700,1.815431640625,0.13989011672735213,-0.06040063788900152,-0.051346412084065374
1772785583829448700,1.82544873046875,0.12379822910428047,-0.12120003843777813,-0.07802421032506972
1772785583839464700,1.835464599609375,0.05626373901367187,-0.05836873933575116,-0.07889843587633222
1772785583849481700,1.845481689453125,0.03977203841805458,0.03210331215476617,-0.04239456894136965
1772785583859497700,1.855497802734375,0.13548106811344623,0.053129158181836826,0.012062011052481829
1772785583869514800,1.8655146484375,0.18671499626636504,0.07204396687168628,0.05797514604143798
1772785583879530800,1.87553076171875,0.15599837096333502,0.047232108633033926,0.021785824948363005
1772785583889547800,1.8855478515625,0.17880641509890555,-0.01571902658953331,-0.021601262161694466
1772785583899563800,1.895563720703125,0.21753625098764895,-0.12807175997132433,-0.06132208184916526
1772785583909580800,1.905580810546875,0.2682686593592167,-0.17528861623629927,-0.053069326886534686
1772785583919596800,1.9155966796875,0.24613281539678572,-0.16714721269365398,-0.03177738640233874
1772785583929613800,1.92561376953125,0.27603695527315136,-0.10383156414078548,-0.00688212419655174
1772785583939629800,1.9356298828125,0.29224340918660163,-0.058901841565454374,0.06271952755693345
1772785583949646600,1.945646484375,0.2621323485612869,-0.06411983194206841,0.06345803443193436
1772785583959662600,1.95566259765625,0.14717501303851604,-0.06164731348184868,-0.0024190438404679297
1772785583969680000,1.965679931640625,0.0232709854722023,-0.09927268612687476,-0.09469459195584058
1772785583979695900,1.97569580078125,-0.02881926724910736,-0.10147667157771065,-0.1622191086417064
1772785583989713000,1.985712890625,-0.11165186423659323,-0.11676480506984516,-0.20253888060301542
1772785583999729000,1.99572900390625,-0.2341390107423067,-0.12641838500741867,-0.24440135196167975
1772785584009746000,2.005745849609375,-0.28576866021454334,-0.14547262956742196,-0.30541571956854313
1772785584019762000,2.015761962890625,-0.18976093983352182,-0.19415048002935945,-0.34524405475109815
1772785584029779000,2.025779052734375,-0.11860241402685641,-0.22082246958408502,-0.378765435276553
1772785584039795000,2.035794921875,-0.05530103146135807,-0.15712540223188698,-0.3985642145935446
1772785584049812000,2.04581201171875,0.118355161267519,-0.12345716058164834,-0.2547790997216478
1772785584059827700,2.05582763671875,0.1777373245626688,-0.06146116152629256,-0.12793514624591917
1772785584069845000,2.065844970703125,0.11944529459178448,-0.01711005168966949,-0.11183942269794642
1772785584079861000,2.075861083984375,0.06948854676783084,-0.05437427200525999,-0.11821812741700559
1772785584089877800,2.085877685546875,0.005467033234238625,-0.06179803336441982,-0.15838033419642597
1772785584099893800,2.095893798828125,-0.025317981129884717,-0.05462281710596289,-0.21647318833339957
1772785584109911000,2.1059111328125,0.03743395085930824,-0.00337275980215054,-0.19551413306538015
1772785584119927800,2.115927734375,0.12443886509537697,-0.022693194717401638,-0.14501085727456955
1772785584129943800,2.12594384765625,0.16985796948969364,-0.04335330813804175,-0.11061072115320712
1772785584139961000,2.135961181640625,0.1750654750049114,-0.0601155967028113,-0.10868574443999678
1772785584149977000,2.14597705078125,0.06377601433992386,-0.05049261283290107,-0.10230101183895021
1772785584159993900,2.155993896484375,0.07551613649427891,0.018039080734667368,-0.06544318036716432
1772785584170009900,2.166009765625,0.13077742046713828,0.03374769552804064,0.000028605039976537225
1772785584180027100,2.176027099609375,0.14920914921462536,0.045119600857933984,0.058795084122195834
1772785584190043000,2.18604296875,0.16747487374544143,-0.014363520327350124,0.031340090963616965
1772785584200060000,2.196059814453125,0.17990005555450916,-0.11266224685553461,-0.04346252696644515
1772785584210076000,2.206075927734375,0.11346797374784946,-0.11335238454416394,-0.07474029328357427
1772785584220092700,2.2160927734375,0.03672667937278747,-0.0762996606879402,-0.13182144962735473
1772785584230109000,2.22610888671875,-0.0005003507375717163,-0.040601443013479,-0.13938021271014586
1772785584240126000,2.2361259765625,0.05340250436365604,-0.013664610243798232,-0.12417641476690769
1772785584250142000,2.246141845703125,0.0776601627856493,-0.037340148795745334,-0.0999529874080792
1772785584260158700,2.25615869140625,0.07121990060508251,-0.04049426544511225,-0.06314465763382614
1772785584270175000,2.266175048828125,-0.009743979901075362,-0.06317122598034329,-0.06751408662339672
1772785584280192000,2.27619189453125,-0.05538754070103168,-0.07467352992398664,-0.08149283628370613
1772785584290207700,2.286207763671875,-0.055233226922154426,-0.08836318784407339,-0.08631696850452572
1772785584300224800,2.296224853515625,0.045322073760628696,-0.08983719678623601,-0.043615854364633555
1772785584310241000,2.306240966796875,0.1672586006462574,-0.08871931693851948,-0.04640877301879227
1772785584320257800,2.3162578125,0.2082061125844717,-0.09530722569515929,-0.021203275820054112
1772785584330273800,2.326273681640625,0.2396767711251974,-0.08486276937453076,0.003507113071810454
1772785584340290800,2.336290771484375,0.1418295603573322,-0.06426974354046397,0.03935640682186931
1772785584350307000,2.34630712890625,0.09230068255662918,-0.040312173176743085,0.024592352002765983
1772785584360323800,2.35632373046875,0.05130173269212246,-0.04836495772101916,-0.001331193804834038
1772785584370339800,2.36633984375,-0.05702829364538192,-0.090466215404775,-0.048395727318618444
1772785584380356900,2.37635693359375,-0.2800876919686794,-0.09127788798068649,-0.12601066272305325
1772785584390372900,2.386372802734375,-0.4092652760237455,-0.05842263864718843,-0.17934768236875534
1772785584400390000,2.396389892578125,-0.3775876967340708,-0.04436907475157641,-0.13656658006152136
1772785584410406000,2.406406005859375,-0.3306780615210533,0.014058961589937097,-0.07822623570319265
1772785584420423000,2.4164228515625,-0.2810942386627197,0.05410738753026817,-0.00914732918217778
1772785584430439000,2.42643896484375,-0.14863924037218093,0.014708415641728787,-0.0056301879066973926
1772785584440456000,2.4364560546875,0.05756254665255546,-0.08262777686407789,-0.048422597059234976
1772785584450472000,2.446471923828125,0.25224516079723835,-0.15666657081479204,-0.06773253341335803
1772785584460488700,2.45648876953125,0.443058240032196,-0.17429050857704131,-0.07485783698232844
1772785584470505000,2.4665048828125,0.597061053264141,-0.17296912378016857,-0.026668957347422837
1772785584480522000,2.47652197265625,0.6081587858617306,-0.10134968419717624,0.009613613253366201
1772785584490538000,2.4865380859375,0.586466009491682,-0.018023367142304778,0.0470500117980875
1772785584500554800,2.4965546875,0.45879473834633827,-0.018353137952787802,0.025308299986086785
1772785584510571000,2.506571044921875,0.22976620248556134,-0.007829497182415797,-0.011528817491233348
1772785584520588000,2.516588134765625,-0.19246493809521198,-0.0011051824796362779,-0.05840268727112561
1772785584530603800,2.526603759765625,-0.5490402419388294,0.030516636618366462,-0.23727473321845755
1772785584540620800,2.536620849609375,-0.5333803159922361,-0.03500090589295141,-0.3435404657036066
1772785584550637000,2.546636962890625,-0.33396190549731253,-0.05922828334111254,-0.2737756592776626
1772785584560653800,2.55665380859375,-0.192759537127614,-0.020477025638427584,-0.1912725317065604
1772785584570669800,2.566669921875,-0.06533084256649017,-0.020097127509326674,-0.15148772513847797
1772785584580686800,2.576686767578125,0.11773439902067184,-0.06562461048183031,-0.09141155169717967
1772785584590702800,2.586702880859375,0.2400245616495609,-0.09297278226506896,-0.04672461576862261
1772785584600720000,2.596719970703125,0.2933306199014187,-0.0996956242466811,-0.018531334930751472
1772785584610735900,2.60673583984375,0.29053894335627556,-0.0934252113408409,-0.04855091788033023
1772785584620753000,2.6167529296875,0.3145353204935789,-0.06303058453379198,-0.015431998942233622
1772785584630769000,2.626768798828125,0.31531156556308265,-0.012061453930055721,0.047196014406345785
1772785584640786000,2.636785888671875,0.2502075174897909,0.028713861512718722,0.04432135401917621
1772785584650802000,2.646802001953125,0.09678338092863559,0.010532929188525303,0.035428090929612514
1772785584660818700,2.656818603515625,-0.13476853592991828,-0.0048235979312798005,-0.023341493425145743
1772785584670834700,2.666834716796875,-0.2612731013834476,-0.0314052057888126,-0.046503739559557285
1772785584680852000,2.67685205078125,-0.25172084466218947,-0.08239243373824283,-0.09748608583789319
1772785584690868000,2.686867919921875,-0.078130702906847,-0.07985214727143757,-0.14536858467105776
1772785584700884700,2.696884765625,0.1716238101184368,-0.08553655871655791,-0.07281500604311004
1772785584710902000,2.706902099609375,0.2660463071346283,-0.06859772627479396,0.010036533106863497
1772785584720918000,2.71691796875,0.2340349658459425,-0.0190022312449757,0.0006487462323158979
1772785584730934800,2.726934814453125,0.14261457325518132,-0.026697745050489902,-0.01459677196079865
1772785584740950800,2.73695068359375,0.021277765828371046,-0.07707653594510629,-0.07456714694006368
1772785584750968000,2.746968017578125,-0.06666296795308589,-0.09146527291210367,-0.1082731267848052
1772785584760984000,2.756984130859375,-0.030087679749727248,-0.06826285916408524,-0.12874602423738687
1772785584771000800,2.767000732421875,0.08507248486876487,-0.08267107714968733,-0.12863136661546304
1772785584781016800,2.777016845703125,0.19739070405960082,-0.06704399402677082,-0.08266394415600224
1772785584791033900,2.787033935546875,0.1901414635837078,-0.015372286377940325,-0.026061931364983318
1772785584801049900,2.7970498046875,0.19397884978950022,-0.03593596281993668,-0.012051252196449785
1772785584811067000,2.80706689453125,0.23730010512173175,-0.05778251867932267,-0.06090252299653366
1772785584821083000,2.817082763671875,0.16611469130814074,-0.06624172860002145,-0.06515470054829493
1772785584831100000,2.827099853515625,-0.03660977499485016,-0.04682611708145123,-0.11625323881851508
1772785584841116000,2.837115966796875,-0.1592757851988077,-0.0417999731822405,-0.16845803956389427
1772785584851133000,2.8471328125,-0.1514595584899187,-0.06337638403046876,-0.16280560329277066
1772785584861149000,2.85714892578125,-0.10204290889203547,-0.07538291573578025,-0.1695792438798584
1772785584871166000,2.867166015625,-0.009681436058878898,-0.08280190958827734,-0.16319617351293564
1772785584881182000,2.877181884765625,0.08611234931051731,-0.09264679258055984,-0.15837845276659354
1772785584891199000,2.887198974609375,0.18458675206601619,-0.09454322818587534,-0.12353386081336065
1772785584901214700,2.897214599609375,0.25955577607154845,-0.08145235814284532,-0.10029776399144902
1772785584911232000,2.90723193359375,0.22050211505591868,-0.12290120719932018,-0.11387220716718584
1772785584921248000,2.917248046875,0.1453857915341854,-0.0057054633663035925,-0.08444774056654424
1772785584931264800,2.9272646484375,0.08613689922988414,0.0017068450170801951,-0.07171289002010599
1772785584941280800,2.93728076171875,0.11951251460909842,-0.0414395058393944,-0.08155718849049881
1772785584951298000,2.947298095703125,0.1721855356544256,-0.05439220038759522,-0.05682948313765227
1772785584961313800,2.957313720703125,0.1076882213026285,-0.03495453230084385,-0.054415754793118686
1772785584971330600,2.96733056640625,0.007893968120217323,-0.008845647959262714,-0.060175140303745864
1772785584981346600,2.9773466796875,-0.04445172066688537,0.0022619022086204496,-0.05026427940316498
1772785584991363800,2.98736376953125,-0.08510346452891826,0.01008291354883695,-0.04729003109904006
1772785585001379800,2.9973798828125,-0.07904898679554462,-0.013830188627139431,-0.04154328587427735
1772785585011396600,3.007396728515625,-0.021672902625799177,-0.04556343563529663,-0.04614431339632719
1772785585021412600,3.01741259765625,0.03090191874206066,-0.0749342449530959,0.015106986505258827
1772785585031430000,3.027429931640625,0.030505028378963468,-0.1087680980943609,0.02320639580339193
1772785585041445600,3.037445556640625,-0.011937690553069114,-0.08073392594149335,0.002615077869221568
1772785585051462700,3.047462646484375,0.018780688315629956,-0.08419631395558826,-0.006088179073575884
1772785585061478700,3.057478759765625,0.06280453895926476,-0.11277352521028369,-0.041686037079524244
1772785585071495700,3.06749560546875,0.08991349515914916,-0.08926211857832968,-0.034356918034143744
1772785585081511700,3.07751171875,0.00433656789958477,-0.07137639720789156,-0.05165688453903421
1772785585091528700,3.08752880859375,-0.18716566264331339,-0.07853620583466253,-0.12192816091608255
1772785585101544700,3.097544677734375,-0.2429144378721714,-0.07652044556546024,-0.17831779133174566
1772785585111561700,3.107561767578125,-0.12403320690393448,-0.10848530823076143,-0.15287361740577035
1772785585121577700,3.11757763671875,0.04316927964091301,-0.1327335777699016,-0.13102837215405888
1772785585131594800,3.1275947265625,0.20197803184986113,-0.16810623045153916,-0.13606178147769532
1772785585141610500,3.137610595703125,0.2898363480448723,-0.1788566474488005,-0.12972958278148433
1772785585151627800,3.147627685546875,0.2833949168205261,-0.10624386771321297,-0.08899180460381322
1772785585161643800,3.157643798828125,0.15784136848151684,-0.052408196096681056,-0.041789990644343196
1772785585171660500,3.16766064453125,0.10501695626676082,0.02013050462254323,0.004060089045763015
1772785585181676500,3.177676513671875,0.05638707313239574,-0.007488083883200306,-0.02627000289140269
1772785585191693800,3.18769384765625,-0.024687282010912893,-0.017151666908268817,-0.046189714307477696
1772785585201709800,3.197709716796875,0.01291208854317665,-0.05781485004634596,-0.07764112929161637
1772785585211726600,3.2077265625,0.03987783688008785,-0.08856112156896852,-0.0768710947671905
1772785585221742600,3.21774267578125,0.025546529188752172,-0.07247084594767074,-0.0744757240632549
1772785585231760000,3.227759765625,-0.029622400325536726,-0.0561186040550936,-0.05822979665594175
1772785585241775900,3.23777587890625,0.04659165530502796,-0.05114266053973697,-0.03777016967688687
1772785585251792600,3.247792724609375,0.13969663998186588,-0.058786727285804224,-0.017413418550416827
1772785585261808600,3.25780859375,0.1675374175876379,-0.031032027378154452,0.00577916792333126
1772785585271825700,3.26782568359375,0.15526421146988867,-0.041886975612258535,-0.02308018474099226
1772785585281841700,3.277841552734375,0.13490999022722244,-0.0560229525277391,-0.05318593900352716
1772785585291858700,3.287858642578125,0.1386409934490919,-0.10043025866416283,-0.0781352786172647
1772785585301874700,3.297874755859375,0.0826706844240427,-0.13451470729932188,-0.09400046307868323
1772785585311891700,3.3078916015625,-0.013986439776420593,-0.11616280232239513,-0.13747364843646065
1772785585321907700,3.31790771484375,0.0143085113376379,-0.09222032906310633,-0.10920550313093699
1772785585331924700,3.3279248046875,0.05427227293550968,-0.0667025647445349,-0.048644514447916294
1772785585341940700,3.337940673828125,0.061465983831882474,-0.014157709256676025,-0.020512982867797836
1772785585351957800,3.347957763671875,0.1033750342786312,-0.03959932589938398,-0.020645760668301955
1772785585361973800,3.357973876953125,0.1493114405453205,-0.05194265181100927,-0.003033814737945795
1772785585371990800,3.36799072265625,0.17248071920871733,-0.04249530763579532,0.016828010744741186
1772785585382006500,3.378006591796875,0.17183014634549618,-0.04294895142111927,0.01416204293849878
1772785585392023800,3.38802392578125,0.05430091450810432,-0.023350553514435886,-0.015508744839718565
1772785585402039800,3.398039794921875,-0.17452946843206882,0.003080375559721142,-0.08688874964364804
1772785585412056600,3.408056640625,-0.2758218512177467,-0.003921301629580557,-0.11873198609012178
1772785585422072600,3.418072509765625,-0.1963233670890331,-0.027250940220151097,-0.1375673454687465
1772785585432089900,3.42808984375,-0.1034971993535757,-0.06666057506659999,-0.1471082496789284
1772785585442105900,3.43810595703125,-0.0199421333104372,-0.03641012423690408,-0.1409025817055255
1772785585452122600,3.44812255859375,0.07512918300330639,-0.03312674605152569,-0.149546235681884
1772785585462138600,3.458138671875,0.14354571662545204,-0.04947897424437105,-0.11728766903332434
1772785585472156000,3.468156005859375,0.180512049973011,-0.03454344444903545,-0.13666829600348138
1772785585482171600,3.478171630859375,0.1290302845388651,-0.05527148570646532,-0.140931862598937
1772785585492188700,3.488188720703125,0.048369770893454546,-0.031118493235344064,-0.1566193158732727
1772785585502204700,3.49820458984375,0.017995675417780875,-0.0580633905804716,-0.18968283309601247
1772785585512221700,3.5082216796875,0.034767361998558045,-0.0843615418541245,-0.1852200450008735
1772785585522237700,3.51823779296875,0.09403963517844677,-0.06628785103037953,-0.17395137628316878
1772785585532254700,3.528254638671875,0.1800853489935398,-0.09128789791804738,-0.15382846131203695
1772785585542270700,3.538270751953125,0.21493805118799209,-0.06052641969313845,-0.07133035697592421
1772785585552287700,3.548287841796875,0.19261925187408924,-0.05280982656697742,-0.054882888247678056
1772785585562303700,3.5583037109375,0.11672434519529341,-0.05430664099599235,-0.07605560453268699
1772785585572320800,3.56832080078125,0.08796703726649284,-0.04199694792591035,-0.037804574269987644
1772785585582336800,3.578336669921875,0.05202653983533382,-0.04635609298348427,-0.03498054809151217
1772785585592353800,3.588353759765625,-0.021171382844448087,-0.06556958322580904,-0.05437239057542756
1772785585602369800,3.598369873046875,-0.09076280546486377,-0.0443095996493008,-0.026812877596449104
1772785585612386800,3.60838671875,-0.08761281700134277,-0.015015791957313195,-0.02480572075881064
1772785585622402600,3.618402587890625,-0.03597206161320209,-0.029781719073094425,-0.04404936411080416
1772785585632419800,3.628419921875,0.04663549444675445,-0.05299090962177142,-0.049816343839420005
1772785585642435800,3.638435791015625,0.08719020767509937,-0.06784262445801868,-0.06898000359064899
1772785585652452600,3.64845263671875,0.12205167769789695,-0.09227072580978274,-0.09590758447479455
1772785585662468600,3.658468505859375,0.20417349606752394,-0.14116017319578678,-0.10216511049959807
1772785585672486000,3.66848583984375,0.1936439187467098,-0.1132060805418063,-0.08765447331913746
1772785585682502000,3.678501953125,0.09841068986952305,-0.027091365744266658,-0.0959115847964771
1772785585692518700,3.6885185546875,-0.014773790761828422,-0.005473371643479913,-0.090068009867426
1772785585702534700,3.69853466796875,-0.08469722181558609,-0.01837550504822284,-0.10259024970964528
1772785585712552000,3.708552001953125,-0.2063496710628271,0.0054508675507269795,-0.14095219300091266
1772785585722567700,3.718567626953125,-0.2190191830217838,-0.00368865278433077,-0.16622660898370667
1772785585732584700,3.728584716796875,-0.03610182547271251,-0.07248769205119461,-0.15932771631544454
1772785585742600700,3.7386005859375,0.0948790086120367,-0.10312158010737038,-0.12113043466713279
1772785585752617700,3.74861767578125,0.17212240729033945,-0.07480696531161665,-0.11886672751884907
1772785585762633700,3.7586337890625,0.16899404613673685,-0.08683421557797119,-0.08860884230136871
1772785585772650800,3.768650634765625,0.162561382740736,-0.06972358849956653,-0.06931909478532616
1772785585782666800,3.778666748046875,0.11811726085841655,-0.043567996634915465,-0.03399078813549131
1772785585792683800,3.788683837890625,0.07352233232855797,-0.031171894789859652,-0.008173771442286669
1772785585802699800,3.79869970703125,0.0317757789671421,-0.046487318147718906,-0.006361657686135731
1772785585812716800,3.808716796875,0.02414893735051155,-0.06269948941590264,-0.022333910118066704
1772785585822732800,3.81873291015625,0.042404140487313266,-0.09577127214348874,-0.03980721932929009
1772785585832749600,3.82874951171875,0.035518472626805304,-0.05679850347749889,-0.01617546055356506
1772785585842765800,3.838765869140625,0.06918342634141444,-0.007924363258481025,0.017902617706311866
1772785585852782800,3.848782958984375,0.04927870243191719,-0.020923719093156976,0.018927837134781293
1772785585862798600,3.858798583984375,-0.03346154009699821,-0.04670938166687265,-0.026838783789263104
1772785585872815600,3.868815673828125,-0.030752281138300894,-0.10011328340317122,-0.08770036742063239
1772785585882832000,3.878831787109375,-0.007994505885243416,-0.11778557208548299,-0.10643301534345373
1772785585892848600,3.8888486328125,-0.013517653220891952,-0.08145178275411016,-0.09618258375758304
1772785585902864600,3.89886474609375,-0.032953006052970885,-0.0067704896487761285,-0.09186302179172634
1772785585912881700,3.908881591796875,0.022429273951053617,0.038800837032031264,-0.053240025544632225
1772785585922898000,3.91889794921875,0.07974807497560978,0.039068474992271514,-0.006225107892812229
1772785585932914700,3.928914794921875,0.14363339490890503,0.017962567732622847,-0.03847034470234066
1772785585942930700,3.9389306640625,0.14435820205211639,-0.06644840275379829,-0.1104084583130665
1772785585952947700,3.94894775390625,0.05889350299537181,-0.08061526799788699,-0.18163672488769514
1772785585962964000,3.9589638671875,0.025068974804878234,-0.08571672845589928,-0.23422272523669524
1772785585972981200,3.968981201171875,0.06083528471291065,-0.07461981784221716,-0.22732319324761627
1772785585982997200,3.978997314453125,0.12039572718441485,-0.030227243484044444,-0.1834619858197868
1772785585993014000,3.989013916015625,0.16423662247657775,-0.026385308967297894,-0.1672836985548958
1772785586003030000,3.999030029296875,0.20626783799827098,-0.01687870888551697,-0.12955471027176826
1772785586013047300,4.00904736328125,0.16613573409616947,-0.04382958844685927,-0.12638079294338822
1772785586023063300,4.019063232421875,0.04835048167109489,-0.08590878042927942,-0.14681671938644722
1772785586033080000,4.029080078125,0.01737199056148529,-0.08037967827687971,-0.18274790099998936
1772785586043096000,4.039095947265625,0.0787187319278717,-0.08872318939603864,-0.14013693109527228
1772785586053113000,4.049113037109375,0.11252046376466751,-0.08929491573623381,-0.08489108215356245
1772785586063129000,4.059129150390625,0.09528758941292763,-0.06770496041984297,-0.06220487886595074
1772785586073146000,4.06914599609375,0.06937514952123165,-0.023492701931484044,-0.04512180194817483
1772785586083162000,4.079162109375,-0.003963058412075043,-0.0005816266797017306,-0.027757592834345996
1772785586093179000,4.089178955078125,-0.01309504389464855,-0.014344267637608573,-0.04022668685037643
1772785586103195100,4.099195068359375,0.04616027815043926,-0.00756514715780504,-0.027184204260027035
1772785586113212200,4.109212158203125,0.11483224783837795,-0.02395879420642741,0.011118775385618208
1772785586123228200,4.119228271484375,0.13006839541494847,-0.06156247560945339,0.017666685492009854
1772785586133245000,4.129244873046875,0.08110475028157234,-0.06062641860204748,-0.017943328742613084
1772785586143261200,4.13926123046875,0.047402387166023255,-0.06462616489585489,-0.05833514302682597
1772785586153278200,4.1492783203125,0.03928337811827659,-0.029349364670971406,-0.05083221548423171
1772785586163294000,4.1592939453125,-0.0430430229127407,-0.017679896600032226,-0.07171490844725631
1772785586173311000,4.16931103515625,-0.12429273462295531,0.007079318135930225,-0.12039566325233317
1772785586183327200,4.1793271484375,-0.11439034928977489,-0.00019285569097846745,-0.16611852723304182
1772785586193344000,4.189343994140625,-0.016640753677487373,-0.03437380523686297,-0.17106416694168
1772785586203360000,4.199360107421875,0.11506839468181132,-0.10467967800325713,-0.15131023141341282
1772785586213377000,4.209376953125,0.2356727961808443,-0.1561074938936159,-0.15313293506223707
1772785586223393300,4.219393310546875,0.239088157582283,-0.14521546733542345,-0.12568475523693487
1772785586233410000,4.22941015625,0.17665771263241767,-0.10491713088778779,-0.09877930398620664
1772785586243426000,4.239426025390625,0.0733814625531435,-0.09110200169081799,-0.13077709167357535
1772785586253443000,4.249443115234375,0.038346389529109,-0.042875968383299184,-0.0845136819422245
1772785586263459300,4.259459228515625,0.012149871999025345,-0.008081307385861873,-0.059844287214451466
1772785586273476000,4.26947607421875,0.004963175365328788,-0.021335313835041596,-0.04817601558675524
1772785586283492000,4.2794921875,0.06869944221675396,-0.022472957829153165,-0.027100667862151748
1772785586293509000,4.289509033203125,0.09920330155193804,-0.020305906855221836,-0.022728156432928515
1772785586303525000,4.299525146484375,0.06206687233448028,0.010159237037925048,-0.005985773578449152
1772785586313542100,4.309542236328125,0.06622457653582095,0.015165475226845592,0.03257896684249863
1772785586323558100,4.31955810546875,0.036410453030467034,-0.020081888840999453,-0.04116454308922402
1772785586333575000,4.329574951171875,0.03337210824787617,-0.05085031739650294,-0.024447130279219707
1772785586343591200,4.339591064453125,0.05292261189222335,-0.09520502569600939,-0.08526684753024019
1772785586353608200,4.349608154296875,0.04942950907945633,-0.10823661243300885,-0.08767115959245711
1772785586363624200,4.359624267578125,0.08319383151531219,-0.05298248885329813,-0.0525787942900788
1772785586373641000,4.369640869140625,0.073102645611763,-0.07661277262456714,-0.1250595542769879
1772785586383657200,4.3796572265625,-0.011641922476887702,-0.04780028217611834,-0.06669167802433948
1772785586393674200,4.38967431640625,-0.09171732971072197,-0.00223197856945917,-0.06965158270928078
1772785586403690000,4.39968994140625,-0.13405541922450065,-0.013194303018040955,-0.09896025004368275
1772785586413707000,4.40970703125,-0.07611994760632515,-0.04806929010953754,-0.08725775648597628
1772785586423723000,4.419722900390625,-0.034033202505111694,-0.05996241086851805,-0.10800601854752749
1772785586433740000,4.429739990234375,0.032899230039119716,-0.06855106498831882,-0.08707902065189554
1772785586443756000,4.439756103515625,0.1234656361490488,-0.015583974633552133,-0.09848516161153092
1772785586453773000,4.44977294921875,0.21011457655429838,-0.024770941706374287,-0.08415149756632745
1772785586463789000,4.4597890625,0.22445932824909687,-0.007043251308705657,0.002503657950577326
1772785586473806000,4.46980615234375,0.16681553305387495,-0.005026084533706307,-0.0267168927089544
1772785586483822000,4.479822021484375,-0.01381225225329399,0.019843002051208168,-0.03653088737262879
1772785586493839000,4.489839111328125,-0.13140110532343388,0.01706544536296278,-0.07540117291167843
1772785586503855000,4.499855224609375,-0.16140461392104624,0.007205036007985472,-0.14535212672660128
1772785586513872100,4.5098720703125,-0.09098024760782718,0.0077013772907201196,-0.147395067263674
1772785586523888000,4.51988818359375,0.045133857712149617,-0.02400997640439309,-0.09839650608054362
1772785586533905200,4.5299052734375,0.16401567320227622,-0.06222679387023672,-0.13080097487266173
1772785586543921000,4.5399208984375,0.3386602924466133,-0.09824150731507689,-0.10380700508826411
1772785586553938200,4.549938232421875,0.41897476913332937,-0.10103975059832446,-0.056816066533653065
1772785586563954200,4.5599541015625,0.37309623053371904,-0.051485053369775415,-0.05689525098339654
1772785586573971000,4.569970947265625,0.266429168972373,-0.03594321911120787,-0.050321347919222895
1772785586583987000,4.579987060546875,0.0792547385007143,-0.057631008778885,-0.07485392799219116
1772785586594004200,4.590004150390625,-0.1294265903800726,-0.055747496587224304,-0.10862084424393251
1772785586604020200,4.600020263671875,-0.25948504892289637,-0.06125279773892835,-0.12704385996200143
1772785586614037000,4.610037109375,-0.2039490396618843,-0.049299014567583795,-0.1235933815814089
1772785586624053000,4.620052978515625,-0.06984393607676029,-0.03163817886104807,-0.10502203430067747
1772785586634070300,4.6300703125,0.039864392876625056,-0.007945296448655426,-0.025889049882953985
1772785586644086000,4.6400859375,0.08776128556132316,0.008933321105316281,-0.007390247248625382
1772785586654103000,4.65010302734375,0.09210019154846667,-0.05056762799760327,-0.009074501407984643
1772785586664119000,4.660119140625,0.06949673007428646,-0.021090919753070918,0.0014171596218133344
1772785586674136000,4.670135986328125,0.0711287151902914,-0.041902529374416915,0.003778742220578715
1772785586684152000,4.680152099609375,0.048666708013415334,-0.09156288806768134,-0.02422925887799356
1772785586694169000,4.690169189453125,0.05178980847001075,-0.07854045275151729,-0.05029848306686617
1772785586704185000,4.70018505859375,0.07719839049279689,-0.06756426417436451,-0.02248179415615741
1772785586714201000,4.710201171875,0.06997779158949852,-0.07075526050170883,-0.024884357219282536
1772785586724218000,4.720218017578125,0.0717342798680067,-0.04880595208732411,-0.03741008592653088
1772785586734234000,4.730234130859375,0.0072153382062911985,-0.031129590018093584,-0.005427034583990462
1772785586744251100,4.740251220703125,-0.07403145089447498,-0.03736252959091216,-0.024716535504860804
1772785586754267100,4.75026708984375,-0.08581775027811527,-0.057016913734842085,-0.03132619943558238
1772785586764284200,4.7602841796875,-0.03907119667232036,-0.07068694450585171,-0.000012978212581947446
1772785586774300200,4.770300048828125,-0.04751753797829151,-0.10583707701060921,-0.06637113626650534
1772785586784317000,4.78031689453125,0.0158639240860939,-0.09530645851017906,-0.046637467208132145
1772785586794333000,4.7903330078125,0.025978490865230557,-0.06603104499140754,-0.018233703691046686
1772785586804350200,4.80035009765625,0.0727495943903923,-0.03997010000711307,0.0018926088135689497
1772785586814366200,4.8103662109375,0.15704700323343276,-0.07295187549684197,-0.029218924958026034
1772785586824383000,4.820383056640625,0.08989946663379669,-0.07724869590792804,-0.05410788985376712
1772785586834399000,4.83039892578125,0.011087211203575134,-0.014873031618911773,-0.007146542719821445
1772785586844416300,4.840416259765625,0.0425508554816246,-0.029325189210940152,-0.016998129447526298
1772785586854432000,4.850431884765625,0.11365268266499041,-0.10587278764480725,-0.07862480656672269
1772785586864449000,4.860448974609375,0.1629062506556511,-0.1055707724909298,-0.12516635738601908
1772785586874465000,4.870465087890625,0.14408581485152244,-0.0905182378529571,-0.14628582738013937
1772785586884482000,4.88048193359375,0.270694425201416,-0.08388740327004343,-0.11241187055734916
1772785586894498000,4.890498046875,0.43809798727631566,-0.07753563222368247,-0.08705854411944747
1772785586904515000,4.90051513671875,0.38683074137568474,-0.025892812742618843,-0.026920196728711016
1772785586914531000,4.910531005859375,0.13205635436177254,0.05729810529639944,-0.041297348289191724
1772785586924548000,4.920548095703125,-0.16861059977710247,0.029222459488827734,-0.13853318569306283
1772785586934564000,4.930564208984375,-0.3173404410421848,-0.008769015655387192,-0.18858495485670865
1772785586944581000,4.9405810546875,-0.3032154695779085,-0.03995619021276943,-0.18970604957481846
1772785586954597000,4.95059716796875,-0.17429682871997357,-0.05702908822982572,-0.148975605320232
1772785586964614000,4.96061376953125,-0.014407880058884619,-0.06332047085845842,-0.12949394739470443
1772785586974630000,4.9706298828125,0.1310954003751278,-0.07249558309670537,-0.09560423588035627
1772785586984647000,4.98064697265625,0.23197978688180446,-0.09297504728739149,-0.09669777587126009
1772785586994662700,4.99066259765625,0.29033026904165743,-0.1043963766830042,-0.06837200036067516
1772785587004680000,5.000679931640625,0.2916314147680998,-0.07999024970103055,-0.01446617698422633
1772785587014696000,5.010696044921875,0.18711714732646942,-0.043373834902839734,-0.013343748825555666
1772785587024712700,5.020712646484375,0.05940905130207538,0.017336818783404304,-0.0011993475860916077
1772785587034728700,5.030728759765625,-0.046883331727981564,0.05568078802656382,0.017863473006011918
1772785587044746000,5.04074609375,-0.14221885193586348,0.0639923970369622,-0.015236850829469038
1772785587054762000,5.050761962890625,-0.1633025564968586,0.04544612026540562,-0.023657685518136712
1772785587064778800,5.06077880859375,-0.08262450719475746,0.00646377092031762,-0.04816524759756866
1772785587074794800,5.070794677734375,0.0122650228112936,-0.03958474481818266,-0.06261054162397049
1772785587084812000,5.08081201171875,0.01917231798171997,-0.03697570396410301,-0.08871743550868705
1772785587094827800,5.090827880859375,0.03461304821968078,-0.0008446067311335355,-0.0911324698943179
1772785587104844800,5.1008447265625,0.0780342567950487,-0.0006510843198746443,-0.07021902560000308
1772785587114860800,5.11086083984375,0.09122516227960586,-0.022416149607999248,-0.08442675257744267
1772785587124877800,5.1208779296875,0.1307411801099777,-0.05554497801875695,-0.07939294139500706
1772785587134893800,5.130893798828125,0.07478314604461192,-0.09180898091639392,-0.09941765668867156
1772785587144910800,5.140910888671875,-0.04355447956621647,-0.04849427405595779,-0.1294972261971794
1772785587154926800,5.1509267578125,-0.08001870861053466,-0.03630418877755291,-0.10569492859356104
1772785587164944000,5.16094384765625,0.004575052830576897,-0.039131064500240606,-0.08195111057837494
1772785587174959900,5.1709599609375,0.08930559239387512,-0.04565595449064858,-0.06494686648389324
1772785587184977000,5.180976806640625,0.12658347590863703,-0.05168973649586551,-0.05833025678915437
1772785587194993000,5.190992919921875,0.17311960163414478,-0.06485201867413706,-0.08573945174436085
1772785587205010000,5.201010009765625,0.18671441174447537,-0.07155037466846406,-0.09448023681910708
1772785587215026000,5.21102587890625,0.1498696589499712,-0.05139441594425589,-0.05031913312925026
1772785587225043000,5.22104296875,0.15252046571969985,-0.009481182512734086,-0.025236967765947336
1772785587235058700,5.23105859375,0.17371406039595602,-0.041237891453225164,0.0013208893232396803
1772785587245074700,5.24107470703125,0.11095394510030746,-0.01101484922026284,0.0019066734434229147
1772785587255092000,5.251092041015625,0.05986790098547935,0.0076809829566627736,-0.012861045625817495
1772785587265108000,5.26110791015625,0.02539806062877178,-0.05282793761240318,-0.12541878864397293
1772785587275124700,5.271124755859375,-0.04586801720559597,-0.07081731115356087,-0.19547754564834757
1772785587285140700,5.281140625,-0.09002747692763804,-0.025746508740261194,-0.1894860318822786
1772785587295158000,5.291157958984375,-0.053070495930314064,-0.021970753061212597,-0.16385047270320355
1772785587305173800,5.301173828125,0.04373568135201931,-0.023669538069423287,-0.11263061874140985
1772785587315190800,5.311190673828125,0.14217209018468857,-0.042546380235906685,-0.10061325968140736
1772785587325206800,5.321206787109375,0.20496669227182865,-0.08350026711598038,-0.09748918197727761
1772785587335223800,5.331223876953125,0.25785189476311204,-0.10656161015918478,-0.052519931109156454
1772785587345239800,5.34123974609375,0.22601006482243535,-0.0976677625477314,-0.04622058436977677
1772785587355256800,5.3512568359375,0.146714409789443,-0.06621725174589083,-0.07319592251894064
1772785587365272800,5.36127294921875,0.06397708986997604,-0.01979826786033809,-0.010184063235216308
1772785587375289900,5.371289794921875,-0.05645253958404064,0.01394915823964402,0.0038901986718410625
1772785587385305900,5.381305908203125,-0.1062292546659708,0.03372420962117612,-0.00707460999477189
1772785587395323000,5.391322998046875,-0.08699497736394404,-0.013841496614087373,-0.023758138801483437
1772785587405339000,5.4013388671875,-0.03183656924366951,-0.07173000555168837,-0.04505161822221707
1772785587415356000,5.41135595703125,0.0786836606144905,-0.09523306448040529,-0.06443104874913115
1772785587425372000,5.421371826171875,0.14235504553616046,-0.11474204880427569,-0.05009139335455838
1772785587435389000,5.431388916015625,0.13553484412729738,-0.08456535733053461,-0.048206826283549886
1772785587445404700,5.44140478515625,0.09280044877231121,-0.05989173851879313,-0.053587131082406265
1772785587455422000,5.451421875,0.01984510267674923,-0.043659309913869945,-0.04798459836761467
1772785587465438000,5.46143798828125,-0.0661135173767805,-0.03658896966883912,-0.08354764078850857
1772785587475454700,5.471454833984375,-0.14380524434447287,-0.0169069303330034,-0.10740512091177515
1772785587485470700,5.481470703125,-0.1756628563761711,-0.026636680779326707,-0.1120544262886513
1772785587495488000,5.491488037109375,-0.1419482183009386,-0.03148463226715103,-0.12219982659746892
1772785587505504000,5.50150390625,-0.13529226754307747,-0.03331703532608226,-0.1600328689101152
1772785587515520800,5.511520751953125,-0.11498889970481395,-0.07611165470201521,-0.1685763321813196
1772785587525536800,5.521536865234375,-0.04229425037205219,-0.10593076490974053,-0.14436341708335093
1772785587535554000,5.531553955078125,0.08081599646806717,-0.13093089399579913,-0.12814992150776086
1772785587545569800,5.54156982421875,0.21032441991269588,-0.1518375614894554,-0.102548565992387
1772785587555586800,5.5515869140625,0.30925767235159873,-0.13039024778045713,-0.06638827463097405
1772785587565602800,5.561602783203125,0.350977337706089,-0.10379908664328977,-0.054102651989646255
1772785587575619800,5.571619873046875,0.3244213392138481,-0.044977808633912354,-0.006141813523531891
1772785587585635800,5.5816357421875,0.2186807448476553,0.01741425880063325,0.002504041543067433
1772785587595652900,5.59165283203125,0.08091127353608608,0.04089019226040691,-0.0062887659798609085
1772785587605668900,5.6016689453125,-0.0722574269592762,0.025448493908066302,-0.04770957625193987
1772785587615684900,5.611684814453125,-0.14847323615550995,-0.022843225046806036,-0.05650442960148211
1772785587625702000,5.621701904296875,-0.20428630879223345,-0.05726062283022329,-0.10760773081178776
1772785587635718000,5.6317177734375,-0.18194412860274314,-0.054676268892828374,-0.1047322027749382
1772785587645735000,5.64173486328125,-0.08954933802187443,-0.063020885123685,-0.12242946150172501
1772785587655750700,5.651750732421875,0.01856149260699749,-0.08570042577506974,-0.12689823181307874
1772785587665768000,5.661767822265625,0.11050152515769004,-0.09248619519136846,-0.1057950005677063
1772785587675784000,5.671783935546875,0.19642916555106638,-0.06891450973954051,-0.09710253901355899
1772785587685800700,5.68180078125,0.22411621389985084,-0.07927534289732575,-0.07047960819837171
1772785587695816700,5.691816650390625,0.20074761327207089,-0.07370673071844502,-0.05556693868881557
1772785587705834000,5.701833984375,0.18214169700145721,-0.051742754457890984,-0.07358996790440286
1772785587715850000,5.71185009765625,0.11444587886929511,-0.06738428623126819,-0.09807901936289853
1772785587725866800,5.72186669921875,0.06680851390361786,-0.0710240857720375,-0.11339160230970009
1772785587735882800,5.7318828125,0.00003974748849868774,-0.04673013219395652,-0.0828725636716932
1772785587745900000,5.741900146484375,-0.03259469413459301,-0.010915032974444329,-0.001041775554337073
1772785587755915800,5.751915771484375,-0.014199205744266509,-0.024447427106741814,0.006869396004074951
1772785587765932800,5.761932861328125,-0.021676994279026984,-0.005643376181833445,0.015315889148740098
1772785587775948800,5.77194873046875,-0.005050853648781776,-0.009349263228755443,-0.0008415379912126809
1772785587785965800,5.7819658203125,0.07561316712796688,-0.05357669188678264,-0.0368121200333815
1772785587795981800,5.79198193359375,0.09656184713244438,-0.06373197426879779,-0.08680761069883591
1772785587805998800,5.801998779296875,0.12498890019357203,-0.045668092453014106,-0.09878799874931574
1772785587816014800,5.812014892578125,0.17539865248203276,-0.08298610704876482,-0.12225527397859841
1772785587826031900,5.822031982421875,0.17626666748821734,-0.06809866331201046,-0.10781410357146523
1772785587836048000,5.8320478515625,0.05294891537725925,-0.02930107768299058,-0.08268921559457666
1772785587846065000,5.84206494140625,-0.01722936722040176,-0.03162332835178822,-0.10625696465680375
1772785587856081000,5.852080810546875,-0.08514788819253444,-0.07952935419101267,-0.14745720924707129
1772785587866098000,5.862097900390625,-0.09124620506763458,-0.04833177697062492,-0.12694669233099556
1772785587876114000,5.872114013671875,-0.04495440949201584,0.02301288252528757,-0.11153867705254815
1772785587886130700,5.882130615234375,0.047125908312201495,-0.0029070830857381223,-0.08660940297930501
1772785587896146700,5.892146728515625,0.11404840398430824,0.009428246749099343,-0.0703362268054625
1772785587906162700,5.90216259765625,0.1408463945388794,0.01630596876516938,-0.1023016694260761
1772785587916180000,5.912179931640625,0.11869827561676502,-0.012686682289466261,-0.14076005882914178
1772785587926196000,5.922196044921875,0.09190613028109074,-0.012473185669258237,-0.15607667863024396
1772785587936212700,5.932212646484375,0.051044543060660356,-0.026753749554045497,-0.14283116601477377
1772785587946228700,5.942228759765625,0.04131576072871685,-0.0007251542030833661,-0.13097076934846116
1772785587956246000,5.95224609375,0.058523500639200206,-0.007217658027540892,-0.11352256261245347
1772785587966262000,5.962261962890625,0.11537293058633803,-0.05196501890644431,-0.1040189947379753
1772785587976279000,5.972279052734375,0.14901274985969065,-0.0378478836887516,-0.08952566488534211
1772785587986295000,5.982294921875,0.16468378172218798,-0.0166669292983599,-0.07233942898719105
1772785587996312000,5.99231201171875,0.14742051223218441,-0.02061606878293678,-0.07081835233317688
1772785588006328000,6.002328125,0.08855915794074534,-0.0068512906668707725,-0.11962289791470393
1772785588016345000,6.012344970703125,0.06143091251850128,0.01379705468416214,-0.10371303406134247
1772785588026361000,6.022361083984375,0.07365735688507556,-0.009976418683771044,-0.07173575487246271
1772785588036378000,6.032378173828125,0.0329173502177,-0.030379611901007592,-0.09034320094645955
1772785588046394000,6.04239404296875,-0.022173837885260582,-0.047207924039848144,-0.11890215502525679
1772785588056411100,6.0524111328125,-0.012612228813767433,-0.06163757753912359,-0.11464119137884117
1772785588066427000,6.062427001953125,-0.020098785176873205,-0.06724169942280277,-0.11465928415795787
1772785588076444200,6.072444091796875,0.03032499563694,-0.06095823523914441,-0.1070712493149098
1772785588086460200,6.082460205078125,0.14088321941792964,-0.06448208025004715,-0.08007042053146288
1772785588096477000,6.092476806640625,0.21832944719195366,-0.0733150645197369,-0.03776112100403989
1772785588106493000,6.102492919921875,0.217625682836771,-0.05094919292740523,-0.04270054331773426
1772785588116510200,6.11251025390625,0.12787468476295472,-0.008534056122042237,-0.049867288575368
1772785588126526200,6.122526123046875,0.017636778977513312,0.00804387971861288,-0.08140304824155754
1772785588136543000,6.13254296875,-0.07460895852148533,0.013082659337110817,-0.09745283202226274
1772785588146559000,6.14255908203125,-0.1489969677686691,-0.010335899645928293,-0.11345361642893403
1772785588156575200,6.1525751953125,-0.09840601369440555,-0.06674182360926642,-0.07970291152647696
1772785588166592000,6.162592041015625,0.005312719455361366,-0.06147190211601555,-0.04879830307040829
1772785588176608000,6.17260791015625,0.10273673637509345,-0.06302985388142987,-0.012711549585952888
1772785588186625000,6.182625,0.18607494479715822,-0.053495717338752,0.009834612760017625
1772785588196641300,6.192641357421875,0.19382102887928485,-0.022774982116185127,-0.001231256544718053
1772785588206658000,6.202657958984375,0.1491764159888029,-0.02171444021258503,-0.0038516476265853267
1772785588216674000,6.212674072265625,0.10078092613220214,-0.043959534969460215,-0.040498772656871004
1772785588226691000,6.222691162109375,0.0007622165441513061,-0.06020666795317083,-0.09946784337279387
1772785588236707300,6.232707275390625,-0.04238835839629173,-0.0948934937951155,-0.16736776010915635
1772785588246724000,6.24272412109375,-0.053504211172461506,-0.1142813907562755,-0.18748280230108647
1772785588256740000,6.252739990234375,-0.084949150750041,-0.07579836923545226,-0.14000356877287848
1772785588266757000,6.262757080078125,-0.07671499089002609,-0.022343458831124006,-0.10892032038085162
1772785588276773000,6.272773193359375,0.0033685996502637863,0.005979768529348075,-0.07093485028573777
1772785588286790100,6.2827900390625,0.07806874358654022,0.007931176591757684,-0.03166968367758673
1772785588296806100,6.29280615234375,0.15306056394577025,-0.02355864330716431,-0.02647607425698079
1772785588306823000,6.302822998046875,0.20483517484664915,-0.05717793124914169,-0.017361765994993037
1772785588316839200,6.312839111328125,0.2523825234413147,-0.08342692788513377,-0.056407837359211406
1772785588326856200,6.322856201171875,0.2379384030252695,-0.10308299252949654,-0.08540575367743149
1772785588336872200,6.3328720703125,0.19532851083278654,-0.11230314948586746,-0.07443041448364965
1772785588346889000,6.342888916015625,0.09434241751730442,-0.09507637608135118,-0.0916181527857203
1772785588356905000,6.352905029296875,-0.027733810099959372,-0.0831324932495132,-0.07351753742243163
1772785588366922200,6.362922119140625,-0.10204875411093234,-0.05358779780268669,-0.0839187573895324
1772785588376938000,6.37293798828125,-0.13681260897815226,-0.056573279886879026,-0.09883278773911297
1772785588386954000,6.3829541015625,-0.10794482641220092,-0.05350464956387877,-0.09314716158444061
1772785588396971000,6.392970947265625,-0.02489303371608257,-0.07282971042189747,-0.05523575680595822
1772785588406987300,6.4029873046875,0.049643444091081616,-0.0810554860460572,-0.004735860282322392
1772785588417004000,6.413004150390625,-0.03397007414102554,-0.05058783053541556,-0.042873283235868434
1772785588427020000,6.42302001953125,-0.11560615482032298,-0.04090783751495182,-0.08391745134843513
1772785588437037000,6.433037109375,-0.1322574298918247,-0.06584275587769226,-0.13229635539641604
1772785588447053300,6.44305322265625,-0.10474690715372562,-0.0924116321178153,-0.16290267045907675
1772785588457070000,6.453070068359375,-0.08141688497066497,-0.10957124030394479,-0.1726425221743062
1772785588467086000,6.463086181640625,-0.00812017809152603,-0.11910199757944792,-0.17661272271322084
1772785588477103000,6.47310302734375,0.1381669461965561,-0.10709387213867157,-0.15749175132624804
1772785588487119000,6.483119140625,0.27722937992811203,-0.07397634144006296,-0.10920524740261026
1772785588497136000,6.49313623046875,0.3578951542705297,-0.055488699520565565,-0.02232247084202245
1772785588507152100,6.503152099609375,0.31252807232439517,-0.04114281531460583,0.0259657866472844
1772785588517169000,6.5131689453125,0.2162625777900219,-0.011015735136251896,0.05406715141800232
1772785588527185200,6.52318505859375,0.13135785070359707,-0.019552604269888252,0.04580546423024498
1772785588537202200,6.5332021484375,0.04809153847396373,-0.011463588501606135,0.012800435729091987
1772785588547218200,6.54321826171875,0.011809095737338066,-0.01577069284468889,0.021784217513166365
1772785588557235000,6.55323486328125,-0.018639234018325804,-0.016145462707523255,-0.0021828147986438125
1772785588567251200,6.563251220703125,-0.01271861179769039,-0.009881854001805185,-0.0007426624603103846
1772785588577268200,6.573268310546875,0.005030979904532432,0.015590678368974476,-0.020576613555382935
1772785588587284000,6.583283935546875,0.04792904138863086,0.011544709180109202,-0.00087241718666628
1772785588597300000,6.593300048828125,0.08843465477824211,0.00032729572560638185,-0.010726999589055776
1772785588607317200,6.603317138671875,0.09182079008519649,-0.02144716757852584,-0.045059659964777524
1772785588617333200,6.613333251953125,0.06677928780913353,-0.027375498181581494,-0.0607438435697928
1772785588627350000,6.62335009765625,0.02244622508585453,-0.0347222259488888,-0.11175185401234775
1772785588637366000,6.633365966796875,-0.016034019955992698,-0.049550961768347765,-0.1551370596925728
1772785588647383300,6.64338330078125,-0.10655892501175403,-0.06092314565945416,-0.18175501750512046
1772785588657399300,6.6533994140625,-0.19195172787606715,-0.07123442232077941,-0.21764393087951464
1772785588667416000,6.663416015625,-0.20413725571036337,-0.06127862629992887,-0.23787006876310332
1772785588677432000,6.67343212890625,-0.11394669717550276,-0.07075911469291896,-0.19880175816761328
1772785588687449300,6.683449462890625,0.029368717825412748,-0.03126998486947268,-0.11121376508027314
1772785588697465000,6.693465087890625,0.1690840625077486,0.0026649996918626127,-0.05863616723343729
1772785588707482000,6.703482177734375,0.223045369797945,0.0019101992691867053,0.0012986980410292744
1772785588717498000,6.713498046875,0.252303612986207,-0.0004898841424845158,0.013052063269447535
1772785588727515000,6.723514892578125,0.20493512808978556,-0.0027586875909939405,0.008242397965397686
1772785588737531100,6.73353125,0.08828560169637202,0.005600432089250535,-0.014802596731204539
1772785588747548200,6.743548095703125,-0.011162614527344702,0.013609258760791271,-0.06990431536133401
1772785588757564200,6.753564208984375,-0.03864741830229759,-0.01273043009964749,-0.10530066857896744
1772785588767581000,6.763580810546875,0.018393734824657438,-0.025006266565900295,-0.09765805400446988
1772785588777597200,6.77359716796875,0.11087561916708946,-0.01623852955214679,-0.07969903906895778
1772785588787613200,6.78361328125,0.2123100407719612,0.038574535729177295,-0.024233345964644104
1772785588797630000,6.7936298828125,0.24098726920187472,0.03679194489503279,-0.010449516088236122
1772785588807646000,6.80364599609375,0.22983634511232376,0.030158626094087957,-0.026085184376407413
1772785588817663200,6.813663330078125,0.1926297732681036,-0.00977245707688853,-0.07180254106493666
1772785588827679200,6.82367919921875,0.10123919129371642,-0.06089751802785322,-0.10566858857590705
1772785588837696000,6.833696044921875,0.011641337954998016,-0.07325790923871099,-0.11733323434125631
1772785588847712000,6.8437119140625,-0.06985971816778183,-0.07405185436168685,-0.12563092442415655
1772785588857729300,6.853729248046875,-0.09343348597884178,-0.0683507749095559,-0.1400509515785612
1772785588867745300,6.863745361328125,-0.06446633469164371,-0.08537919446406886,-0.13894450644031167
1772785588877762000,6.873761962890625,-0.03398702527582645,-0.06993035398488864,-0.11358683262085541
1772785588887778000,6.883778076171875,0.017751345267891884,-0.0840465028218925,-0.11058701148405671
1772785588897795300,6.89379541015625,0.05872457616925239,-0.07611275068055838,-0.08229058079896494
1772785588907811000,6.90381103515625,0.07829846068918704,-0.08770029435539618,-0.04139814178254455
1772785588917828000,6.913828125,0.051036359754204744,-0.04577321506161242,-0.019512381857354193
1772785588927844000,6.923843994140625,-0.022013678887486458,0.006820402338262647,-0.008596599964238703
1772785588937861000,6.933861083984375,-0.012155132696032524,0.015450740175321697,-0.02070464211553335
1772785588947877000,6.943877197265625,0.06938450187146664,0.009240834418218583,-0.03476390966614708
1772785588957894100,6.95389404296875,0.10483575448095798,-0.006895129808597266,-0.02386898789796978
1772785588967909400,6.963909423828125,0.11110124461650847,-0.020203359796199947,-0.05303255680641159
1772785588977925400,6.97392529296875,0.13083119648098945,-0.04270027388967573,-0.04616891811462119
1772785588987942400,6.9839423828125,0.10747603985667228,-0.06358147814851253,-0.05094979571560397
1772785588997958400,6.99395849609375,0.02695931859612465,-0.05746341539332643,-0.04707914656102657
1772785589007975400,7.003975341796875,-0.05864332762658596,-0.027686792620457708,-0.06808960322272033
1772785589017991400,7.013991455078125,-0.0740653531640768,-0.024779636469483373,-0.1232084099849686
1772785589028008400,7.024008544921875,-0.010776830080151557,-0.05145151642635464,-0.12424113229988142
1772785589038024400,7.0340244140625,0.0930535467505455,-0.05030134174423292,-0.10365664596529676
1772785589048041200,7.044041259765625,0.1501823781609535,-0.061869285669457166,-0.09164729668181389
1772785589058057200,7.05405712890625,0.19951485660672186,-0.08031363643649965,-0.06505651913713663
1772785589068074500,7.064074462890625,0.21218086143434045,-0.08535276311486958,-0.03581626826329157
1772785589078090500,7.074090576171875,0.14942717587947846,-0.06031825683517381,-0.03334891003537923
1772785589088107300,7.084107177734375,0.028922727623581886,-0.03305390914417803,-0.050006578315049406
1772785589098123300,7.094123291015625,-0.06822597948610783,-0.033088505533523854,-0.0961390734094195
1772785589108140300,7.104140380859375,-0.10504676688313483,-0.03360250120395794,-0.10024093750398605
1772785589118156500,7.114156494140625,-0.1334510235905647,-0.027332334893289952,-0.08199415513565764
1772785589128173300,7.12417333984375,-0.11484569184184074,0.0010450155409052967,-0.06378724811999127
1772785589138189300,7.134189208984375,-0.04460895705521106,0.004598506771400571,-0.03270825577797368
1772785589148205300,7.144205322265625,0.0652817427277565,-0.010520846025086938,0.002290266361646354
1772785589158222300,7.154222412109375,0.1467278537929058,-0.02959021508898586,0.01674673480261117
1772785589168238300,7.16423828125,0.2152940250188112,-0.06229275351222604,0.020779077324923127
1772785589178255400,7.17425537109375,0.18987609064579009,-0.05743196080913767,-0.015756920047663152
1772785589188271400,7.184271240234375,0.10728139406740665,-0.04853663362665102,-0.06079040439156815
1772785589198288400,7.194288330078125,0.044727614998817444,-0.04396981890145689,-0.06353698141966015
1772785589208304400,7.204304443359375,0.036194764453172684,-0.03673066142816096,-0.07305962845394387
1772785589218321400,7.2143212890625,-0.002109539499878883,-0.033390118828602135,-0.06882067570993676
1772785589228337400,7.22433740234375,-0.04549450771808624,-0.03106116442438215,-0.09135695369942114
1772785589238354400,7.2343544921875,-0.03545183713138103,-0.019368863467127084,-0.11326503505427389
1772785589248370400,7.244370361328125,-0.0017576573222875594,-0.05035427750786766,-0.10942560302186757
1772785589258387200,7.25438720703125,0.06469838988184928,-0.046216812376957385,-0.08965840615322813
1772785589268403200,7.2644033203125,0.14085750045478343,-0.05723207258917391,-0.10953615072425454
1772785589278420500,7.27442041015625,0.18137538880407808,-0.07520272316355257,-0.09501956786019727
1772785589288436500,7.2844365234375,0.20000936212539672,-0.08431306306989864,-0.08664262026231735
1772785589298452500,7.294452392578125,0.2187538100838661,-0.08541989180063829,-0.09689115215204655
1772785589308469200,7.30446923828125,0.2290887416154146,-0.0732840117943473,-0.08466759386230259
1772785589318485200,7.3144853515625,0.20798983948528765,-0.03597953253360465,-0.05271627566516399
1772785589328502500,7.32450244140625,0.16788287002444266,0.009596716917492448,-0.0371211220504716
1772785589338518300,7.334518310546875,0.13106617428064346,0.00006451660357415676,-0.02610244603846222
1772785589348535300,7.344535400390625,0.005532499685883522,0.0007486081439070404,-0.07592528355075046
1772785589358551300,7.35455126953125,-0.1649965009331703,-0.018391268872935324,-0.12136983291357754
1772785589368568300,7.364568359375,-0.2841711618900299,-0.04130843593878671,-0.14844760852390898
1772785589378584300,7.374584228515625,-0.32595804726183414,-0.01813835355779156,-0.16585673449169844
1772785589388601300,7.384601318359375,-0.1299362934678793,-0.017034666632208973,-0.13455723126679658
1772785589398617300,7.394617431640625,0.07491875512301921,-0.03629331119051203,-0.09223048513093962
1772785589408634400,7.40463427734375,0.17500293116271495,-0.01695599363911897,-0.08762383158570156
1772785589418650400,7.414650390625,0.24452713376581667,-0.018437720096856354,-0.03330170989278704
1772785589428667400,7.42466748046875,0.27708032684624195,-0.06527604363933205,-0.039273733507096766
1772785589438683400,7.434683349609375,0.21728958275020122,-0.06063992653759196,-0.0207147433844395
1772785589448700400,7.444700439453125,0.11304653346538543,-0.02139498073356226,-0.02899520833790302
1772785589458716400,7.45471630859375,0.017647884893417357,-0.03274986642999574,-0.07321091002551838
1772785589468732400,7.464732421875,-0.07233750645816325,-0.03108575087636709,-0.11580617090445011
1772785589478749200,7.474749267578125,-0.15870120018124578,-0.025124139058217403,-0.1186516234634444
1772785589488765200,7.48476513671875,-0.17094284211695193,-0.015293923912104218,-0.11422339522503316
1772785589498782500,7.494782470703125,-0.2030377700358629,0.014055431625712662,-0.08824079444026574
1772785589508798500,7.504798583984375,-0.1691051052957773,0.01617319096466526,-0.10309437244003639
1772785589518815200,7.514815185546875,-0.05613806680738925,-0.03980356606747955,-0.09349970134915783
1772785589528831200,7.524831298828125,0.0845177735954523,-0.08109521526824683,-0.07812246480146423
1772785589538848500,7.5348486328125,0.1895569416940212,-0.106307653664425,-0.0758921667324379
1772785589548864300,7.5448642578125,0.23606968654394148,-0.09865938566727563,-0.058258310364373025
1772785589558881300,7.55488134765625,0.22449966025948523,-0.06264266292843967,-0.06536395938480273
1772785589568897300,7.564897216796875,0.11910744093954563,-0.017685385625902564,-0.07424534937348216
1772785589578914300,7.574914306640625,0.010421440771222115,-0.0037501280474476514,-0.10451801203498616
1772785589588930300,7.584930419921875,-0.09123334558606147,-0.028778971771337092,-0.1337384987624362
1772785589598946300,7.5949462890625,-0.05912263557612896,-0.03303166077975184,-0.1449759686242789
1772785589608963300,7.60496337890625,0.045692076116800304,-0.06068803999563679,-0.13117275819396598
1772785589618979300,7.614979248046875,0.16455810951590538,-0.02863766360450536,-0.06588838511770591
1772785589628996400,7.624996337890625,0.17507190474569798,0.03640435208324343,0.010501629867963493
1772785589639012400,7.635012451171875,0.18645663759112358,0.026895952770020812,0.021500998391304163
1772785589649029400,7.645029296875,0.20934417670369146,0.00028161168666556477,0.012535035391710699
1772785589659045400,7.65504541015625,0.17386252895593643,0.0053394430655054744,-0.00023841186575591564
1772785589669062400,7.6650625,0.10155191050469875,-0.012006956396996974,-0.02711056363508105
1772785589679078400,7.675078369140625,0.04792845686674118,-0.02193308793194592,-0.07748871520888059
1772785589689095200,7.68509521484375,0.03963467577397823,-0.03587835544776171,-0.08623946455521508
1772785589699111400,7.695111328125,0.06215805774927139,-0.062203248597867786,-0.10306708257431164
1772785589709128400,7.70512841796875,0.10770575695931911,-0.09557758533544838,-0.10111404881039633
1772785589719144400,7.71514453125,0.14307459198236464,-0.07877455376833677,-0.092970197582338
1772785589729161200,7.7251611328125,0.10706921262145042,-0.08880071161165833,-0.11651399038024246
1772785589739177500,7.735177490234375,0.023786533778905865,-0.06826457619713619,-0.09926166240936145
1772785589749193500,7.745193359375,-0.006510989329218864,-0.04408129818560556,-0.07111970989992841
1772785589759210200,7.755210205078125,-0.062225862288475035,-0.08371244856193662,-0.05590604814980179
1772785589769226200,7.765226318359375,-0.11642156285643578,-0.0853569643659517,-0.07480707490947097
1772785589779243300,7.7752431640625,-0.14947686024010182,-0.06531706976946443,-0.08048976018838584
1772785589789259500,7.785259521484375,-0.11350713671445846,-0.042189109497144814,-0.0799041788527742
1772785589799276300,7.7952763671875,-0.024538228929042814,-0.01888838647380471,-0.07663529498362913
1772785589809292300,7.805292236328125,0.09092588707208633,-0.028048337675537913,-0.059803804507013406
1772785589819309300,7.815309326171875,0.17854513381421566,-0.05446136576682329,-0.059024070572480554
1772785589829325300,7.8253251953125,0.19836042587459085,-0.07243946899529546,-0.019648027468379587
1772785589839342300,7.83534228515625,0.20766659888029096,-0.08604671846209093,-0.027892544325627384
1772785589849358300,7.8453583984375,0.20196751045584677,-0.1024502110512927,-0.03496509479405358
1772785589859375400,7.855375244140625,0.2083539966225624,-0.07093269942784682,-0.041695754755940284
1772785589869391400,7.865391357421875,0.17551380329430102,-0.05028959650751203,-0.049380482305958866
1772785589879407400,7.875407470703125,0.05827449431419372,-0.0005423449820838868,-0.07630131378890946
1772785589889424400,7.88542431640625,-0.06791969001591205,0.05454560998417437,-0.09143962701419368
1772785589899440400,7.8954404296875,-0.20933716244101522,0.054104643017333,-0.11270119062643498
1772785589909457400,7.90545751953125,-0.24881460182666776,0.02932924433154985,-0.1476851179851219
1772785589919473400,7.915473388671875,-0.18324527432918547,-0.024916688586305826,-0.13895225135535
1772785589929490400,7.925490478515625,-0.16576280913054942,-0.05851929938811808,-0.2113520824600011
1772785589939506200,7.935506103515625,0.08201426634192466,-0.07209936858704313,-0.16232019439600406
1772785589949523500,7.9455234375,0.3504091824293136,-0.16420840102909132,-0.08255971659654751
1772785589959539500,7.95553955078125,0.4197597820311785,-0.1639166880735196,-0.13675035739690064
1772785589969556000,7.965555908203125,0.33617373632788655,-0.08510172922955825,-0.09081148517848923
1772785589979572000,7.975572021484375,0.21769231833219527,-0.04015305535858497,-0.08834129567267372
1772785589989589200,7.98558935546875,0.25869360628426075,-0.0861504345648922,-0.09673641824806109
1772785589999605200,7.995605224609375,0.34500060138404365,-0.10348819406321272,-0.04672799503579735
1772785590009621200,8.005621337890625,0.2950672344356775,-0.11073564444081857,0.017498941409401593
1772785590019638000,8.015637939453125,0.21512860532402991,-0.09573694061562418,-0.05309491798551753
1772785590029654000,8.025654052734374,0.2102618760704994,-0.11864594264132901,-0.0727326432555914
1772785590039671300,8.03567138671875,0.1701899779230356,-0.11356904123583808,-0.0660479778598994
1772785590049687000,8.04568701171875,0.11004325999617576,-0.08699413711372762,-0.03228031268948689
1772785590059704000,8.0557041015625,-0.02775952906310558,-0.04552000748552382,-0.0280840300434269
1772785590069720000,8.065719970703125,-0.18211013281941413,-0.028248591221682724,-0.01053436309378594
1772785590079737000,8.075737060546874,-0.35296705021858216,-0.06024257951676845,-0.017902590306848286
1772785590089753000,8.085753173828126,-0.5554466018497943,-0.03456957440413534,-0.11205617072116583
1772785590099770000,8.09577001953125,-0.5263339046120643,-0.02329812920745462,-0.11019474249714985
1772785590109786000,8.1057861328125,-0.24187048177719114,-0.03376227660924196,-0.06785471675461158
1772785590119803100,8.11580322265625,-0.01903553985953331,-0.04219093612805009,-0.03556777339493856
1772785590129819100,8.125819091796876,0.09262333863973617,-0.03439889401234686,-0.06102512646289542
1772785590139835100,8.135835205078125,0.06452829401195048,-0.018402904511801897,-0.09025301104551181
1772785590149852200,8.14585205078125,0.06143266608417034,0.008582388775795698,-0.08811066525457427
1772785590159868000,8.155867919921874,0.157533325445652,-0.07157682428397238,-0.09015252807941287
1772785590169885200,8.16588525390625,0.27723580966889855,-0.14024397166632116,-0.10520215837424621
1772785590179901200,8.175901123046875,0.25551380720436573,-0.13404186562318354,-0.08522725530536845
1772785590189918000,8.18591796875,0.06815934399068355,-0.07740191370826215,-0.09601234175721182
1772785590199934000,8.195933837890625,-0.09329846142232417,-0.02814891197318211,-0.11574737165560946
1772785590209951200,8.205951171875,-0.06979658980369567,-0.021764033241663126,-0.12444292021598666
1772785590219967200,8.21596728515625,0.020459435182809828,0.01590725177116692,-0.0644072066492401
1772785590229984000,8.22598388671875,0.052819736039638514,0.0333773872111924,-0.028207272830605506
1772785590240000000,8.236,0.09357786288559436,0.02966921687563881,-0.0328157712730579
1772785590250017300,8.246017333984375,0.12402502359747886,-0.0055210832427255805,-0.01365543599007651
1772785590260033000,8.256032958984376,0.10269465079903602,-0.028987920080590993,-0.04608945967024192
1772785590270049000,8.266049072265625,0.0705798491358757,-0.06483942405404523,-0.07546992273237556
1772785590280066000,8.276066162109375,0.09694646253585815,-0.08248323556054384,-0.06619777986044063
1772785590290082300,8.286082275390624,0.1525917773902416,-0.11437783686807379,-0.11025219003912061
1772785590300099000,8.29609912109375,0.24947394251823424,-0.12974667091360315,-0.13783703838875516
1772785590310115000,8.306114990234375,0.2803343602061272,-0.11259226862555369,-0.12849402223769574
1772785590320132000,8.316132080078125,0.21256606135964393,-0.045457682839035986,-0.11856606407184153
1772785590330148000,8.326148193359375,0.13954466429054735,-0.027010500794090328,-0.11375270897336304
1772785590340165000,8.3361650390625,0.15661971773207187,-0.05704992095530033,-0.1541230968770571
1772785590350181000,8.34618115234375,0.18298399304449559,-0.08420216830763966,-0.15097871617041528
1772785590360198100,8.3561982421875,0.10836451312899589,-0.06281458542924374,-0.09833806302472949
1772785590370214000,8.3662138671875,-0.016397008049488068,-0.056577261942252516,-0.1110309010603465
1772785590380231200,8.376231201171874,-0.054525955435633655,-0.0164438063332811,-0.1500220547663979
1772785590390247200,8.3862470703125,-0.006119944185018539,-0.059553135947883126,-0.13088071644483135
1772785590400263200,8.39626318359375,0.07433131062388419,-0.07808949411362409,-0.11116006213165819
1772785590410280000,8.406280029296875,0.09296703751087187,-0.09265987125784159,-0.13612939422065393
1772785590420296200,8.416296142578124,0.03574994329512119,-0.054456068537198005,-0.09056390362558886
1772785590430313200,8.426313232421874,-0.07469955941438675,-0.014480579968914388,-0.07551215443890541
1772785590440329000,8.436328857421875,-0.1759773291528225,0.010920184073597192,-0.03205947301303968
1772785590450346000,8.446345947265625,-0.20955752719342707,0.10338394823744892,-0.0026540399064309893
1772785590460362200,8.4563623046875,-0.21138708070814607,-0.021515848900564013,-0.057242319988552476
1772785590470379000,8.46637890625,-0.05502981330454349,-0.1157898773567751,-0.1504595328682102
1772785590480395000,8.47639501953125,0.10862930154502391,-0.2502864279448986,-0.1729202979360707
1772785590490412000,8.486412109375,0.26115911961495875,-0.3094108536193147,-0.20037525456203148
1772785590500428300,8.49642822265625,0.3432815225064754,-0.22262981126699596,-0.1347933233113028
1772785590510444300,8.5064443359375,0.2641945417881012,-0.12169862647652625,-0.05083015139130875
1772785590520461000,8.5164609375,-0.14316051670014857,0.015624891165830193,-0.01233680027271621
1772785590530477000,8.52647705078125,-0.25037995144724845,0.09484715216904878,-0.011480064712371677
1772785590540494000,8.536494140625,-0.17899755375683307,0.03537961214538663,0.01323700964860618
1772785590550510000,8.546510009765624,-0.13422200796306133,-0.019059066865593194,0.005959702988853678
1772785590560527000,8.556527099609376,0.01018061775267124,-0.04005206093583256,-0.0385958525118418
1772785590570543000,8.566543212890625,0.17126374463438987,-0.1052207717431709,-0.024258051147637887
1772785590580560100,8.57656005859375,0.41844402325749397,-0.0886938902363181,0.07939664945574477
1772785590590576000,8.586576171875,0.5581728119432926,-0.11079236133042722,0.13464651698544622
1772785590600593200,8.59659326171875,0.5157482131898403,-0.0656058235829696,0.07388966780360788
1772785590610609200,8.606609130859376,0.4088040882527828,-0.03508453818894922,-0.05748485090699978
1772785590620625000,8.616625,0.47635377591252326,-0.07608619146719574,0.08153835592586546
1772785590630642200,8.62664208984375,0.4982593182504177,0.005967018645629286,0.02656401740191504
1772785590640658200,8.636658203125,0.34765199267566205,0.023475896927155553,0.01703386291461065
1772785590650675000,8.646675048828126,0.1835714375436306,0.010348448600247502,0.05617897420651279
1772785590660691000,8.65669091796875,-0.21947920174896715,-0.05274192156307399,-0.058471925715589894
1772785590670708200,8.666708251953125,-0.6182049635797738,-0.05080452375970781,-0.24729847990898415
1772785590680724200,8.67672412109375,-0.8033329829156398,-0.01767214255183935,-0.23504783268291501
1772785590690741000,8.686740966796876,-0.7550082202076911,-0.04905541507005691,-0.23595042581213638
1772785590700757000,8.696757080078125,-0.49744683282375335,-0.11667319952994584,-0.21498592718401924
1772785590710774300,8.706774169921875,-0.20720658015310764,-0.15233612212873995,-0.13660241855988278
1772785590720790300,8.716790283203125,0.09928104296326637,-0.11680036957357078,-0.005299220652971416
1772785590730806000,8.726805908203126,0.2989315086483955,-0.08102368440199643,0.1120836432499811
1772785590740823000,8.736822998046875,0.30317455304563046,-0.012848814048618077,0.15513179899556562
1772785590750839000,8.746839111328125,0.23970658174157142,-0.033102205265313385,0.16492098801154642
1772785590760856000,8.75685595703125,0.1880062051206827,-0.05470733988452702,0.09588955562775954
1772785590770872000,8.7668720703125,0.10571429088115691,-0.0861656504003331,0.01863716992540285
1772785590780889000,8.77688916015625,0.07964403007924556,-0.11686762612350285,-0.04157967236191034
1772785590790905000,8.786905029296875,0.02934650599360466,-0.08258242161870002,-0.037160376348625866
1772785590800922000,8.796922119140625,-0.0041512744605541226,-0.028522257063910362,0.023231365847866982
1772785590810938000,8.806938232421874,-0.10747019463777542,-0.018569566315598786,0.009819858148880303
1772785590820955100,8.816955078125,-0.20277999588251114,-0.029915866846777498,-0.01748352464456111
1772785590830971000,8.826970947265625,-0.057386021041870114,-0.06797763074822724,-0.0228399553774856
1772785590840987100,8.836987060546875,0.05740706382989883,-0.08539415457118302,0.04886484266771003
1772785590851004200,8.847004150390624,0.09741115743815898,-0.06958784242384135,0.06879987038392574
1772785590861020200,8.857020263671876,0.031022330251336095,-0.0603677767990157,0.055930616335477676
1772785590871037000,8.867036865234375,0.1322007312685251,-0.1187380231052637,0.04932950103739276
1772785590881053200,8.87705322265625,0.2071726778835058,-0.16614526910949498,-0.004240012189932168
1772785590891070200,8.8870703125,0.20831249556839465,-0.2040590759076178,-0.030423578906897453
1772785590901086200,8.897086181640624,0.23956921909749507,-0.20112905033770948,-0.06885651420829818
1772785590911103000,8.90710302734375,0.28721827450096604,-0.13160755114834755,-0.06609550679605454
1772785590921119200,8.917119140625,0.1833709465354681,-0.028318587717972694,-0.014770977750234305
1772785590931136300,8.92713623046875,0.16953472888469695,0.008528137837909162,-0.04804813772365451
1772785590941152000,8.937152099609374,0.15518822362422943,-0.016326975020579993,-0.04640822502952069
1772785590951168000,8.94716796875,0.2179699662297964,-0.04592920934092253,-0.08865322943236678
1772785590961185300,8.957185302734375,0.31277532508373257,-0.09461871370803564,-0.13054657085333018
1772785590971201300,8.967201171875,0.3501256893128156,-0.11061609144806861,-0.13747264378946275
1772785590981218000,8.977218017578124,0.2924053217500448,-0.06030041065122932,-0.16416061636460944
1772785590991234000,8.987234130859376,0.07641103950738906,0.025716661591269074,-0.1687901393287815
1772785591001251000,8.9972509765625,-0.1274427230864763,0.07794018530342728,-0.12629028338203205
1772785591011267000,9.00726708984375,-0.31869068660736083,0.041997422849945724,-0.1460858660949394
1772785591021284000,9.0172841796875,-0.468951975223422,-0.005651559488289058,-0.19081903405170886
