time,seconds_elapsed,z,y,x
1772785582066541000,0.062541015625,0.3405393362045288,-0.5147671103477478,0.6270825862884521
1772785582076557800,0.072557861328125,0.37663495540618896,-0.4782252609729767,0.5382977724075317
1772785582086573800,0.08257373046875,0.41379934549331665,-0.41000092029571533,0.4961588680744171
1772785582096590800,0.0925908203125,0.44517865777015686,-0.3398818075656891,0.4971574544906616
1772785582106606800,0.10260693359375,0.44619280099868774,-0.32333236932754517,0.54108065366745
1772785582116624000,0.112623779296875,0.43301406502723694,-0.35224419832229614,0.653607964515686
1772785582126639900,0.122639892578125,0.4118720293045044,-0.43066149950027466,0.7756521701812744
1772785582136656600,0.13265673828125,0.410487562417984,-0.5915054678916931,0.8101730942726135
1772785582146673000,0.1426728515625,0.43296968936920166,-0.6798443794250488,0.7550861239433289
1772785582156690000,0.15268994140625,0.45271432399749756,-0.7222555875778198,0.5883394479751587
1772785582166706000,0.162705810546875,0.4404517710208893,-0.6999204754829407,0.3410814106464386
1772785582176722700,0.17272265625,0.40135857462882996,-0.534611701965332,0.09501424431800842
1772785582186739000,0.182739013671875,0.3606383204460144,-0.2672191560268402,-0.11054717004299164
1772785582196756000,0.192755859375,0.3695063591003418,-0.005430137738585472,-0.2785889506340027
1772785582206772700,0.202772705078125,0.4102921187877655,0.1844753473997116,-0.4049665927886963
1772785582216788700,0.212788818359375,0.4224109649658203,0.3048432469367981,-0.5058033466339111
1772785582226806000,0.222805908203125,0.36778926849365234,0.3819468021392822,-0.5751174092292786
1772785582236822000,0.232822021484375,0.2810858488082886,0.44153040647506714,-0.596487283706665
1772785582246838800,0.2428388671875,0.21525169909000397,0.44749563932418823,-0.5759990811347961
1772785582256854800,0.252854736328125,0.17508867383003235,0.3761174976825714,-0.5364918112754822
1772785582266871800,0.262871826171875,0.1434471309185028,0.2698853313922882,-0.5024678111076355
1772785582276887800,0.2728876953125,0.1102454662322998,0.23141202330589294,-0.46832510828971863
1772785582286904800,0.28290478515625,0.08738915622234344,0.2602183520793915,-0.42113521695137024
1772785582296920800,0.2929208984375,0.09590060263872147,0.2845413088798523,-0.36990588903427124
1772785582306937900,0.302937744140625,0.10845527052879333,0.2766370475292206,-0.33808907866477966
1772785582316953900,0.312953857421875,0.08958948403596878,0.2468741238117218,-0.32424649596214294
1772785582326971000,0.322970947265625,0.04564759507775307,0.2107352912425995,-0.28368547558784485
1772785582336987000,0.33298681640625,0.01005660742521286,0.2288724035024643,-0.1884695589542389
1772785582347004000,0.34300390625,0.012593533843755722,0.22454077005386353,-0.0694720670580864
1772785582357020000,0.35302001953125,0.03531133383512497,0.1464063823223114,0.03243732079863548
1772785582367037000,0.363036865234375,0.052202966064214706,0.04654103145003319,0.08502276986837387
1772785582377053700,0.3730537109375,0.04470231011509895,0.02950369566679001,0.09526947885751724
1772785582387070000,0.383070068359375,0.04064924642443657,0.09461771696805954,0.06056928262114525
1772785582397087000,0.3930869140625,0.05265281721949577,0.18343320488929749,-0.006253795698285103
1772785582407102700,0.403102783203125,0.08323922753334045,0.2319495975971222,-0.09375461935997009
1772785582417119700,0.41311962890625,0.11030511558055878,0.26872625946998596,-0.16711965203285217
1772785582427136000,0.423135986328125,0.1360035538673401,0.28456568717956543,-0.2097874879837036
1772785582437152800,0.43315283203125,0.14784130454063416,0.28194406628608704,-0.22530439496040344
1772785582447168800,0.443168701171875,0.14971224963665009,0.26378780603408813,-0.22582721710205078
1772785582457185800,0.453185791015625,0.1265777200460434,0.22563640773296356,-0.22192856669425964
1772785582467202000,0.4632021484375,0.09123703837394714,0.16714993119239807,-0.2190571427345276
1772785582477218800,0.47321875,0.06302689015865326,0.08689772337675095,-0.2153008133172989
1772785582487234800,0.48323486328125,0.04900188371539116,-0.032138653099536896,-0.22401094436645508
1772785582497251800,0.493251953125,0.046217527240514755,-0.12411972880363464,-0.22445769608020782
1772785582507267800,0.503267822265625,0.04360310360789299,-0.11489000916481018,-0.20968301594257355
1772785582517284900,0.513284912109375,0.031241582706570625,-0.0164556372910738,-0.15868672728538513
1772785582527300900,0.52330078125,0.024213766679167747,0.06665895879268646,-0.08397439867258072
1772785582537317600,0.533317626953125,0.03510165959596634,0.1014343798160553,-0.01262741256505251
1772785582547334000,0.543333984375,0.04124051332473755,0.13200508058071136,0.0456010065972805
1772785582557351000,0.553350830078125,0.026853501796722412,0.19924421608448029,0.09347745031118393
1772785582567367700,0.56336767578125,0.0018802417907863855,0.26391398906707764,0.12665323913097382
1772785582577383700,0.5733837890625,-0.01647067442536354,0.29970815777778625,0.15055601298809052
1772785582587401000,0.58340087890625,-0.031172921881079674,0.2907727360725403,0.14864198863506317
1772785582597417000,0.5934169921875,-0.04833652451634407,0.22349384427070618,0.11191841959953308
1772785582607433700,0.603433837890625,-0.06925059854984283,0.1400492787361145,0.05287693813443184
1772785582617449700,0.61344970703125,-0.08045162260532379,0.07635680586099625,-0.01259845681488514
1772785582627467000,0.623467041015625,-0.06482712179422379,0.048785895109176636,-0.08990389108657837
1772785582637483000,0.63348291015625,-0.04036400467157364,0.046803221106529236,-0.15822352468967438
1772785582647499800,0.643499755859375,-0.012653812766075134,0.042224179953336716,-0.19404517114162445
1772785582657515800,0.653515869140625,0.014699053950607777,0.029585465788841248,-0.20251460373401642
1772785582667532800,0.66353271484375,0.04081214591860771,-0.003151974407956004,-0.18334250152111053
1772785582677548800,0.673548828125,0.04696087911725044,-0.020492441952228546,-0.13397955894470215
1772785582687565800,0.68356591796875,0.03697722405195236,-0.01212026085704565,-0.08499229699373245
1772785582697581800,0.693581787109375,0.03157356381416321,-0.010087380185723305,-0.052149347960948944
1772785582707598800,0.703598876953125,0.02756071463227272,-0.017313867807388306,-0.0480070635676384
1772785582717614800,0.71361474609375,0.02712688222527504,-0.036681972444057465,-0.048416659235954285
1772785582727632000,0.7236318359375,0.028015315532684326,-0.02305297926068306,-0.031049121171236038
1772785582737647900,0.73364794921875,0.027213113382458687,0.012047935277223587,0.00036993040703237057
1772785582747665000,0.743664794921875,0.025703366845846176,0.003350051585584879,0.009626545943319798
1772785582757681000,0.753680908203125,0.029038269072771072,0.007349193561822176,0.004208450671285391
1772785582767698000,0.763697998046875,0.037298861891031265,0.03670947998762131,-0.006964841391891241
1772785582777715000,0.77371484375,0.04139888286590576,0.04577833041548729,-0.02699309214949608
1772785582787731000,0.78373095703125,0.038701366633176804,0.027467498555779457,-0.042192548513412476
1772785582797748000,0.793748046875,0.046575527638196945,0.012380804866552353,-0.04740520939230919
1772785582807763700,0.803763671875,0.06792902201414108,0.013301991857588291,-0.03814619407057762
1772785582817780700,0.81378076171875,0.08705101162195206,0.005082635674625635,-0.04012121632695198
1772785582827797000,0.823796875,0.09309052675962448,-0.03358433395624161,-0.061748482286930084
1772785582837813800,0.833813720703125,0.08531659096479416,-0.06683573871850967,-0.08880097419023514
1772785582847829800,0.843829833984375,0.07193446904420853,-0.0927022248506546,-0.11225010454654694
1772785582857846800,0.8538466796875,0.05250260978937149,-0.11251631379127502,-0.10742787271738052
1772785582867863000,0.863863037109375,0.03809890151023865,-0.0911622941493988,-0.06672784686088562
1772785582877879800,0.8738798828125,0.026791591197252274,-0.07092542946338654,-0.026220276951789856
1772785582887895800,0.883895751953125,0.02280297502875328,-0.052138425409793854,0.0003088024677708745
1772785582897912800,0.893912841796875,0.00883077085018158,-0.01837102510035038,0.015691984444856644
1772785582907928800,0.9039287109375,0.01081961952149868,0.02681136690080166,0.02084759809076786
1772785582917945900,0.91394580078125,0.024209313094615936,0.06973730772733688,0.014022483490407467
1772785582927961900,0.9239619140625,0.03284274786710739,0.09525971114635468,-0.010304427705705166
1772785582937978600,0.933978515625,0.03585395589470863,0.10254088789224625,-0.04037810489535332
1772785582947995000,0.943994873046875,0.04666239768266678,0.08733104169368744,-0.06927233189344406
1772785582958012000,0.954011962890625,0.05418883264064789,0.051295116543769836,-0.0894676223397255
1772785582968028000,0.96402783203125,0.050256144255399704,0.003854361129924655,-0.08584412187337875
1772785582978044700,0.974044677734375,0.025759853422641754,-0.01729273609817028,-0.06792797148227692
1772785582988060700,0.984060791015625,0.0035821148194372654,-0.034759342670440674,-0.044815730303525925
1772785582998077700,0.99407763671875,-0.004296805243939161,-0.04608156159520149,-0.032305758446455
1772785583008094000,1.004093994140625,-0.00011431099846959114,-0.055180784314870834,-0.03535987064242363
1772785583018110700,1.01411083984375,0.007269716821610928,-0.06720473617315292,-0.051791612058877945
1772785583028127700,1.024127685546875,0.012024523690342903,-0.07271242141723633,-0.07097595930099487
1772785583038143700,1.034143798828125,0.01558698806911707,-0.030540665611624718,-0.07774019241333008
1772785583048160800,1.044160888671875,0.019126862287521362,0.026763103902339935,-0.05929061025381088
1772785583058176800,1.0541767578125,0.021773291751742363,0.07126153260469437,-0.015949193388223648
1772785583068193800,1.06419384765625,0.006839882582426071,0.09149196743965149,0.02875116653740406
1772785583078209500,1.07420947265625,-0.01177901215851307,0.06426696479320526,0.04972879961133003
1772785583088226800,1.084226806640625,-0.026017336174845695,0.03123311698436737,0.05916997045278549
1772785583098242800,1.094242919921875,-0.030527260154485703,0.04097369685769081,0.06838762015104294
1772785583108259600,1.104259521484375,-0.026980994269251823,0.052019957453012466,0.07553740590810776
1772785583118275600,1.114275634765625,-0.023534800857305527,0.05244682729244232,0.07694400101900101
1772785583128292900,1.12429296875,-0.019619954749941826,0.048856884241104126,0.0706525444984436
1772785583138308900,1.134308837890625,-0.0175015851855278,0.046021558344364166,0.052339956164360046
1772785583148325600,1.14432568359375,-0.008572538383305073,0.0444905087351799,0.021022513508796692
1772785583158341600,1.154341552734375,-0.005945494398474693,0.03696043789386749,-0.021086160093545914
1772785583168359000,1.16435888671875,-0.006332185585051775,0.0535772368311882,-0.05115325003862381
1772785583178374700,1.174374755859375,-0.012992870062589645,0.0454537458717823,-0.06883347779512405
1772785583188391700,1.1843916015625,-0.020877690985798836,0.025567922741174698,-0.058500148355960846
1772785583198407700,1.19440771484375,-0.022252103313803673,0.009115912020206451,-0.032518014311790466
1772785583208424700,1.2044248046875,-0.02735684998333454,0.0013842228800058365,-0.000021323561668395996
1772785583218440700,1.214440673828125,-0.02676595188677311,0.026685236021876335,0.03900158405303955
1772785583228457700,1.224457763671875,-0.024867650121450424,0.051974616944789886,0.06524889916181564
1772785583238473700,1.2344736328125,-0.0235295370221138,0.05725361034274101,0.07536826282739639
1772785583248490800,1.24449072265625,-0.027124006301164627,0.05705094337463379,0.07792942970991135
1772785583258506800,1.2545068359375,-0.029654184356331825,0.037847552448511124,0.0681736022233963
1772785583268523800,1.264523681640625,-0.03358075022697449,0.042152289301157,0.04477427154779434
1772785583278539800,1.274539794921875,-0.026152605190873146,0.06250105053186417,0.029872411862015724
1772785583288556800,1.284556884765625,-0.006959735881537199,0.06709819287061691,0.008556735701858997
1772785583298572800,1.29457275390625,0.012261472642421722,0.05662122368812561,-0.01571349985897541
1772785583308589800,1.30458984375,0.029439395293593407,0.03803209960460663,-0.034644581377506256
1772785583318605600,1.31460546875,0.03851687163114548,0.007083363831043243,-0.04686196148395538
1772785583328622800,1.324622802734375,0.03775494173169136,-0.0027066830080002546,-0.04715330898761749
1772785583338639600,1.3346396484375,0.02800077199935913,-0.005866626277565956,-0.04564010351896286
1772785583348655600,1.344655517578125,0.011734183877706528,-0.008049086667597294,-0.04690110683441162
1772785583358672600,1.354672607421875,0.002247471595183015,0.013927850872278214,-0.04637353494763374
1772785583368689000,1.36468896484375,-0.0037544944789260626,0.037951428443193436,-0.04142884537577629
1772785583378705700,1.37470556640625,-0.003916496876627207,0.04921181872487068,-0.03657048940658569
1772785583388721700,1.3847216796875,-0.004957260098308325,0.0609225369989872,-0.03156081959605217
1772785583398738700,1.39473876953125,-0.007364040240645409,0.06244294345378876,-0.031113725155591965
1772785583408755000,1.4047548828125,-0.01586698181927204,0.05402202904224396,-0.038701873272657394
1772785583418771700,1.414771728515625,-0.020524034276604652,0.03321930393576622,-0.05468309298157692
1772785583428787700,1.42478759765625,-0.02165587805211544,0.015670403838157654,-0.07685311138629913
1772785583438804700,1.4348046875,-0.01634717546403408,0.009990479797124863,-0.09425800293684006
1772785583448820700,1.44482080078125,-0.006258323322981596,0.011335909366607666,-0.10097875446081161
1772785583458837800,1.454837646484375,0.0048780785873532295,-0.0018635946325957775,-0.09135156869888306
1772785583468853800,1.464853759765625,0.017408784478902817,-0.013961803168058395,-0.0605878010392189
1772785583478870500,1.47487060546875,0.019809413701295853,-0.0017388775013387203,-0.018528109416365623
1772785583488886800,1.48488671875,0.015378711745142937,0.013530888594686985,0.03084210492670536
1772785583498903800,1.49490380859375,0.007813498377799988,0.013712422922253609,0.0687904804944992
1772785583508919800,1.504919921875,0.0008184395264834166,0.009920348413288593,0.09126675873994827
1772785583518936600,1.5149365234375,0.005443965084850788,0.03600917011499405,0.1036599799990654
1772785583528952800,1.524952880859375,0.023008044809103012,0.06516199558973312,0.11845197528600693
1772785583538969900,1.534969970703125,0.03328685089945793,0.07378727942705154,0.12425313889980316
1772785583548985600,1.544985595703125,0.0356898233294487,0.05763973668217659,0.11551529914140701
1772785583559002600,1.555002685546875,0.03713688999414444,0.03676506504416466,0.0808764398097992
1772785583569019000,1.565018798828125,0.04310103878378868,0.009999498724937439,0.025470709428191185
1772785583579035600,1.57503564453125,0.04474593698978424,-0.018685070797801018,-0.033792972564697266
1772785583589051600,1.5850517578125,0.04378693550825119,-0.043816786259412766,-0.07265408337116241
1772785583599068700,1.595068603515625,0.041198838502168655,-0.05987144261598587,-0.08351337909698486
1772785583609084700,1.605084716796875,0.03882462903857231,-0.062379345297813416,-0.06342994421720505
1772785583619101700,1.615101806640625,0.042856015264987946,-0.05235803499817848,-0.02831508219242096
1772785583629117700,1.62511767578125,0.05314753204584122,-0.029344860464334488,0.001612457330338657
1772785583639134700,1.635134765625,0.05742057412862778,-0.012642312794923782,0.02071557752788067
1772785583649150700,1.645150634765625,0.05480987951159477,0.004317496437579393,0.023466089740395546
1772785583659167700,1.655167724609375,0.045457471162080765,0.016841799020767212,0.022570254281163216
1772785583669184800,1.665184814453125,0.031074004247784615,0.017928369343280792,0.019498297944664955
1772785583679200800,1.67520068359375,0.024708271026611328,0.018238916993141174,0.022319791838526726
1772785583689217800,1.6852177734375,0.021809419617056847,0.011673159897327423,0.02577364630997181
1772785583699233800,1.69523388671875,0.020447194576263428,0.01105608232319355,0.036655716598033905
1772785583709250800,1.705250732421875,0.02508881688117981,0.008303439244627953,0.045141611248254776
1772785583719266600,1.7152666015625,0.026200393214821815,0.007952527143061161,0.04617898538708687
1772785583729283800,1.725283935546875,0.026423566043376923,0.011620765551924706,0.039953313767910004
1772785583739299800,1.7352998046875,0.028681833297014236,0.003217820543795824,0.03271712735295296
1772785583749316600,1.745316650390625,0.030526340007781982,-0.016214199364185333,0.02791438437998295
1772785583759332600,1.75533251953125,0.027089888229966164,-0.0166430976241827,0.042436711490154266
1772785583769350000,1.765349853515625,0.026430755853652954,-0.009008878841996193,0.06864221394062042
1772785583779366000,1.775365966796875,0.026073196902871132,-0.018829531967639923,0.08187375962734222
1772785583789382700,1.785382568359375,0.026825007051229477,-0.030564751476049423,0.08239973336458206
1772785583799398700,1.795398681640625,0.027080824598670006,-0.02699442021548748,0.07034444808959961
1772785583809416000,1.805416015625,0.02722916193306446,-0.019278444349765778,0.05652451142668724
1772785583819431700,1.815431640625,0.024602973833680153,-0.014961659908294678,0.04341982305049896
1772785583829448700,1.82544873046875,0.012769751250743866,-0.0071998764760792255,0.03750734031200409
1772785583839464700,1.835464599609375,0.012057463638484478,0.001233719289302826,0.039714280515909195
1772785583849481700,1.845481689453125,0.013604761101305485,0.0007373059634119272,0.038145147264003754
1772785583859497700,1.855497802734375,0.01781884767115116,-0.01191725954413414,0.034507110714912415
1772785583869514800,1.8655146484375,0.024925226345658302,-0.013883736915886402,0.032212529331445694
1772785583879530800,1.87553076171875,0.03320606052875519,0.010303623974323273,0.021986791864037514
1772785583889547800,1.8855478515625,0.03372820466756821,0.026965945959091187,0.005617744289338589
1772785583899563800,1.895563720703125,0.028836922720074654,0.03585793077945709,-0.00782779324799776
1772785583909580800,1.905580810546875,0.026448599994182587,0.0383668914437294,-0.016778944060206413
1772785583919596800,1.9155966796875,0.025703024119138718,0.032657235860824585,-0.02691761776804924
1772785583929613800,1.92561376953125,0.03187250345945358,0.013920566998422146,-0.03993461653590202
1772785583939629800,1.9356298828125,0.039398886263370514,-0.014759781770408154,-0.05216667056083679
1772785583949646600,1.945646484375,0.04600885137915611,-0.027331765741109848,-0.06499458849430084
1772785583959662600,1.95566259765625,0.05434523522853851,-0.02070758305490017,-0.0698029026389122
1772785583969680000,1.965679931640625,0.05627522990107536,-0.010945767164230347,-0.0639769658446312
1772785583979695900,1.97569580078125,0.048398569226264954,-0.021973522379994392,-0.055232588201761246
1772785583989713000,1.985712890625,0.04115903377532959,-0.03226744011044502,-0.031516339629888535
1772785583999729000,1.99572900390625,0.036306846886873245,-0.013067508116364479,-0.002689909655600786
1772785584009746000,2.005745849609375,0.030701424926519394,0.01154329627752304,0.013178801164031029
1772785584019762000,2.015761962890625,0.021533707156777382,0.04362459480762482,0.020650791004300117
1772785584029779000,2.025779052734375,0.010588382370769978,0.08318372070789337,0.025286555290222168
1772785584039795000,2.035794921875,0.0008144245948642492,0.08177641034126282,0.02453206293284893
1772785584049812000,2.04581201171875,-0.003862352343276143,0.04909276217222214,0.018258722499012947
1772785584059827700,2.05582763671875,-0.004362858831882477,0.02693125233054161,0.007138500921428204
1772785584069845000,2.065844970703125,-0.0025053038261830807,0.010809274390339851,-0.0027255811728537083
1772785584079861000,2.075861083984375,-0.0005299937911331654,0.004074872005730867,-0.0028381654992699623
1772785584089877800,2.085877685546875,-0.00493566133081913,0.010114388540387154,0.004161686636507511
1772785584099893800,2.095893798828125,-0.011612067930400372,0.015021598897874355,0.007001325488090515
1772785584109911000,2.1059111328125,-0.013750586658716202,0.018525520339608192,0.0061099654994904995
1772785584119927800,2.115927734375,-0.015526335686445236,0.020146260038018227,-0.0013114272151142359
1772785584129943800,2.12594384765625,-0.02071470580995083,0.023519685491919518,-0.010401860810816288
1772785584139961000,2.135961181640625,-0.024983741343021393,0.04262694716453552,-0.009596198797225952
1772785584149977000,2.14597705078125,-0.029227223247289658,0.06329095363616943,-0.004368945956230164
1772785584159993900,2.155993896484375,-0.03558352217078209,0.061973024159669876,-0.006147230975329876
1772785584170009900,2.166009765625,-0.03246016427874565,0.05380963534116745,-0.008781895972788334
1772785584180027100,2.176027099609375,-0.02650681510567665,0.047585874795913696,-0.019727719947695732
1772785584190043000,2.18604296875,-0.021702472120523453,0.0400235615670681,-0.03573305159807205
1772785584200060000,2.196059814453125,-0.020734641700983047,0.03811599686741829,-0.04971599206328392
1772785584210076000,2.206075927734375,-0.021570075303316116,0.04240182414650917,-0.05105050280690193
1772785584220092700,2.2160927734375,-0.02299686148762703,0.05142281949520111,-0.041906099766492844
1772785584230109000,2.22610888671875,-0.021176058799028397,0.05363217741250992,-0.03875478357076645
1772785584240126000,2.2361259765625,-0.020010115578770638,0.052298348397016525,-0.043635498732328415
1772785584250142000,2.246141845703125,-0.016246801242232323,0.045138172805309296,-0.0466933399438858
1772785584260158700,2.25615869140625,-0.011201323941349983,0.04076557606458664,-0.04495292901992798
1772785584270175000,2.266175048828125,-0.007302456069737673,0.04529561474919319,-0.038792502135038376
1772785584280192000,2.27619189453125,-0.0073607079684734344,0.051653482019901276,-0.021542416885495186
1772785584290207700,2.286207763671875,-0.002186186145991087,0.05463382601737976,-0.012233869172632694
1772785584300224800,2.296224853515625,0.000716805923730135,0.04920785874128342,-0.015269375406205654
1772785584310241000,2.306240966796875,0.0024696988984942436,0.043233323842287064,-0.028839780017733574
1772785584320257800,2.3162578125,0.003238727804273367,0.022324705496430397,-0.04745218902826309
1772785584330273800,2.326273681640625,0.006604697555303574,0.006993685383349657,-0.060232698917388916
1772785584340290800,2.336290771484375,0.012714358046650887,-0.0016549085266888142,-0.06646326184272766
1772785584350307000,2.34630712890625,0.022752344608306885,-0.0007438408210873604,-0.07474702596664429
1772785584360323800,2.35632373046875,0.02879880927503109,0.00022092973813414574,-0.06766761839389801
1772785584370339800,2.36633984375,0.027980154380202293,0.00871907640248537,-0.03143371641635895
1772785584380356900,2.37635693359375,0.022726941853761673,0.032481733709573746,0.021512765437364578
1772785584390372900,2.386372802734375,0.013944901525974274,0.04729343578219414,0.06489459425210953
1772785584400390000,2.396389892578125,0.0008042992558330297,0.035841528326272964,0.09461332857608795
1772785584410406000,2.406406005859375,-0.0010535221081227064,0.034103814512491226,0.12315043061971664
1772785584420423000,2.4164228515625,0.002704333048313856,0.03486475348472595,0.14581410586833954
1772785584430439000,2.42643896484375,0.007230908144265413,0.031683340668678284,0.14943785965442657
1772785584440456000,2.4364560546875,0.009258831851184368,0.03012208081781864,0.132918581366539
1772785584450472000,2.446471923828125,0.011627446860074997,0.033548504114151,0.09264812618494034
1772785584460488700,2.45648876953125,0.01565922610461712,0.027565212920308113,0.04196029156446457
1772785584470505000,2.4665048828125,0.019053958356380463,0.0075182681903243065,-0.007718050852417946
1772785584480522000,2.47652197265625,0.02511374093592167,-0.007026944775134325,-0.05060114338994026
1772785584490538000,2.4865380859375,0.03126564249396324,-0.031924303621053696,-0.09520669281482697
1772785584500554800,2.4965546875,0.03170280531048775,-0.04916234314441681,-0.1225193664431572
1772785584510571000,2.506571044921875,0.03304104134440422,-0.06667262315750122,-0.1027805507183075
1772785584520588000,2.516588134765625,0.032586678862571716,-0.032417625188827515,-0.03872665762901306
1772785584530603800,2.526603759765625,0.019047170877456665,0.036128148436546326,0.026057664304971695
1772785584540620800,2.536620849609375,-0.002674148418009281,0.05639726668596268,0.0656883642077446
1772785584550637000,2.546636962890625,-0.012405072338879108,0.05948839709162712,0.09287497401237488
1772785584560653800,2.55665380859375,-0.01411906722933054,0.06768243759870529,0.10590382665395737
1772785584570669800,2.566669921875,-0.01243248675018549,0.06621769815683365,0.10513657331466675
1772785584580686800,2.576686767578125,-0.007738757878541946,0.05048013851046562,0.0831451490521431
1772785584590702800,2.586702880859375,-0.002006303519010544,0.03607217222452164,0.055447742342948914
1772785584600720000,2.596719970703125,0.0031317435204982758,0.030701525509357452,0.02529788389801979
1772785584610735900,2.60673583984375,0.008400807157158852,0.028906023129820824,-0.0006604791269637644
1772785584620753000,2.6167529296875,0.013449867255985737,0.015448096208274364,-0.01706334948539734
1772785584630769000,2.626768798828125,0.01662915013730526,-0.010789899155497551,-0.036954499781131744
1772785584640786000,2.636785888671875,0.024160541594028473,-0.035478375852108,-0.04919644445180893
1772785584650802000,2.646802001953125,0.026722501963377,-0.04072080925107002,-0.03991719335317612
1772785584660818700,2.656818603515625,0.02962290123105049,-0.03368334472179413,-0.009284489788115025
1772785584670834700,2.666834716796875,0.03212787210941315,-0.015107528306543827,0.018802272155880928
1772785584680852000,2.67685205078125,0.025870928540825844,0.009812692180275917,0.03275957331061363
1772785584690868000,2.686867919921875,0.02169455960392952,0.01915719173848629,0.030426375567913055
1772785584700884700,2.696884765625,0.02165704034268856,0.0061796605587005615,0.013230886310338974
1772785584710902000,2.706902099609375,0.022094065323472023,0.0019303209846839309,-0.004175533540546894
1772785584720918000,2.71691796875,0.024975568056106567,-0.000299068633466959,-0.013744254596531391
1772785584730934800,2.726934814453125,0.025079697370529175,0.00027537508867681026,-0.01295835617929697
1772785584740950800,2.73695068359375,0.02391543798148632,0.01455056481063366,-0.0037776732351630926
1772785584750968000,2.746968017578125,0.02301262505352497,0.026187513023614883,0.0033747784327715635
1772785584760984000,2.756984130859375,0.024193858727812767,0.03574537858366966,-0.003940090537071228
1772785584771000800,2.767000732421875,0.027089513838291168,0.04309064522385597,-0.013676873408257961
1772785584781016800,2.777016845703125,0.02906913310289383,0.03425746038556099,-0.017031628638505936
1772785584791033900,2.787033935546875,0.03750656172633171,0.04027194529771805,-0.019206631928682327
1772785584801049900,2.7970498046875,0.03520245850086212,0.038126345723867416,-0.028350336477160454
1772785584811067000,2.80706689453125,0.02750379405915737,0.012663064524531364,-0.04690191522240639
1772785584821083000,2.817082763671875,0.021607449278235435,-0.0011969904880970716,-0.05101541429758072
1772785584831100000,2.827099853515625,0.0169405248016119,0.010188022628426552,-0.033842019736766815
1772785584841116000,2.837115966796875,0.006085216533392668,0.015329934656620026,-0.013773156329989433
1772785584851133000,2.8471328125,0.0011250786483287811,0.01842612586915493,-0.004690712317824364
1772785584861149000,2.85714892578125,-0.0037752327043563128,0.019977400079369545,-0.00043543550418689847
1772785584871166000,2.867166015625,-0.0014625436160713434,0.016727544367313385,-0.0029920702800154686
1772785584881182000,2.877181884765625,-0.000726392725482583,0.008728822693228722,-0.011186228133738041
1772785584891199000,2.887198974609375,0.00687986146658659,-0.007393688894808292,-0.03580102697014809
1772785584901214700,2.897214599609375,-0.007548132911324501,-0.01380932703614235,-0.05310770124197006
1772785584911232000,2.90723193359375,-0.017687054350972176,-0.01429668441414833,-0.062260452657938004
1772785584921248000,2.917248046875,-0.01680886745452881,-0.009599186480045319,-0.06147376447916031
1772785584931264800,2.9272646484375,-0.017773199826478958,-0.006396201904863119,-0.06408526003360748
1772785584941280800,2.93728076171875,-0.017840784043073654,-0.008497614413499832,-0.08202874660491943
1772785584951298000,2.947298095703125,-0.015792813152074814,-0.010491522960364819,-0.0922078862786293
1772785584961313800,2.957313720703125,-0.01657375693321228,-0.0016019116155803204,-0.07860594242811203
1772785584971330600,2.96733056640625,-0.020685942843556404,0.011271011084318161,-0.062172647565603256
1772785584981346600,2.9773466796875,-0.018231933936476707,0.020162101835012436,-0.048232171684503555
1772785584991363800,2.98736376953125,-0.013303487561643124,0.0359668955206871,-0.036801621317863464
1772785585001379800,2.9973798828125,-0.012385365553200245,0.040261972695589066,-0.0273347869515419
1772785585011396600,3.007396728515625,-0.003972173202782869,0.035257626324892044,-0.025011179968714714
1772785585021412600,3.01741259765625,-0.0026820984203368425,0.030325239524245262,-0.029140425845980644
1772785585031430000,3.027429931640625,-0.00029350933618843555,0.03652534633874893,-0.034858498722314835
1772785585041445600,3.037445556640625,0.0036337345372885466,0.033958546817302704,-0.03065420128405094
1772785585051462700,3.047462646484375,0.0013218445237725973,0.024228420108556747,-0.025302046909928322
1772785585061478700,3.057478759765625,-0.0021840608678758144,0.022402776405215263,-0.027077877894043922
1772785585071495700,3.06749560546875,-0.004408332984894514,0.016537697985768318,-0.026810230687260628
1772785585081511700,3.07751171875,-0.005793666932731867,0.011438210494816303,-0.0036667627282440662
1772785585091528700,3.08752880859375,-0.016187718138098717,0.029235849156975746,0.025583799928426743
1772785585101544700,3.097544677734375,-0.020663969218730927,0.038486190140247345,0.05118551105260849
1772785585111561700,3.107561767578125,-0.020534539595246315,0.03520623967051506,0.05636695772409439
1772785585121577700,3.11757763671875,-0.024895668029785156,0.02736399509012699,0.040281109511852264
1772785585131594800,3.1275947265625,-0.02961106039583683,0.0251796692609787,0.010618024505674839
1772785585141610500,3.137610595703125,-0.02756013721227646,0.003665087977424264,-0.016552764922380447
1772785585151627800,3.147627685546875,-0.027074111625552177,-0.0025246310979127884,-0.03440127149224281
1772785585161643800,3.157643798828125,-0.022947408258914948,0.003337591653689742,-0.03953886777162552
1772785585171660500,3.16766064453125,-0.016198160126805305,0.003405235940590501,-0.03731832280755043
1772785585181676500,3.177676513671875,-0.01508414652198553,0.01565166376531124,-0.026600906625390053
1772785585191693800,3.18769384765625,-0.0158974751830101,0.03471936285495758,-0.01744522526860237
1772785585201709800,3.197709716796875,-0.018251363188028336,0.02874748222529888,-0.014918367378413677
1772785585211726600,3.2077265625,-0.02195901609957218,0.02464008890092373,-0.01195959560573101
1772785585221742600,3.21774267578125,-0.021281855180859566,0.03380217030644417,-0.006204022094607353
1772785585231760000,3.227759765625,-0.015864718705415726,0.040939975529909134,-0.0003962008049711585
1772785585241775900,3.23777587890625,-0.009545890614390373,0.034173864871263504,-0.003351632971316576
1772785585251792600,3.247792724609375,-0.0005356171168386936,0.019817030057311058,-0.015658099204301834
1772785585261808600,3.25780859375,0.009076304733753204,0.0062345783226192,-0.025448348373174667
1772785585271825700,3.26782568359375,0.014934726990759373,0.007929680868983269,-0.028249993920326233
1772785585281841700,3.277841552734375,0.015993637964129448,0.007404827047139406,-0.037095166742801666
1772785585291858700,3.287858642578125,0.014861528761684895,0.004377345554530621,-0.039671771228313446
1772785585301874700,3.297874755859375,0.012402152642607689,0.01771959848701954,-0.036948300898075104
1772785585311891700,3.3078916015625,0.0056065646931529045,0.028271842747926712,-0.03529181703925133
1772785585321907700,3.31790771484375,0.00464687030762434,0.026356393471360207,-0.03077138587832451
1772785585331924700,3.3279248046875,0.011046180501580238,0.02415768802165985,-0.02974633499979973
1772785585341940700,3.337940673828125,0.011992602609097958,0.0269527118653059,-0.029446909204125404
1772785585351957800,3.347957763671875,0.015384404920041561,0.028560727834701538,-0.03568003699183464
1772785585361973800,3.357973876953125,0.01747588813304901,0.021678341552615166,-0.047153305262327194
1772785585371990800,3.36799072265625,0.02343444526195526,0.009048033505678177,-0.06486998498439789
1772785585382006500,3.378006591796875,0.02824709750711918,-0.0027504866011440754,-0.07434592396020889
1772785585392023800,3.38802392578125,0.030561117455363274,-0.005142537876963615,-0.05831395834684372
1772785585402039800,3.398039794921875,0.030547216534614563,0.010590270161628723,-0.02216193452477455
1772785585412056600,3.408056640625,0.02686060220003128,0.020826395601034164,0.011515600606799126
1772785585422072600,3.418072509765625,0.025071369484066963,0.02470243349671364,0.027910172939300537
1772785585432089900,3.42808984375,0.02041962742805481,0.02857120707631111,0.03141382709145546
1772785585442105900,3.43810595703125,0.01723933219909668,0.034513335675001144,0.030184898525476456
1772785585452122600,3.44812255859375,0.01332528330385685,0.03230664134025574,0.020923489704728127
1772785585462138600,3.458138671875,0.009465977549552917,0.01307510957121849,0.006420145742595196
1772785585472156000,3.468156005859375,0.008676616474986076,0.0026786618400365114,-0.004248211160302162
1772785585482171600,3.478171630859375,0.007567342836409807,0.001308768754824996,-0.010908158496022224
1772785585492188700,3.488188720703125,0.006358800921589136,0.0042371805757284164,-0.005640692077577114
1772785585502204700,3.49820458984375,0.004508570767939091,0.00816621445119381,-0.00040554290171712637
1772785585512221700,3.5082216796875,0.0014930733013898134,0.0170755535364151,0.003213160438463092
1772785585522237700,3.51823779296875,-0.0050145480781793594,0.01716248318552971,-0.0014969354961067438
1772785585532254700,3.528254638671875,-0.01055685244500637,0.0061622969806194305,-0.011425998993217945
1772785585542270700,3.538270751953125,-0.01425075065344572,0.001256084069609642,-0.023395683616399765
1772785585552287700,3.548287841796875,-0.015010017901659012,0.004986906424164772,-0.03508855774998665
1772785585562303700,3.5583037109375,-0.012053253129124641,0.010374406352639198,-0.03980489820241928
1772785585572320800,3.56832080078125,-0.0035742807667702436,0.015324423089623451,-0.03885388374328613
1772785585582336800,3.578336669921875,-0.00386278354562819,0.013252347707748413,-0.038289159536361694
1772785585592353800,3.588353759765625,-0.0038760993629693985,0.018496379256248474,-0.03126800060272217
1772785585602369800,3.598369873046875,-0.00012586242519319057,0.018478360027074814,-0.013462834060192108
1772785585612386800,3.60838671875,0.006431372836232185,0.018246665596961975,0.0026471593882888556
1772785585622402600,3.618402587890625,0.007273291237652302,0.010761070996522903,0.0050564417615532875
1772785585632419800,3.628419921875,0.008954544551670551,0.004547117277979851,0.0007136249914765358
1772785585642435800,3.638435791015625,0.009436762891709805,0.006149550899863243,-0.0033935527317225933
1772785585652452600,3.64845263671875,0.009487628936767578,0.0036597615107893944,-0.015143951401114464
1772785585662468600,3.658468505859375,0.007661954499781132,-0.004528239369392395,-0.038842059671878815
1772785585672486000,3.66848583984375,0.0070875100791454315,-0.007572498172521591,-0.0516904778778553
1772785585682502000,3.678501953125,0.008340379223227501,-0.007427455857396126,-0.04724384471774101
1772785585692518700,3.6885185546875,0.008296170271933079,-0.011863216757774353,-0.038598958402872086
1772785585702534700,3.69853466796875,0.006788210477679968,-0.0036854397039860487,-0.01834726519882679
1772785585712552000,3.708552001953125,0.007742420304566622,0.01748562604188919,0.015606972388923168
1772785585722567700,3.718567626953125,0.009195614606142044,0.02406669221818447,0.035028498619794846
1772785585732584700,3.728584716796875,0.004371563903987408,0.027811896055936813,0.03340689837932587
1772785585742600700,3.7386005859375,0.0022857235744595528,0.021547257900238037,0.020880334079265594
1772785585752617700,3.74861767578125,0.004656203556805849,0.013986810110509396,0.012099092826247215
1772785585762633700,3.7586337890625,0.002994522685185075,0.00796867348253727,0.0027499711140990257
1772785585772650800,3.768650634765625,0.0051767174154520035,0.009996936656534672,-0.006372686941176653
1772785585782666800,3.778666748046875,0.013590242713689804,0.014112815260887146,-0.010999749414622784
1772785585792683800,3.788683837890625,0.021590910851955414,0.018846318125724792,-0.009896401315927505
1772785585802699800,3.79869970703125,0.029413960874080658,0.024329794570803642,-0.005758511833846569
1772785585812716800,3.808716796875,0.03594216704368591,0.019878054037690163,-0.00789782963693142
1772785585822732800,3.81873291015625,0.039863817393779755,0.0189626794308424,-0.011404715478420258
1772785585832749600,3.82874951171875,0.045032747089862823,0.010260535404086113,-0.005916472990065813
1772785585842765800,3.838765869140625,0.05269138514995575,-0.0023322131019085646,-0.0038078322540968657
1772785585852782800,3.848782958984375,0.05622726306319237,-0.010664978064596653,0.0047872536815702915
1772785585862798600,3.858798583984375,0.058450233191251755,-0.009679433889687061,0.017674749717116356
1772785585872815600,3.868815673828125,0.05374415963888168,-0.014404680579900742,0.0204180721193552
1772785585882832000,3.878831787109375,0.049221836030483246,-0.02071560174226761,0.020460281521081924
1772785585892848600,3.8888486328125,0.044341057538986206,-0.018033266067504883,0.022526893764734268
1772785585902864600,3.89886474609375,0.0414130836725235,-0.020066993311047554,0.025351600721478462
1772785585912881700,3.908881591796875,0.04300272464752197,-0.025067877024412155,0.02672898769378662
1772785585922898000,3.91889794921875,0.047920480370521545,-0.03398020192980766,0.020176827907562256
1772785585932914700,3.928914794921875,0.04843633621931076,-0.04197660833597183,0.0084972670301795
1772785585942930700,3.9389306640625,0.043031513690948486,-0.039484456181526184,0.0019380816956982017
1772785585952947700,3.94894775390625,0.03380472585558891,-0.02947789803147316,0.007425258401781321
1772785585962964000,3.9589638671875,0.023021774366497993,-0.014586943201720715,0.01037047803401947
1772785585972981200,3.968981201171875,0.015850413590669632,-0.009034518152475357,0.01076249498873949
1772785585982997200,3.978997314453125,0.010420547798275948,0.0013125978875905275,0.0028225895948708057
1772785585993014000,3.989013916015625,0.004938431084156036,0.000010312069207429886,-0.009059635922312737
1772785586003030000,3.999030029296875,0.002144708065316081,-0.008444654755294323,-0.019734032452106476
1772785586013047300,4.00904736328125,-0.003888417035341263,-0.011415410786867142,-0.019256528466939926
1772785586023063300,4.019063232421875,-0.007035700138658285,0.006194796413183212,-0.013516630046069622
1772785586033080000,4.029080078125,-0.012823548167943954,0.016548899933695793,-0.011393558233976364
1772785586043096000,4.039095947265625,-0.01945941150188446,0.010757772251963615,-0.0159002598375082
1772785586053113000,4.049113037109375,-0.025140732526779175,0.010918094776570797,-0.025618933141231537
1772785586063129000,4.059129150390625,-0.028797028586268425,0.010175671428442001,-0.030467549338936806
1772785586073146000,4.06914599609375,-0.03087109886109829,0.006053364835679531,-0.02441418543457985
1772785586083162000,4.079162109375,-0.029285527765750885,0.015633678063750267,-0.015264754183590412
1772785586093179000,4.089178955078125,-0.02775500901043415,0.01980552077293396,-0.013251137919723988
1772785586103195100,4.099195068359375,-0.023778408765792847,0.016722887754440308,-0.013538612052798271
1772785586113212200,4.109212158203125,-0.01500861905515194,0.010424777865409851,-0.024468492716550827
1772785586123228200,4.119228271484375,-0.0073799435049295425,0.007858457043766975,-0.0277626421302557
1772785586133245000,4.129244873046875,-0.009208204224705696,0.012900087051093578,-0.030683863908052444
1772785586143261200,4.13926123046875,-0.007729280740022659,0.0025131050497293472,-0.02951487898826599
1772785586153278200,4.1492783203125,-0.010547172278165817,-0.00571286678314209,-0.025257017463445663
1772785586163294000,4.1592939453125,-0.01008568238466978,-0.001872526714578271,-0.008224301040172577
1772785586173311000,4.16931103515625,-0.0131192896515131,0.004690833389759064,0.010479345917701721
1772785586183327200,4.1793271484375,-0.016479069367051125,0.011783743277192116,0.019632354378700256
1772785586193344000,4.189343994140625,-0.01662794128060341,0.014306556433439255,0.020360728725790977
1772785586203360000,4.199360107421875,-0.017371129244565964,0.013936894945800304,0.004841724410653114
1772785586213377000,4.209376953125,-0.02017250843346119,0.007265942636877298,-0.01738368719816208
1772785586223393300,4.219393310546875,-0.01702030375599861,0.007794869132339954,-0.0278228297829628
1772785586233410000,4.22941015625,-0.020293328911066055,0.015888748690485954,-0.02951766550540924
1772785586243426000,4.239426025390625,-0.025451725348830223,0.025037460029125214,-0.027463071048259735
1772785586253443000,4.249443115234375,-0.02278962917625904,0.030934764072299004,-0.022304529324173927
1772785586263459300,4.259459228515625,-0.020069219172000885,0.03540484979748726,-0.015771396458148956
1772785586273476000,4.26947607421875,-0.020015690475702286,0.03329722583293915,-0.014778569340705872
1772785586283492000,4.2794921875,-0.018178658559918404,0.024591738358139992,-0.020114805549383163
1772785586293509000,4.289509033203125,-0.018023395910859108,0.013951877132058144,-0.022295402362942696
1772785586303525000,4.299525146484375,-0.013983620330691338,0.00364695000462234,-0.020797446370124817
1772785586313542100,4.309542236328125,-0.008295108564198017,0.0029041944071650505,-0.023474188521504402
1772785586323558100,4.31955810546875,-0.006874683313071728,-0.004639908671379089,-0.025968749076128006
1772785586333575000,4.329574951171875,-0.004598745610564947,-0.011612330563366413,-0.028718996793031693
1772785586343591200,4.339591064453125,-0.004088071174919605,-0.011618235148489475,-0.02982078120112419
1772785586353608200,4.349608154296875,-0.0015064030885696411,-0.018369881436228752,-0.025440413504838943
1772785586363624200,4.359624267578125,-0.002344928216189146,-0.02178228832781315,-0.031775299459695816
1772785586373641000,4.369640869140625,-0.0038693216629326344,-0.02864978089928627,-0.028234094381332397
1772785586383657200,4.3796572265625,-0.001719058956950903,-0.038658566772937775,-0.008230896666646004
1772785586393674200,4.38967431640625,-0.003385399002581835,-0.03416261821985245,0.01041362714022398
1772785586403690000,4.39968994140625,-0.0023883902467787266,-0.026732655242085457,0.02121109887957573
1772785586413707000,4.40970703125,-0.00022217491641640663,-0.029393687844276428,0.031052809208631516
1772785586423723000,4.419722900390625,0.002576781203970313,-0.015287630259990692,0.03222041577100754
1772785586433740000,4.429739990234375,0.0011461314279586077,-0.002806459553539753,0.028583066537976265
1772785586443756000,4.439756103515625,-0.003561726538464427,0.00011049257591366768,0.016330178827047348
1772785586453773000,4.44977294921875,-0.0013536997139453888,-0.006474972702562809,-0.00140141393058002
1772785586463789000,4.4597890625,0.00034124613739550114,-0.01338798925280571,-0.014754334464669228
1772785586473806000,4.46980615234375,0.0013393990229815245,-0.015712130814790726,-0.01160674449056387
1772785586483822000,4.479822021484375,0.005536920391023159,-0.013967213220894337,0.005569216329604387
1772785586493839000,4.489839111328125,-0.0035577749367803335,0.012204735539853573,0.028147494420409203
1772785586503855000,4.499855224609375,-0.017184913158416748,0.02783125266432762,0.0464104600250721
1772785586513872100,4.5098720703125,-0.018657375127077103,0.03355838358402252,0.050314389169216156
1772785586523888000,4.51988818359375,-0.020250942558050156,0.04253346100449562,0.04229632765054703
1772785586533905200,4.5299052734375,-0.018729744479060173,0.037922728806734085,0.018687933683395386
1772785586543921000,4.5399208984375,-0.018142767250537872,0.022568952292203903,-0.016683578491210938
1772785586553938200,4.549938232421875,-0.018283382058143616,0.009888311848044395,-0.05068575590848923
1772785586563954200,4.5599541015625,-0.0171440988779068,-0.00010587694123387337,-0.0732414573431015
1772785586573971000,4.569970947265625,-0.0183438528329134,-0.007465789094567299,-0.08069591224193573
1772785586583987000,4.579987060546875,-0.017825772985816002,-0.004895968362689018,-0.06918828189373016
1772785586594004200,4.590004150390625,-0.02016402781009674,0.012290475890040398,-0.03559889644384384
1772785586604020200,4.600020263671875,-0.02458641119301319,0.025010379031300545,-0.00546896830201149
1772785586614037000,4.610037109375,-0.029614459723234177,0.026675919070839882,0.009538210928440094
1772785586624053000,4.620052978515625,-0.031270794570446014,0.021089741960167885,0.009066186845302582
1772785586634070300,4.6300703125,-0.028486192226409912,0.011276260018348694,0.007930349558591843
1772785586644086000,4.6400859375,-0.027599332854151726,0.003239015117287636,0.002421261975541711
1772785586654103000,4.65010302734375,-0.020604275166988373,0.0005345749668776989,-0.0035591325722634792
1772785586664119000,4.660119140625,-0.012390261515974998,0.00150334183126688,-0.007104671560227871
1772785586674136000,4.670135986328125,-0.005870576947927475,0.006850969046354294,-0.011553747579455376
1772785586684152000,4.680152099609375,-0.0004705796018242836,0.009328104555606842,-0.01182576548308134
1772785586694169000,4.690169189453125,0.0045233797281980515,-0.0028521285858005285,-0.013810619711875916
1772785586704185000,4.70018505859375,0.0035824512597173452,-0.010889222845435143,-0.018243778496980667
1772785586714201000,4.710201171875,0.002861533546820283,-0.012760359793901443,-0.01898813061416149
1772785586724218000,4.720218017578125,0.005768338218331337,-0.021559318527579308,-0.01499210111796856
1772785586734234000,4.730234130859375,0.00993938185274601,-0.013978629373013973,-0.0020808298140764236
1772785586744251100,4.740251220703125,0.013473768718540668,0.001922057825140655,0.01363997533917427
1772785586754267100,4.75026708984375,0.019800640642642975,-0.0008729295805096626,0.024624716490507126
1772785586764284200,4.7602841796875,0.025461727753281593,0.006222113035619259,0.040860868990421295
1772785586774300200,4.770300048828125,0.027713431045413017,0.005470569245517254,0.04948312044143677
1772785586784317000,4.78031689453125,0.028597693890333176,-0.0038988273590803146,0.05258527770638466
1772785586794333000,4.7903330078125,0.031551674008369446,-0.001981884241104126,0.05913292616605759
1772785586804350200,4.80035009765625,0.03188924863934517,-0.01990470662713051,0.05223996192216873
1772785586814366200,4.8103662109375,0.025081943720579147,-0.033482033759355545,0.03882242366671562
1772785586824383000,4.820383056640625,0.02082911692559719,-0.03501619026064873,0.043296344578266144
1772785586834399000,4.83039892578125,0.023791883140802383,-0.027845093980431557,0.0445842482149601
1772785586844416300,4.840416259765625,0.026251381263136864,-0.018743515014648438,0.033088892698287964
1772785586854432000,4.850431884765625,0.02292056567966938,-0.011983879841864109,0.019757375121116638
1772785586864449000,4.860448974609375,0.01766575500369072,0.016206135973334312,0.014136604964733124
1772785586874465000,4.870465087890625,0.014536273665726185,0.04741518944501877,0.0052246032282710075
1772785586884482000,4.88048193359375,0.0112371314316988,0.042619489133358,-0.02592325769364834
1772785586894498000,4.890498046875,0.006382721476256847,0.021289967000484467,-0.06088630110025406
1772785586904515000,4.90051513671875,0.003132333280518651,0.007464432157576084,-0.07481835782527924
1772785586914531000,4.910531005859375,0.0006337554659694433,0.02365112490952015,-0.05554746463894844
1772785586924548000,4.920548095703125,-0.006970659829676151,0.03627992421388626,-0.022285839542746544
1772785586934564000,4.930564208984375,-0.0172728318721056,0.04124938324093819,0.012878806330263615
1772785586944581000,4.9405810546875,-0.023656032979488373,0.045467108488082886,0.03790043666958809
1772785586954597000,4.95059716796875,-0.026305878534913063,0.049990490078926086,0.0454435758292675
1772785586964614000,4.96061376953125,-0.026172533631324768,0.04026329889893532,0.03816990181803703
1772785586974630000,4.9706298828125,-0.02300203964114189,0.038731981068849564,0.02425701543688774
1772785586984647000,4.98064697265625,-0.018963836133480072,0.0347525030374527,0.003330816049128771
1772785586994662700,4.99066259765625,-0.01479838602244854,0.01544884778559208,-0.022435268387198448
1772785587004680000,5.000679931640625,-0.011668888852000237,0.0028999107889831066,-0.04215112328529358
1772785587014696000,5.010696044921875,-0.009246477857232094,-0.0014594178646802902,-0.04763723537325859
1772785587024712700,5.020712646484375,-0.0027507864870131016,-0.0032383184880018234,-0.040845565497875214
1772785587034728700,5.030728759765625,0.0026463756803423166,-0.0075140236876904964,-0.022023942321538925
1772785587044746000,5.04074609375,0.008626650087535381,0.00018273317255079746,0.0003942454932257533
1772785587054762000,5.050761962890625,0.013034980744123459,0.007589516695588827,0.013807523064315319
1772785587064778800,5.06077880859375,0.016687359660863876,0.0013859944883733988,0.014154569245874882
1772785587074794800,5.070794677734375,0.013297420926392078,0.00248508108779788,0.01179980207234621
1772785587084812000,5.08081201171875,0.009742101654410362,0.013044780120253563,0.01677032560110092
1772785587094827800,5.090827880859375,0.00951466802507639,0.008202888071537018,0.017758091911673546
1772785587104844800,5.1008447265625,0.010880131274461746,0.0060421135276556015,0.017475252971053123
1772785587114860800,5.11086083984375,0.013316657394170761,0.009247761219739914,0.012499668635427952
1772785587124877800,5.1208779296875,0.012915353290736675,0.0026977378875017166,0.0024474221281707287
1772785587134893800,5.130893798828125,0.011071113869547844,0.01143796555697918,0.007671745494008064
1772785587144910800,5.140910888671875,0.010455537587404251,0.026414474472403526,0.025706369429826736
1772785587154926800,5.1509267578125,0.006490623578429222,0.026415539905428886,0.03391183167695999
1772785587164944000,5.16094384765625,0.005690763704478741,0.020758969709277153,0.03067033179104328
1772785587174959900,5.1709599609375,0.005691829137504101,0.01982766203582287,0.01880115643143654
1772785587184977000,5.180976806640625,0.009354637935757637,0.024384696036577225,0.007984484545886517
1772785587194993000,5.190992919921875,0.012347230687737465,0.017389371991157532,-0.00884562823921442
1772785587205010000,5.201010009765625,0.009361638687551022,0.016299864277243614,-0.02318403869867325
1772785587215026000,5.21102587890625,0.011840774677693844,0.01670067012310028,-0.02657504193484783
1772785587225043000,5.22104296875,0.016637222841382027,0.003946130163967609,-0.0356331430375576
1772785587235058700,5.23105859375,0.01791580580174923,-0.013227530755102634,-0.042399436235427856
1772785587245074700,5.24107470703125,0.023450413718819618,-0.014623650349676609,-0.042216815054416656
1772785587255092000,5.251092041015625,0.019681507721543312,-0.012234794907271862,-0.037807952612638474
1772785587265108000,5.26110791015625,0.008644848130643368,-0.006539780646562576,-0.030578605830669403
1772785587275124700,5.271124755859375,-0.0003377273678779602,0.013061883859336376,-0.018261484801769257
1772785587285140700,5.281140625,-0.00714300200343132,0.033003728836774826,-0.003795966971665621
1772785587295158000,5.291157958984375,-0.009259948506951332,0.04061930626630783,0.0004770747618749738
1772785587305173800,5.301173828125,-0.008487089537084103,0.04667699709534645,-0.007515076547861099
1772785587315190800,5.311190673828125,-0.005155475344508886,0.050015270709991455,-0.0181695856153965
1772785587325206800,5.321206787109375,0.0004133237525820732,0.05420449748635292,-0.03437235206365585
1772785587335223800,5.331223876953125,0.004727911204099655,0.04025113210082054,-0.05534288287162781
1772785587345239800,5.34123974609375,0.006602907087653875,0.03876497969031334,-0.07029975950717926
1772785587355256800,5.3512568359375,0.008667657151818275,0.028147488832473755,-0.07337571680545807
1772785587365272800,5.36127294921875,0.013644672930240631,0.022001616656780243,-0.06519503891468048
1772785587375289900,5.371289794921875,0.016424747183918953,0.029778312891721725,-0.05094420164823532
1772785587385305900,5.381305908203125,0.01870032213628292,0.02574215456843376,-0.03699973225593567
1772785587395323000,5.391322998046875,0.020361069589853287,0.01984351873397827,-0.02424265816807747
1772785587405339000,5.4013388671875,0.01770593971014023,0.01754363253712654,-0.025167714804410934
1772785587415356000,5.41135595703125,0.02144128829240799,0.008164777420461178,-0.03103279508650303
1772785587425372000,5.421371826171875,0.018603608012199402,-0.005660828202962875,-0.040736932307481766
1772785587435389000,5.431388916015625,0.018015582114458084,-0.017332131043076515,-0.04479346051812172
1772785587445404700,5.44140478515625,0.018471678718924522,-0.02283625304698944,-0.04419209435582161
1772785587455422000,5.451421875,0.01834304817020893,-0.030310150235891342,-0.041145436465740204
1772785587465438000,5.46143798828125,0.013826447539031506,-0.030988145619630814,-0.029084479436278343
1772785587475454700,5.471454833984375,0.01421074103564024,-0.027399003505706787,-0.006512589752674103
1772785587485470700,5.481470703125,0.01253490336239338,-0.024712834507226944,0.011550012975931168
1772785587495488000,5.491488037109375,0.01055111363530159,-0.018875718116760254,0.02353503555059433
1772785587505504000,5.50150390625,0.011351780965924263,-0.009197213687002659,0.03685034438967705
1772785587515520800,5.511520751953125,0.007758910767734051,-0.0022471623960882425,0.0523827001452446
1772785587525536800,5.521536865234375,0.006732764188200235,0.002888756338506937,0.055152662098407745
1772785587535554000,5.531553955078125,0.007052343804389238,0.0053825401701033115,0.045288845896720886
1772785587545569800,5.54156982421875,0.007981523871421814,0.0019388492219150066,0.023520903661847115
1772785587555586800,5.5515869140625,0.013324357569217682,-0.004287088755518198,-0.001660350477322936
1772785587565602800,5.561602783203125,0.01298055611550808,-0.015296760946512222,-0.02770407684147358
1772785587575619800,5.571619873046875,0.013496678322553635,-0.02556431293487549,-0.04348010942339897
1772785587585635800,5.5816357421875,0.01646556332707405,-0.028937237337231636,-0.05146493390202522
1772785587595652900,5.59165283203125,0.016620825976133347,-0.03287898376584053,-0.04836821183562279
1772785587605668900,5.6016689453125,0.019929923117160797,-0.026280423626303673,-0.03535410389304161
1772785587615684900,5.611684814453125,0.016615085303783417,-0.01795058883726597,-0.01353482436388731
1772785587625702000,5.621701904296875,0.011639452539384365,-0.01007250975817442,0.011255091056227684
1772785587635718000,5.6317177734375,0.0082700215280056,-0.004805576056241989,0.02620820701122284
1772785587645735000,5.64173486328125,0.006248826161026955,-0.006587623618543148,0.03226866573095322
1772785587655750700,5.651750732421875,0.005859206430613995,-0.009593534283339977,0.031403668224811554
1772785587665768000,5.661767822265625,0.007271582260727882,-0.021001465618610382,0.023374808952212334
1772785587675784000,5.671783935546875,0.009864435531198978,-0.0320594422519207,0.007692784070968628
1772785587685800700,5.68180078125,0.010777805000543594,-0.0356961265206337,-0.00574270635843277
1772785587695816700,5.691816650390625,0.011306708678603172,-0.04075293615460396,-0.018528809770941734
1772785587705834000,5.701833984375,0.00933821126818657,-0.03167983517050743,-0.02701253443956375
1772785587715850000,5.71185009765625,0.006932844407856464,-0.025794781744480133,-0.025545930489897728
1772785587725866800,5.72186669921875,0.0021288651041686535,-0.014826151542365551,-0.019291652366518974
1772785587735882800,5.7318828125,0.003569368738681078,-0.006293117068707943,-0.007542851381003857
1772785587745900000,5.741900146484375,0.005211316980421543,-0.010772583074867725,-0.004819001071155071
1772785587755915800,5.751915771484375,0.003955104388296604,-0.01534816063940525,-0.0014000352239236236
1772785587765932800,5.761932861328125,0.0065089743584394455,-0.009363939054310322,0.005930074490606785
1772785587775948800,5.77194873046875,0.010304511524736881,-0.011383414268493652,0.009303233586251736
1772785587785965800,5.7819658203125,0.006263229995965958,-0.015505528077483177,0.0014424341497942805
1772785587795981800,5.79198193359375,0.008848360739648342,-0.00028076954185962677,-0.0008912939229048789
1772785587805998800,5.801998779296875,0.006683506071567535,0.0036001987755298615,-0.004712606780230999
1772785587816014800,5.812014892578125,0.00487335491925478,-0.0033879359252750874,-0.013747381046414375
1772785587826031900,5.822031982421875,0.0034214176703244448,-0.005407837685197592,-0.01152770221233368
1772785587836048000,5.8320478515625,0.005151674151420593,-0.0021822163835167885,-0.0030758939683437347
1772785587846065000,5.84206494140625,0.00034172763116657734,0.002750149928033352,0.004214440938085318
1772785587856081000,5.852080810546875,-0.008395038545131683,0.004419952165335417,0.010651834309101105
1772785587866098000,5.862097900390625,-0.013702314347028732,0.008502766489982605,0.021115224808454514
1772785587876114000,5.872114013671875,-0.016891449689865112,0.008465748280286789,0.024984797462821007
1772785587886130700,5.882130615234375,-0.0181979201734066,0.002276821993291378,0.02217121608555317
1772785587896146700,5.892146728515625,-0.019585691392421722,0.0007574884220957756,0.010790198110044003
1772785587906162700,5.90216259765625,-0.017297901213169098,0.002674585673958063,0.0015695035690441728
1772785587916180000,5.912179931640625,-0.017838256433606148,0.007263478357344866,-0.0022033967543393373
1772785587926196000,5.922196044921875,-0.020463451743125916,0.007065861020237207,-0.005775135010480881
1772785587936212700,5.932212646484375,-0.022738324478268623,0.00784989632666111,-0.0029356726445257664
1772785587946228700,5.942228759765625,-0.024655602872371674,0.00785366352647543,-0.00043168477714061737
1772785587956246000,5.95224609375,-0.026035651564598083,0.00710717961192131,-0.0008362189400941133
1772785587966262000,5.962261962890625,-0.025531301274895668,0.0013381552416831255,-0.010876189917325974
1772785587976279000,5.972279052734375,-0.024867642670869827,0.00448867492377758,-0.015085848979651928
1772785587986295000,5.982294921875,-0.02594694495201111,0.0051089185290038586,-0.02300977148115635
1772785587996312000,5.99231201171875,-0.026823656633496284,0.0029616118408739567,-0.02566201239824295
1772785588006328000,6.002328125,-0.030938927084207535,0.013997995294630527,-0.021269619464874268
1772785588016345000,6.012344970703125,-0.0327669233083725,0.012815019115805626,-0.019150808453559875
1772785588026361000,6.022361083984375,-0.0351281464099884,0.010966060683131218,-0.019700538367033005
1772785588036378000,6.032378173828125,-0.03686346113681793,0.019003747031092644,-0.014839736744761467
1772785588046394000,6.04239404296875,-0.03729734197258949,0.02112353779375553,-0.00932391732931137
1772785588056411100,6.0524111328125,-0.039430003613233566,0.025168614462018013,-0.004229556769132614
1772785588066427000,6.062427001953125,-0.041830841451883316,0.03168883174657822,-0.0005605194601230323
1772785588076444200,6.072444091796875,-0.03901614621281624,0.03157005459070206,-0.00454860320314765
1772785588086460200,6.082460205078125,-0.03632506728172302,0.027685249224305153,-0.01687849499285221
1772785588096477000,6.092476806640625,-0.032858166843652725,0.0183950774371624,-0.03661012277007103
1772785588106493000,6.102492919921875,-0.027741026133298874,0.014560313895344734,-0.04909918084740639
1772785588116510200,6.11251025390625,-0.02657269686460495,0.01724185049533844,-0.04774975776672363
1772785588126526200,6.122526123046875,-0.027639633044600487,0.019829915836453438,-0.03615440055727959
1772785588136543000,6.13254296875,-0.028708893805742264,0.026494476944208145,-0.015591870062053204
1772785588146559000,6.14255908203125,-0.02868891879916191,0.03294864669442177,0.0031373430974781513
1772785588156575200,6.1525751953125,-0.0296455267816782,0.03426691144704819,0.010719362646341324
1772785588166592000,6.162592041015625,-0.02693985216319561,0.03369392827153206,0.009024949744343758
1772785588176608000,6.17260791015625,-0.026612017303705215,0.025843463838100433,0.0030125973280519247
1772785588186625000,6.182625,-0.023862386122345924,0.01102982647716999,-0.008720871061086655
1772785588196641300,6.192641357421875,-0.01823699101805687,0.002343926578760147,-0.016708755865693092
1772785588206658000,6.202657958984375,-0.01412658579647541,-0.006357384845614433,-0.024708107113838196
1772785588216674000,6.212674072265625,-0.015429405495524406,-0.0057874685153365135,-0.025286013260483742
1772785588226691000,6.222691162109375,-0.01681550405919552,0.008744899183511734,-0.02297607995569706
1772785588236707300,6.232707275390625,-0.019185982644557953,0.02207854762673378,-0.01569286733865738
1772785588246724000,6.24272412109375,-0.025147661566734314,0.03712060675024986,-0.009129991754889488
1772785588256740000,6.252739990234375,-0.026354603469371796,0.04299261048436165,0.002529327291995287
1772785588266757000,6.262757080078125,-0.02634880132973194,0.04509422183036804,0.013345378451049328
1772785588276773000,6.272773193359375,-0.028549637645483017,0.0387100949883461,0.01947198063135147
1772785588286790100,6.2827900390625,-0.024246452376246452,0.03161954879760742,0.01653076708316803
1772785588296806100,6.29280615234375,-0.019406955689191818,0.02800457365810871,0.011489935219287872
1772785588306823000,6.302822998046875,-0.016461754217743874,0.023854635655879974,-0.0028975307941436768
1772785588316839200,6.312839111328125,-0.012118404731154442,0.02479366585612297,-0.017518816515803337
1772785588326856200,6.322856201171875,-0.012676422484219074,0.02765064500272274,-0.0332818403840065
1772785588336872200,6.3328720703125,-0.012713173404335976,0.026308678090572357,-0.041381847113370895
1772785588346889000,6.342888916015625,-0.013445831835269928,0.031230060383677483,-0.041535310447216034
1772785588356905000,6.352905029296875,-0.01267111673951149,0.04311148822307587,-0.03055429831147194
1772785588366922200,6.362922119140625,-0.012335317209362984,0.05598476529121399,-0.013218643143773079
1772785588376938000,6.37293798828125,-0.011151542887091637,0.06461287289857864,0.010500267148017883
1772785588386954000,6.3829541015625,-0.013596590608358383,0.06995224952697754,0.019433042034506798
1772785588396971000,6.392970947265625,-0.01379286590963602,0.04318161681294441,0.017745662480592728
1772785588406987300,6.4029873046875,-0.015411731787025928,0.02396070770919323,0.01801416650414467
1772785588417004000,6.413004150390625,-0.019022177904844284,0.02282700128853321,0.02519218437373638
1772785588427020000,6.42302001953125,-0.024210426956415176,0.022561831399798393,0.0416666641831398
1772785588437037000,6.433037109375,-0.029391871765255928,0.021316271275281906,0.05557342618703842
1772785588447053300,6.44305322265625,-0.03585868328809738,0.0266508050262928,0.06390269100666046
1772785588457070000,6.453070068359375,-0.040338121354579926,0.03751436993479729,0.07117205113172531
1772785588467086000,6.463086181640625,-0.04203927144408226,0.04582555964589119,0.06727030128240585
1772785588477103000,6.47310302734375,-0.04619699716567993,0.050380364060401917,0.05472681671380997
1772785588487119000,6.483119140625,-0.04411261901259422,0.04314638674259186,0.03583177551627159
1772785588497136000,6.49313623046875,-0.03891545906662941,0.03796813637018204,0.015561927109956741
1772785588507152100,6.503152099609375,-0.0342862531542778,0.03592836484313011,0.001360721536912024
1772785588517169000,6.5131689453125,-0.02681555226445198,0.03296959027647972,-0.0058764186687767506
1772785588527185200,6.52318505859375,-0.02356823906302452,0.03920729085803032,-0.005655073095113039
1772785588537202200,6.5332021484375,-0.020952748134732246,0.04324065148830414,-0.00465212669223547
1772785588547218200,6.54321826171875,-0.020161792635917664,0.04713548719882965,-0.002630650531500578
1772785588557235000,6.55323486328125,-0.02068750187754631,0.04983273521065712,0.0018679613713175058
1772785588567251200,6.563251220703125,-0.019805047661066055,0.05184900760650635,0.008563507348299026
1772785588577268200,6.573268310546875,-0.018844446167349815,0.04776931181550026,0.010262071155011654
1772785588587284000,6.583283935546875,-0.011632679961621761,0.035408250987529755,0.004768455866724253
1772785588597300000,6.593300048828125,-0.007463234942406416,0.023542271926999092,-0.005979795940220356
1772785588607317200,6.603317138671875,-0.0006629242561757565,0.01677734963595867,-0.012316704727709293
1772785588617333200,6.613333251953125,0.0036431411281228065,0.010163122788071632,-0.012601129710674286
1772785588627350000,6.62335009765625,0.004748615901917219,0.0026934167835861444,-0.012014159932732582
1772785588637366000,6.633365966796875,0.001831122674047947,0.000437719514593482,-0.006004469934850931
1772785588647383300,6.64338330078125,-0.0016232137568295002,-0.0016279721166938543,0.010248782113194466
1772785588657399300,6.6533994140625,-0.005677343811839819,0.003865063888952136,0.034022554755210876
1772785588667416000,6.663416015625,-0.009835967794060707,0.011200569570064545,0.051300108432769775
1772785588677432000,6.67343212890625,-0.008317699655890465,0.012842142023146152,0.06357647478580475
1772785588687449300,6.683449462890625,-0.004307584371417761,0.004050785209983587,0.054361097514629364
1772785588697465000,6.693465087890625,0.0032568583264946938,-0.009895390830934048,0.037937384098768234
1772785588707482000,6.703482177734375,0.01084095984697342,-0.025032848119735718,0.02295657992362976
1772785588717498000,6.713498046875,0.014248207211494446,-0.03598110005259514,0.0052438946440815926
1772785588727515000,6.723514892578125,0.01740335114300251,-0.04187134653329849,-0.0005630177329294384
1772785588737531100,6.73353125,0.01391487754881382,-0.03708964213728905,0.0034319900441914797
1772785588747548200,6.743548095703125,0.00676811533048749,-0.019456718116998672,0.012254887260496616
1772785588757564200,6.753564208984375,-0.0012815555091947317,-0.0012843701988458633,0.01897910237312317
1772785588767581000,6.763580810546875,-0.010838356800377369,0.008415878750383854,0.015369195491075516
1772785588777597200,6.77359716796875,-0.012341711670160294,0.009419623762369156,0.004420674405992031
1772785588787613200,6.78361328125,-0.013700769282877445,0.01040467619895935,-0.008083123713731766
1772785588797630000,6.7936298828125,-0.011391010135412216,0.016807980835437775,-0.021544603630900383
1772785588807646000,6.80364599609375,-0.011077920906245708,0.015368105843663216,-0.03138415887951851
1772785588817663200,6.813663330078125,-0.013361847028136253,0.01618303172290325,-0.040087901055812836
1772785588827679200,6.82367919921875,-0.017337437719106674,0.0170244500041008,-0.043284822255373
1772785588837696000,6.833696044921875,-0.019192062318325043,0.02015313319861889,-0.036149151623249054
1772785588847712000,6.8437119140625,-0.02585660107433796,0.029447704553604126,-0.01939993165433407
1772785588857729300,6.853729248046875,-0.03144790604710579,0.03349491208791733,-0.005862286314368248
1772785588867745300,6.863745361328125,-0.035930879414081573,0.029735900461673737,0.00044203130528330803
1772785588877762000,6.873761962890625,-0.03694634139537811,0.03138892352581024,0.0055792685598134995
1772785588887778000,6.883778076171875,-0.03560113161802292,0.0252828411757946,0.006139995064586401
1772785588897795300,6.89379541015625,-0.03198056295514107,0.019225213676691055,0.00238946545869112
1772785588907811000,6.90381103515625,-0.03200508654117584,0.009054766036570072,-0.004083551932126284
1772785588917828000,6.913828125,-0.02849450893700123,0.011773320846259594,-0.004765054676681757
1772785588927844000,6.923843994140625,-0.021265286952257156,0.017733130604028702,0.003549656830728054
1772785588937861000,6.933861083984375,-0.02111535146832466,0.019307060167193413,0.010184656828641891
1772785588947877000,6.943877197265625,-0.017476262524724007,0.015093095600605011,0.005966438911855221
1772785588957894100,6.95389404296875,-0.015576362609863281,0.012844854965806007,0.0025109872221946716
1772785588967909400,6.963909423828125,-0.016758538782596588,0.012900550849735737,-0.0007363439071923494
1772785588977925400,6.97392529296875,-0.016522318124771118,0.0027057044208049774,-0.005193943157792091
1772785588987942400,6.9839423828125,-0.01796763949096203,-0.004045888781547546,-0.008906176313757896
1772785588997958400,6.99395849609375,-0.01792636141180992,-0.00019122916273772717,-0.0047135623171925545
1772785589007975400,7.003975341796875,-0.017583757638931274,0.008588496595621109,0.003495262935757637
1772785589017991400,7.013991455078125,-0.01870068721473217,0.02031998708844185,0.013997439295053482
1772785589028008400,7.024008544921875,-0.018006740137934685,0.021087247878313065,0.014135344885289669
1772785589038024400,7.0340244140625,-0.018593700602650642,0.018852056935429573,0.005174074321985245
1772785589048041200,7.044041259765625,-0.01875702477991581,0.018912550061941147,-0.002747416030615568
1772785589058057200,7.05405712890625,-0.014836052432656288,0.008517701178789139,-0.0160823967307806
1772785589068074500,7.064074462890625,-0.012715376913547516,-0.005666597746312618,-0.030032426118850708
1772785589078090500,7.074090576171875,-0.012233611196279526,-0.008400066755712032,-0.03330065682530403
1772785589088107300,7.084107177734375,-0.009646883234381676,-0.00697128102183342,-0.024538058787584305
1772785589098123300,7.094123291015625,-0.008843939751386642,-0.00019699824042618275,-0.012890458106994629
1772785589108140300,7.104140380859375,-0.01054913830012083,-0.001291647320613265,0.0027073363307863474
1772785589118156500,7.114156494140625,-0.0070334989577531815,0.004450660664588213,0.021596338599920273
1772785589128173300,7.12417333984375,-0.00955338217318058,0.010813788510859013,0.03419055417180061
1772785589138189300,7.134189208984375,-0.008688920177519321,0.008230255916714668,0.034441158175468445
1772785589148205300,7.144205322265625,-0.002198505448177457,0.005904426798224449,0.028364816680550575
1772785589158222300,7.154222412109375,0.0037267617881298065,-0.0012365730945020914,0.01606394164264202
1772785589168238300,7.16423828125,0.0045696767047047615,-0.016256891191005707,-0.0028823926113545895
1772785589178255400,7.17425537109375,0.00597555935382843,-0.01832243986427784,-0.010738451965153217
1772785589188271400,7.184271240234375,0.007628486026078463,-0.010825584642589092,-0.012989986687898636
1772785589198288400,7.194288330078125,0.007302249316126108,-0.01174677163362503,-0.011528443545103073
1772785589208304400,7.204304443359375,0.008412422612309456,-0.010938333347439766,-0.011218435131013393
1772785589218321400,7.2143212890625,0.011079579591751099,-0.004030626267194748,0.00013541895896196365
1772785589228337400,7.22433740234375,0.010937345214188099,0.0038563385605812073,0.008934324607253075
1772785589238354400,7.2343544921875,0.01012907549738884,0.005802842788398266,0.015541894361376762
1772785589248370400,7.244370361328125,0.008302265778183937,0.0071781836450099945,0.018680324777960777
1772785589258387200,7.25438720703125,0.006746180821210146,0.006748083047568798,0.009190150536596775
1772785589268403200,7.2644033203125,0.0059084719978272915,0.00810740515589714,-0.0016161210369318724
1772785589278420500,7.27442041015625,0.007923951372504234,0.013808967545628548,-0.010309211909770966
1772785589288436500,7.2844365234375,0.009113851934671402,0.01971406862139702,-0.02583305537700653
1772785589298452500,7.294452392578125,0.008969243615865707,0.023165792226791382,-0.036393553018569946
1772785589308469200,7.30446923828125,0.01073097437620163,0.021436307579278946,-0.04873916506767273
1772785589318485200,7.3144853515625,0.011322461999952793,0.014777073636651039,-0.054793328046798706
1772785589328502500,7.32450244140625,0.01663687452673912,0.007561995182186365,-0.06068192422389984
1772785589338518300,7.334518310546875,0.014877324923872948,0.0031667142175137997,-0.06393443793058395
1772785589348535300,7.344535400390625,0.01135800126940012,-0.0031528405379503965,-0.049982164055109024
1772785589358551300,7.35455126953125,0.0076974863186478615,0.0039074658416211605,-0.02530558407306671
1772785589368568300,7.364568359375,-0.0027413310017436743,0.03589854761958122,0.007469342090189457
1772785589378584300,7.374584228515625,-0.010956916958093643,0.046149589121341705,0.03069290705025196
1772785589388601300,7.384601318359375,-0.016033457592129707,0.03626592457294464,0.0338984876871109
1772785589398617300,7.394617431640625,-0.015413207933306694,0.02622261270880699,0.02059999294579029
1772785589408634400,7.40463427734375,-0.014587191864848137,0.025767803192138672,0.0043918960727751255
1772785589418650400,7.414650390625,-0.012013247236609459,0.015735939145088196,-0.01319082546979189
1772785589428667400,7.42466748046875,-0.008830987848341465,0.0002124612219631672,-0.03123282454907894
1772785589438683400,7.434683349609375,-0.004911880008876324,-0.0023750662803649902,-0.04059996083378792
1772785589448700400,7.444700439453125,-0.002599505241960287,-0.0023929961025714874,-0.040810469537973404
1772785589458716400,7.45471630859375,-0.003303911304101348,-0.005908368155360222,-0.03134559467434883
1772785589468732400,7.464732421875,-0.007094383239746094,0.0019632442854344845,-0.01515585370361805
1772785589478749200,7.474749267578125,-0.011542661115527153,0.0036623412743210793,0.003151514334604144
1772785589488765200,7.48476513671875,-0.01060014683753252,0.0032189544290304184,0.022340070456266403
1772785589498782500,7.494782470703125,-0.00885071698576212,0.005059465300291777,0.044366542249917984
1772785589508798500,7.504798583984375,-0.005206813104450703,0.001862510573118925,0.05504157394170761
1772785589518815200,7.514815185546875,-0.003038467140868306,-0.004467823076993227,0.05667968466877937
1772785589528831200,7.524831298828125,0.0034915797878056765,-0.016836784780025482,0.04566838592290878
1772785589538848500,7.5348486328125,0.009393677115440369,-0.03119575046002865,0.029812457039952278
1772785589548864300,7.5448642578125,0.015218472108244896,-0.040489114820957184,0.010864820331335068
1772785589558881300,7.55488134765625,0.018331440165638924,-0.04342018812894821,0.002866282593458891
1772785589568897300,7.564897216796875,0.018383421003818512,-0.04535195976495743,0.004566829185932875
1772785589578914300,7.574914306640625,0.015875255689024925,-0.033178649842739105,0.015166210941970348
1772785589588930300,7.584930419921875,0.012908712029457092,-0.016531582921743393,0.02845180407166481
1772785589598946300,7.5949462890625,0.004285129718482494,-0.004017922095954418,0.030901378020644188
1772785589608963300,7.60496337890625,0.0000024030450731515884,-0.0007993602193892002,0.026748599484562874
1772785589618979300,7.614979248046875,-0.001165393041446805,-0.006800261326134205,0.01636813022196293
1772785589628996400,7.624996337890625,0.005738175008445978,-0.002417185576632619,0.00837415736168623
1772785589639012400,7.635012451171875,0.0077800205908715725,-0.005329619161784649,-0.005476410035043955
1772785589649029400,7.645029296875,0.011508348397910595,-0.01033836044371128,-0.014952581375837326
1772785589659045400,7.65504541015625,0.018447481095790863,-0.008564695715904236,-0.020360395312309265
1772785589669062400,7.6650625,0.017458215355873108,0.0007719104178249836,-0.020143628120422363
1772785589679078400,7.675078369140625,0.016421979293227196,0.009237300604581833,-0.02036839909851551
1772785589689095200,7.68509521484375,0.014728186652064323,0.01392561849206686,-0.017259882763028145
1772785589699111400,7.695111328125,0.014075446873903275,0.01882956363260746,-0.020818931981921196
1772785589709128400,7.70512841796875,0.01451781764626503,0.017093665897846222,-0.0275843758136034
1772785589719144400,7.71514453125,0.012446677312254906,0.005915845278650522,-0.03576533868908882
1772785589729161200,7.7251611328125,0.012334363535046577,0.0016915355809032917,-0.03680445998907089
1772785589739177500,7.735177490234375,0.013947173953056335,0.0008654231205582619,-0.03392079100012779
1772785589749193500,7.745193359375,0.01764095388352871,-0.0029742324259132147,-0.02649262733757496
1772785589759210200,7.755210205078125,0.01933419145643711,-0.0014165493194013834,-0.01874602399766445
1772785589769226200,7.765226318359375,0.019251201301813126,0.00046453671529889107,-0.0032794643193483353
1772785589779243300,7.7752431640625,0.018830688670277596,-0.0007000637706369162,0.014661187306046486
1772785589789259500,7.785259521484375,0.014207172207534313,-0.0025754226371645927,0.027356334030628204
1772785589799276300,7.7952763671875,0.014172018505632877,-0.010274088010191917,0.031197411939501762
1772785589809292300,7.805292236328125,0.014232810586690903,-0.01685076765716076,0.022895317524671555
1772785589819309300,7.815309326171875,0.01836284063756466,-0.02106761746108532,0.013649355620145798
1772785589829325300,7.8253251953125,0.024838611483573914,-0.02124541625380516,0.002721015363931656
1772785589839342300,7.83534228515625,0.02741575427353382,-0.015648253262043,-0.01003952044993639
1772785589849358300,7.8453583984375,0.025692539289593697,-0.015959151089191437,-0.027343260124325752
1772785589859375400,7.855375244140625,0.023802760988473892,-0.017642002552747726,-0.038789257407188416
1772785589869391400,7.865391357421875,0.01602117344737053,-0.020616695284843445,-0.047765009105205536
1772785589879407400,7.875407470703125,0.011355847120285034,-0.01750985160470009,-0.04137502238154411
1772785589889424400,7.88542431640625,0.004444488324224949,-0.005978180095553398,-0.017696795985102654
1772785589899440400,7.8954404296875,-0.0016400355380028486,0.012145696207880974,0.013584427535533905
1772785589909457400,7.90545751953125,-0.008428335189819336,0.02990485355257988,0.03788561746478081
1772785589919473400,7.915473388671875,-0.012326669879257679,0.06670840829610825,0.05450613796710968
1772785589929490400,7.925490478515625,-0.017634792253375053,0.09553813934326172,0.0686713233590126
1772785589939506200,7.935506103515625,-0.02284526638686657,0.06997872143983841,0.05149659514427185
1772785589949523500,7.9455234375,-0.025478115305304527,0.043968603014945984,0.006992658134549856
1772785589959539500,7.95553955078125,-0.04144402965903282,0.010236737318336964,-0.025794049724936485
1772785589969556000,7.965555908203125,-0.041293464601039886,0.001190379960462451,-0.041760921478271484
1772785589979572000,7.975572021484375,-0.040317416191101074,0.004175783600658178,-0.053508393466472626
1772785589989589200,7.98558935546875,-0.04634930565953255,-0.01347582321614027,-0.07462989538908005
1772785589999605200,7.995605224609375,-0.04112418368458748,-0.023108743131160736,-0.10615240037441254
1772785590009621200,8.005621337890625,-0.03500443324446678,-0.012599911540746689,-0.12191959470510483
1772785590019638000,8.015637939453125,-0.03235245868563652,-0.0014236895367503166,-0.13230858743190765
1772785590029654000,8.025654052734374,-0.026486894115805626,0.00333449337631464,-0.13569970428943634
1772785590039671300,8.03567138671875,-0.02380908466875553,0.007241350598633289,-0.13877566158771515
1772785590049687000,8.04568701171875,-0.02260001376271248,0.008584688417613506,-0.1348164826631546
1772785590059704000,8.0557041015625,-0.023189637809991837,0.013706746511161327,-0.1180923581123352
1772785590069720000,8.065719970703125,-0.019971493631601334,0.015168871730566025,-0.08477920293807983
1772785590079737000,8.075737060546874,-0.021556342020630836,0.04462849348783493,-0.03508727625012398
1772785590089753000,8.085753173828126,-0.024859730154275894,0.08781861513853073,0.022992132231593132
1772785590099770000,8.09577001953125,-0.03224493935704231,0.09743528813123703,0.05955759808421135
1772785590109786000,8.1057861328125,-0.029573865234851837,0.08245478570461273,0.06663370132446289
1772785590119803100,8.11580322265625,-0.027826830744743347,0.06532026827335358,0.05731236934661865
1772785590129819100,8.125819091796876,-0.028664682060480118,0.047391653060913086,0.04471583291888237
1772785590139835100,8.135835205078125,-0.02566596120595932,0.04550054296851158,0.05013936012983322
1772785590149852200,8.14585205078125,-0.01947949081659317,0.042527876794338226,0.050859484821558
1772785590159868000,8.155867919921874,-0.013143030926585197,0.027700461447238922,0.02751421555876732
1772785590169885200,8.16588525390625,-0.009111805818974972,0.01502172276377678,0.005016755778342485
1772785590179901200,8.175901123046875,-0.00991048850119114,0.006665521301329136,0.00048512069042772055
1772785590189918000,8.18591796875,-0.007031025364995003,0.016635339707136154,0.014719851315021515
1772785590199934000,8.195933837890625,-0.0076744453981518745,0.03639732673764229,0.03503204509615898
1772785590209951200,8.205951171875,-0.009106841869652271,0.036522313952445984,0.03887408226728439
1772785590219967200,8.21596728515625,-0.002715787850320339,0.027521628886461258,0.03655180707573891
1772785590229984000,8.22598388671875,0.0001264861784875393,0.020238064229488373,0.03323814272880554
1772785590240000000,8.236,0.004286343697458506,0.008463163860142231,0.03040027618408203
1772785590250017300,8.246017333984375,0.0036344488617032766,-0.0010261242277920246,0.022955527529120445
1772785590260033000,8.256032958984376,0.0014661031309515238,-0.0042634629644453526,0.017397243529558182
1772785590270049000,8.266049072265625,0.0034510078839957714,0.0006666281260550022,0.016636639833450317
1772785590280066000,8.276066162109375,0.0010312595404684544,0.002604343928396702,0.0063919913955032825
1772785590290082300,8.286082275390624,-0.006367534399032593,0.008072612807154655,-0.010049033910036087
1772785590300099000,8.29609912109375,-0.01730646938085556,0.0053860158659517765,-0.0347202904522419
1772785590310115000,8.306114990234375,-0.028286803513765335,-0.01596858724951744,-0.05546369031071663
1772785590320132000,8.316132080078125,-0.03162693977355957,-0.013382391072809696,-0.0625985637307167
1772785590330148000,8.326148193359375,-0.039845529943704605,-0.022131364792585373,-0.06557483226060867
1772785590340165000,8.3361650390625,-0.053619664162397385,-0.03626982122659683,-0.07868077605962753
1772785590350181000,8.34618115234375,-0.06195150315761566,-0.0533318929374218,-0.07959060370922089
1772785590360198100,8.3561982421875,-0.06706663221120834,-0.05459369719028473,-0.07556763291358948
1772785590370214000,8.3662138671875,-0.0759919285774231,-0.039365872740745544,-0.06740390509366989
1772785590380231200,8.376231201171874,-0.08981107175350189,-0.029142796993255615,-0.05513659119606018
1772785590390247200,8.3862470703125,-0.10184532403945923,-0.04422676935791969,-0.04837765917181969
1772785590400263200,8.39626318359375,-0.1167054995894432,-0.06257648020982742,-0.061354443430900574
1772785590410280000,8.406280029296875,-0.1310749053955078,-0.08498094230890274,-0.07813753187656403
1772785590420296200,8.416296142578124,-0.1343628317117691,-0.10585959255695343,-0.07837721705436707
1772785590430313200,8.426313232421874,-0.14605876803398132,-0.10595706105232239,-0.06263882666826248
1772785590440329000,8.436328857421875,-0.12959538400173187,-0.09363088756799698,-0.035026900470256805
1772785590450346000,8.446345947265625,-0.11096274852752686,-0.0653117224574089,-0.008702917024493217
1772785590460362200,8.4563623046875,-0.08876876533031464,-0.051112815737724304,0.007583644241094589
1772785590470379000,8.46637890625,-0.07194384187459946,-0.04451034218072891,0.01231161318719387
1772785590480395000,8.47639501953125,-0.07477771490812302,-0.05158716067671776,-0.004520363640040159
1772785590490412000,8.486412109375,-0.08185326308012009,-0.0705866888165474,-0.03161231055855751
1772785590500428300,8.49642822265625,-0.08733218163251877,-0.1149967685341835,-0.06512925773859024
1772785590510444300,8.5064443359375,-0.08646795153617859,-0.10012846440076828,-0.06453236937522888
1772785590520461000,8.5164609375,-0.08127239346504211,-0.05821430683135986,-0.01825462281703949
1772785590530477000,8.52647705078125,-0.06732691079378128,-0.03034043125808239,0.019137101247906685
1772785590540494000,8.536494140625,-0.051105596125125885,-0.01169324479997158,0.040807776153087616
1772785590550510000,8.546510009765624,-0.04649735614657402,0.010375091806054115,0.050132207572460175
1772785590560527000,8.556527099609376,-0.046336233615875244,0.025123145431280136,0.03981219232082367
1772785590570543000,8.566543212890625,-0.047956373542547226,0.02895410545170307,0.019695919007062912
1772785590580560100,8.57656005859375,-0.04142816737294197,0.005094313062727451,-0.022094404324889183
1772785590590576000,8.586576171875,-0.03584710881114006,-0.011262025684118271,-0.07518602907657623
1772785590600593200,8.59659326171875,-0.037556324154138565,0.013175406493246555,-0.11359919607639313
1772785590610609200,8.606609130859376,-0.025448700413107872,0.023985084146261215,-0.14227375388145447
1772785590620625000,8.616625,-0.024247348308563232,-0.010387003421783447,-0.1796504110097885
1772785590630642200,8.62664208984375,-0.02344335801899433,-0.015179312787950039,-0.21303799748420715
1772785590640658200,8.636658203125,-0.0169345922768116,-0.04080637916922569,-0.22793863713741302
1772785590650675000,8.646675048828126,-0.014755574986338615,-0.060199037194252014,-0.20886848866939545
1772785590660691000,8.65669091796875,-0.028793364763259888,-0.029288791120052338,-0.14683307707309723
1772785590670708200,8.666708251953125,-0.04143889620900154,0.021322594955563545,-0.06468519568443298
1772785590680724200,8.67672412109375,-0.04424799606204033,0.06735453754663467,0.019311437383294106
1772785590690741000,8.686740966796876,-0.04740038514137268,0.09941530972719193,0.08024469017982483
1772785590700757000,8.696757080078125,-0.05491982027888298,0.10501407086849213,0.10913705825805664
1772785590710774300,8.706774169921875,-0.05717996880412102,0.0835617333650589,0.10549670457839966
1772785590720790300,8.716790283203125,-0.052464310079813004,0.05557617172598839,0.07408098876476288
1772785590730806000,8.726805908203126,-0.03931364417076111,0.034534625709056854,0.03510436788201332
1772785590740823000,8.736822998046875,-0.020699480548501015,0.02727591246366501,0.011932468973100185
1772785590750839000,8.746839111328125,-0.005246739834547043,0.019396599382162094,-0.002624080516397953
1772785590760856000,8.75685595703125,0.0038101384416222572,0.03271586820483208,-0.01022074744105339
1772785590770872000,8.7668720703125,0.006786692421883345,0.05734344571828842,-0.012223584577441216
1772785590780889000,8.77688916015625,0.00881468877196312,0.06826134026050568,-0.01083980593830347
1772785590790905000,8.786905029296875,0.009971086867153645,0.06729918718338013,-0.002419428899884224
1772785590800922000,8.796922119140625,0.013609763234853745,0.06534762680530548,0.0062598129734396935
1772785590810938000,8.806938232421874,0.020466646179556847,0.07815808802843094,0.03009428083896637
1772785590820955100,8.816955078125,0.023264029994606972,0.0854136049747467,0.05045201629400253
1772785590830971000,8.826970947265625,0.027613388374447823,0.07973112910985947,0.06969425827264786
1772785590840987100,8.836987060546875,0.03420950472354889,0.06169727072119713,0.0737430602312088
1772785590851004200,8.847004150390624,0.04410460218787193,0.0629146471619606,0.07845795899629593
1772785590861020200,8.857020263671876,0.05273297801613808,0.05792654678225517,0.07451674342155457
1772785590871037000,8.867036865234375,0.053073640912771225,0.038955338299274445,0.061075359582901
1772785590881053200,8.87705322265625,0.05310586467385292,0.02485949546098709,0.047140900045633316
1772785590891070200,8.8870703125,0.054626818746328354,0.027583060786128044,0.025720881298184395
1772785590901086200,8.897086181640624,0.04773082956671715,0.009745740331709385,-0.008582498878240585
1772785590911103000,8.90710302734375,0.047902900725603104,-0.0030621057376265526,-0.027721893042325974
1772785590921119200,8.917119140625,0.05077485367655754,-0.0065939901396632195,-0.04702155664563179
1772785590931136300,8.92713623046875,0.05075526982545853,-0.009903721511363983,-0.06309955567121506
1772785590941152000,8.937152099609374,0.05015712231397629,-0.013946933671832085,-0.07871739566326141
1772785590951168000,8.94716796875,0.0479903444647789,-0.020048903301358223,-0.10690436512231827
1772785590961185300,8.957185302734375,0.04773308336734772,-0.01738574169576168,-0.13756321370601654
1772785590971201300,8.967201171875,0.04226634278893471,-0.027270328253507614,-0.16203077137470245
1772785590981218000,8.977218017578124,0.030535385012626648,-0.036901917308568954,-0.16045817732810974
1772785590991234000,8.987234130859376,0.021500838920474052,-0.03884482383728027,-0.13591179251670837
1772785591001251000,8.9972509765625,0.020073918625712395,-0.03598139435052872,-0.09149106591939926
1772785591011267000,9.00726708984375,0.013659222982823849,0.002141266595572233,-0.04523925110697746
1772785591021284000,9.0172841796875,0.007368836551904678,0.026611454784870148,-0.0065927887335419655
