time,seconds_elapsed,z,y,x
1772786486889803000,0.056802978515625,-0.46742637309134005,-0.4038914740309119,-0.09829071675166487
1772786486899819000,0.066819091796875,-0.2384825929045677,-1.1590651139333843,-0.6981775680262595
1772786486909834800,0.076834716796875,0.15346972926855088,-1.3156759177066384,-0.9364888229519128
1772786486919850800,0.086850830078125,0.4552151262938976,-1.3817273296326398,-0.8739956149641424
1772786486929867000,0.096866943359375,0.881526814186573,-1.429983703279495,-0.7634764810845256
1772786486939883000,0.106883056640625,0.2970721445173025,-1.9910409846179187,-0.6589772650815546
1772786486949899000,0.11689892578125,-0.46029637508094307,-1.9799626873731613,-0.7142765429772436
1772786486959915000,0.1269150390625,-0.7610217814087867,-1.8243553615540264,-0.8316958116341382
1772786486969930000,0.136929931640625,-1.0291261901170015,-1.774251021952927,-0.7024106024861335
1772786486979946000,0.146946044921875,-1.2130004099994898,-1.5144121911562978,-0.4023836998164654
1772786486989962000,0.1569619140625,-1.2939192823201418,-1.33319009321779,-0.24108342305272817
1772786486999977700,0.166977783203125,-1.1273562627226115,-1.2919098421938717,-0.19480445042606442
1772786487009994000,0.176993896484375,-0.8080237710803747,-1.4082475261591374,-0.21808654181417075
1772786487020010000,0.187010009765625,-0.40813481068909163,-1.6456731573566794,-0.18564524814300237
1772786487030026000,0.19702587890625,-0.047182022413611406,-1.8141276897892356,-0.14049655818790197
1772786487040042000,0.2070419921875,0.36038755560815333,-1.841808892919123,-0.22914503837991504
1772786487050058000,0.21705810546875,0.6866179900705814,-1.829382542066276,-0.31572869499661027
1772786487060073000,0.227072998046875,0.9230126707851887,-1.5291229996845126,-0.2558518435196951
1772786487070089000,0.2370888671875,1.2027058104783297,-1.4042609407410025,-0.20314119387771934
1772786487080104700,0.247104736328125,1.3703461039185523,-1.516430983632803,-0.33443540476057676
1772786487090121000,0.257120849609375,1.3882576081842184,-1.615197647333145,-0.5361359713759273
1772786487100137000,0.267136962890625,1.4773884285330772,-1.6311926504530012,-0.6914671836674213
1772786487110153000,0.277153076171875,1.5949001247137784,-1.6088156912110745,-0.7705758647609502
1772786487120169000,0.2871689453125,1.7036930923879146,-1.6527144541703163,-0.808853572968021
1772786487130185000,0.29718505859375,1.87503983913064,-1.6320701639398931,-0.8224199607014656
1772786487140201000,0.307200927734375,2.020271901407838,-1.6304126059912145,-0.8678592311009764
1772786487150216700,0.317216796875,2.010319247192144,-1.752726149495691,-0.8632827169656753
1772786487160232000,0.32723193359375,1.9010270978242159,-1.796944499798119,-0.9369991836268454
1772786487170248000,0.337248046875,1.8605331748723983,-1.465542946308106,-0.8937089810200035
1772786487180264000,0.347263916015625,1.2445955717027186,-1.7750095852352679,-0.734757678535208
1772786487190280000,0.357280029296875,0.9170797736048698,-1.4018364900730549,-0.7229572044957429
1772786487200296000,0.3672958984375,0.3574655306816101,-1.5884348742224275,-0.6189060245212167
1772786487210312000,0.37731201171875,-0.5798942298859358,-2.066086873251945,-0.4629265043888241
1772786487220328000,0.387327880859375,-0.7490279767543077,-2.118173472711444,-0.5539473397353664
1772786487230344000,0.397343994140625,-0.7468418648868799,-2.0983831689618526,-0.5817354007732123
1772786487240360000,0.40735986328125,-0.7768132247805595,-2.0441163028538227,-0.505431694097817
1772786487250375000,0.417375,-0.7115536938846111,-1.8314961732193826,-0.4631450425103307
1772786487260391000,0.427390869140625,-0.7093102988719939,-1.6970662215940653,-0.5540531016647815
1772786487270407000,0.437406982421875,-0.8438567164838313,-1.5619824822351336,-0.5766889675712212
1772786487280423000,0.4474228515625,-0.9888888722747564,-1.4006313520669937,-0.6396509255819022
1772786487290439000,0.45743896484375,-1.3010574636369943,-1.3049873504318297,-0.6500148640122264
1772786487300455000,0.467454833984375,-1.6671557981073855,-1.2485272120632231,-0.6488421669710427
1772786487310471000,0.477470947265625,-1.7946219020694494,-1.043535750676319,-0.7434787451293319
1772786487320487000,0.48748681640625,-2.0621219151437282,-1.1168399102095514,-0.6953398603823036
1772786487330503000,0.4975029296875,-2.352776009312272,-1.3585801166705787,-0.7401178173288703
1772786487340519000,0.507518798828125,-2.8620371985703703,-1.7795362688794731,-0.9358798972733319
1772786487350534000,0.517533935546875,-2.9073423211961984,-1.9760849691569804,-0.9999870432637631
1772786487360550000,0.5275498046875,-2.879805494973063,-1.94913617195487,-0.5533996792573481
1772786487370566000,0.53756591796875,-2.620982124829292,-0.2194238365662284,0.4947752389943227
1772786487380582000,0.547581787109375,-2.872058826369047,0.7189565905522555,1.147892562533915
1772786487390598000,0.557597900390625,-3.04258958055377,0.6611858810417354,0.7878733287815004
1772786487400614100,0.5676142578125,-2.88633869613409,0.37756314681470393,-0.06583747691437601
1772786487410630000,0.5776298828125,-2.55699743617475,0.3685995036363601,-0.780758747535944
1772786487420646000,0.58764599609375,-2.1605723525017497,0.31139768005497753,-1.1639854730702937
1772786487430662000,0.597661865234375,-1.3746394171983003,0.08240006905542686,-1.5572583763226866
1772786487440676900,0.6076767578125,-0.3609779227167368,-0.22911111784400418,-1.5603275546349584
1772786487450692900,0.61769287109375,0.4317436498135328,-0.3606892419684678,-1.0339852475207298
1772786487460708900,0.627708984375,0.8378396481513977,0.31652028376571834,-0.29754012735523283
1772786487470724900,0.637724853515625,0.9335469242811203,1.133421846371889,0.35928266310617324
1772786487480741000,0.6477412109375,1.0818459729135035,1.3073385897330938,0.6324372678760439
1772786487490756900,0.6577568359375,1.2038655019074678,1.3637997510150075,0.7519650531195103
1772786487500772900,0.66777294921875,1.3090730123102665,1.291420597372204,0.8724416635204106
1772786487510788900,0.677788818359375,1.4861165093898772,1.071590024902299,0.9360020623482763
1772786487520804900,0.687804931640625,1.7205623941242694,0.8688907661058008,0.9486557191509752
1772786487530819800,0.69781982421875,1.995442580577731,0.7446930162899196,0.891723652421683
1772786487540835800,0.7078359375,2.2058576013833284,0.6317738355312496,0.7773289922829717
1772786487550851800,0.717851806640625,2.2299387341946364,0.4959383279569447,0.6308743294082582
1772786487560868000,0.7278681640625,2.221424003827572,0.5326555088490248,0.5508058633718639
1772786487570884000,0.737884033203125,2.159513198837638,0.8007309106584638,0.543232943899557
1772786487580899800,0.74789990234375,1.9206606035768985,1.1589609229065476,0.556898261962831
1772786487590915800,0.757915771484375,1.6377485018372535,1.4157703228794039,0.645055999495834
1772786487600931800,0.767931884765625,1.5779150876432657,1.4559021345205605,0.8687485811561345
1772786487610947800,0.77794775390625,1.5964327411085366,1.3495923619642853,0.9402547513566911
1772786487620963800,0.7879638671875,1.511511062887311,1.1228311134483664,0.8551711605720221
1772786487630978800,0.797978759765625,1.373582601621747,0.8571192258998751,0.6119232894944027
1772786487640995000,0.8079951171875,1.3209995969474315,0.4971683081433177,0.37981008549127726
1772786487651011000,0.818010986328125,1.3038047165185211,0.14687624928764997,0.26670564782619477
1772786487661027000,0.828027099609375,1.1607453221052884,-0.07294579281592742,0.10636115568364038
1772786487671042800,0.838042724609375,0.9259832110285758,-0.17446542675253002,-0.008678962751757353
1772786487681058800,0.848058837890625,0.6974439199894666,-0.16038133528791368,-0.016961984988488256
1772786487691074800,0.85807470703125,0.4676198498368263,-0.09813479553759097,0.05735330608235672
1772786487701090800,0.8680908203125,0.29795535709261894,-0.08528985394649206,0.07232093891585245
1772786487711107000,0.878107177734375,0.2350584636747837,-0.13555354882776735,0.07442203938094899
1772786487721122000,0.8881220703125,0.2526566642075777,-0.2931080631919205,0.013711330895777791
1772786487731138000,0.898137939453125,0.2533750416100025,-0.6845934985056519,-0.13970997438747434
1772786487741154000,0.908154052734375,0.403449283221364,-1.2338155267521738,-0.38857071691080924
1772786487751169800,0.918169677734375,0.5606131908327341,-1.3581287196412681,-0.5502703682556748
1772786487761185800,0.928185791015625,0.8142658803403378,-1.2901229587770997,-0.4750881764234975
1772786487771201800,0.938201904296875,0.8450199150443076,-1.2776647514812647,-0.30337997595723715
1772786487781217800,0.9482177734375,0.8742951093673705,-1.3145692716389894,-0.3288818257540464
1772786487791234000,0.958234130859375,0.8371066577017306,-1.282258947403729,-0.29324889643471685
1772786487801250000,0.96825,0.5145914443701506,-1.216523761820048,-0.18351645595338195
1772786487811265000,0.97826513671875,0.09919336467981338,-1.2092903765004128,-0.08234579985123128
1772786487821281000,0.988281005859375,-0.17135668361485004,-1.115396944859624,-0.030652327895164488
1772786487831297000,0.998297119140625,-0.27500176700651646,-0.9847752264108508,0.041720469072088595
1772786487841313000,1.00831298828125,-0.21003449705541133,-0.9783123140070586,0.1303340240811929
1772786487851329000,1.0183291015625,-0.11249649836719035,-1.0049016302470117,0.15006792146842926
1772786487861345000,1.028344970703125,-0.08974047667980194,-1.0662553858760744,0.08556658852864056
1772786487871361000,1.038361083984375,-0.07559738503694534,-1.1891218870881943,-0.001786116231791675
1772786487881377000,1.048376953125,-0.22050912931859493,-1.320903443096578,-0.09454239706881344
1772786487891393000,1.05839306640625,-0.5636287392616272,-1.4873251545272768,-0.30554745618943124
1772786487901409000,1.068408935546875,-1.0262637864232063,-1.6477207375362515,-0.6130878397617489
1772786487911424000,1.078424072265625,-1.4608318460077045,-1.6493413244754076,-0.8743894365873187
1772786487921440000,1.08843994140625,-1.7193384052872658,-1.656207118591666,-1.1427457011647522
1772786487931456000,1.0984560546875,-1.9750188012301921,-1.7069491715744136,-1.397441323854029
1772786487941472000,1.108471923828125,-2.196274365001917,-1.6586087729059158,-1.5407162607140839
1772786487951488000,1.118488037109375,-2.1584265726447103,-1.1730674088660626,-1.3212681847557424
1772786487961504000,1.12850390625,-2.015260210725665,-0.6205272690474987,-0.9660526249580085
1772786487971520000,1.13852001953125,-2.3496605076402424,-0.6963746102575212,-0.9535713290475308
1772786487981536300,1.148536376953125,-2.49064075769186,-0.46376653540953994,-0.9236556448638439
1772786487991552000,1.158552001953125,-2.749756973302364,-0.3557751664418727,-0.7500025208748876
1772786488001567200,1.168567138671875,-2.9308599749058484,-0.34549412052202966,-0.5374162569774315
1772786488011583000,1.1785830078125,-2.954485180643201,-0.21066647481601683,-0.29642719767726955
1772786488021599000,1.188598876953125,-2.7302859646350144,0.1997817273819819,0.10021035970263183
1772786488031615000,1.198614990234375,-2.3586299960374832,1.7418071344658732,1.2074028091881424
1772786488041631000,1.208630859375,-1.9509218863278626,2.6568773218140005,2.1137261379137633
1772786488051647000,1.21864697265625,-1.45287708761096,2.432899493471533,2.1135338302120563
1772786488061663200,1.228663330078125,-0.7066103922635316,2.4211959039352835,1.9667355415314436
1772786488071679200,1.23867919921875,0.014509002345800399,2.469244041658938,1.8578586949661373
1772786488081695000,1.248695068359375,0.6660767218232154,2.4074567169182,1.685659423047304
1772786488091710200,1.258710205078125,1.0614239471316338,2.381955926567316,1.3994403887167572
1772786488101726000,1.268725830078125,1.259639996099472,2.325411178655177,0.9451884083665907
1772786488111742000,1.278741943359375,1.4832196189045905,2.170732511988282,0.4810869419142604
1772786488121758000,1.288758056640625,1.7527800716400146,1.9469969679690897,0.15568061025105415
1772786488131774000,1.29877392578125,1.9366051916837692,1.7129811452150343,-0.15144582222551106
1772786488141790200,1.308790283203125,2.0480103876829148,1.4865218753203748,-0.4531378816284239
1772786488151806200,1.31880615234375,1.8171867850989103,1.1679589067459106,-0.7178446837875991
1772786488161822200,1.328822265625,1.436588216111064,-0.23329192892629652,-1.4707228331640363
1772786488171838000,1.338837890625,0.7554179700523614,-1.3125713758200406,-2.2104459520868955
1772786488181853000,1.34885302734375,-0.15663491530120371,-1.530461993203312,-2.5057445110604166
1772786488191869000,1.358868896484375,-0.9462941776514053,-1.5396251044765115,-2.4333263405814765
1772786488201885000,1.368885009765625,-1.5413813004940746,-1.3635754407398402,-2.2053818005651236
1772786488211901000,1.37890087890625,-1.8019424542158842,-1.1090650384243577,-1.9755340572759508
1772786488221917200,1.388917236328125,-1.802443973997235,-1.0115765049010514,-1.6640288982585072
1772786488231933200,1.39893310546875,-1.61220431073606,-0.9898857743576168,-1.3045749702386558
1772786488241949200,1.40894921875,-1.2888082229167221,-1.0067857634931803,-0.9482166701465845
1772786488251965000,1.41896484375,-0.8810060051828622,-0.9713152216613292,-0.7096912610135973
1772786488261981000,1.42898095703125,-0.34005087002217765,-0.9093701490756124,-0.5571330936320126
1772786488271997000,1.438996826171875,0.2975678190797567,-0.8649982887119054,-0.5089401406101882
1772786488282012000,1.449011962890625,0.9180658620327711,-0.705223175688833,-0.4767090190909803
1772786488292028000,1.45902783203125,1.349417297658324,-0.4267081763969734,-0.43371392697319383
1772786488302044200,1.469044189453125,1.7481237702667711,-0.32772564145624633,-0.5406945845283567
1772786488312060200,1.47906005859375,2.1128233438551423,-0.2734870150620118,-0.5815248998276888
1772786488322076200,1.489076171875,2.302105560261011,-0.1900300025658682,-0.5566634302936494
1772786488332092200,1.499092041015625,2.446661330711841,-0.20689824485629796,-0.6435461794547737
1772786488342108000,1.50910791015625,2.379604395005107,-0.5350558845216408,-0.8746753408566117
1772786488352124000,1.5191240234375,2.2928116622149943,-0.7955533618900924,-1.1754131682746112
1772786488362140000,1.529139892578125,2.267541027358174,-0.881747909591347,-1.3005980294317006
1772786488372155000,1.53915478515625,2.110028744700551,-0.9983743473701179,-1.3053574989184737
1772786488382171100,1.549171142578125,1.9215403090208767,-1.1086091113504022,-1.342311557306349
1772786488392187100,1.559187255859375,1.9609686485677957,-1.157282176039368,-1.3481078224949539
1772786488402203100,1.569203125,2.0743425142914056,-1.2109930156998336,-1.2854948605850338
1772786488412219100,1.57921923828125,2.218998822507262,-1.2944397990629075,-1.2072430155165492
1772786488422235100,1.589235107421875,2.282165180516243,-1.3570439931444822,-1.042436484197527
1772786488432251000,1.5992509765625,2.0592291163116694,-1.3226932491227983,-0.7392296363174915
1772786488442267000,1.609266845703125,1.6636071657150984,-0.9512225739642978,-0.27776158710867166
1772786488452283100,1.619283203125,1.0812369011044503,-0.42055261290930207,0.3812570328965783
1772786488462298000,1.629298095703125,0.33723113642632957,-0.052845491535402835,1.014078989241272
1772786488472314000,1.639314208984375,-0.09643559040427208,0.06342511854302138,1.204410422439128
1772786488482330000,1.649330078125,-0.1599035617083311,-0.1879502371497452,0.939686011558026
1772786488492346000,1.65934619140625,0.04228255993425846,-0.7033952296093106,0.25808862612843514
1772786488502362000,1.669362060546875,0.09992226347625255,-1.0767756839118898,-0.3246092630013823
1772786488512377900,1.6793779296875,-0.18647417324781418,-1.1515162329237907,-0.5443789721295237
1772786488522393900,1.689393798828125,-0.7751163577347994,-1.3179909166507422,-0.6985587493635713
1772786488532410000,1.69941015625,-1.4370365444004536,-1.4466184656076133,-0.8559406836397946
1772786488542426000,1.709426025390625,-2.145359001278877,-1.4662351663559674,-0.7955078422479331
1772786488552442000,1.719442138671875,-2.8638264200747012,-1.4097991395153104,-0.7790906681932509
1772786488562457000,1.72945703125,-3.5401217535734175,-1.2689337480150162,-0.7734390721723436
1772786488572473000,1.73947314453125,-3.6996541438817974,-1.083444494151324,-0.7987962162688375
1772786488582489000,1.749489013671875,-3.7053012098580598,-0.8946833790101111,-0.6907596199199557
1772786488592505000,1.759505126953125,-3.6221430341780185,-0.3507311443926766,-0.05485401834622025
1772786488602520800,1.769520751953125,-3.3765906490176913,-0.018112068339064716,0.7511421924293041
1772786488612537000,1.779537109375,-3.499095915701985,0.14075446020541713,1.1448629855796695
1772786488622553000,1.789552978515625,-3.660747782382369,0.5507683078404516,1.0919549867346883
1772786488632569000,1.799569091796875,-3.5663270389318464,1.0646569377034902,1.1169000428989528
1772786488642585000,1.809585205078125,-3.1623809121042488,1.7344541413545607,1.1662604322649537
1772786488652600000,1.81960009765625,-2.3860376429229975,2.4084518654353917,1.2271772577814757
1772786488662616000,1.829615966796875,-1.4961013123095035,2.5869880852907894,1.0734516540557146
1772786488672632000,1.839632080078125,-1.1646154415369032,1.7830458844356238,-0.020916677431017158
1772786488682648000,1.84964794921875,-0.7910767279326916,1.6341345491237937,-0.9383476025611162
1772786488692664000,1.8596640625,-0.26213585569262504,1.6700364681102335,-1.2745004422314465
1772786488702680000,1.86968017578125,0.33226503845155236,1.4092103798419235,-1.4245352286152542
1772786488712696000,1.879696044921875,0.9379577264606952,1.2659002255380154,-1.449800602775067
1772786488722712000,1.889712158203125,1.394058403417468,1.2892073052369057,-1.474976983477175
1772786488732728000,1.89972802734375,1.853769087564945,1.27093617387861,-1.3692607928998768
1772786488742743000,1.909742919921875,2.2039152351438998,1.2470963024772703,-1.07733930914402
1772786488752759000,1.919759033203125,2.298717086866498,1.5700073832586408,-0.6947704629965126
1772786488762775000,1.929775146484375,2.3872195461839434,1.8954402376025914,-0.2323845682904124
1772786488772791000,1.939791015625,2.443538230255246,1.976817813476175,0.15579145021438598
1772786488782806300,1.94980615234375,2.36105985353291,1.7275079754784701,0.2587358379907906
1772786488792822300,1.959822265625,2.300570605778694,1.4524933489903806,0.23392551412209867
1772786488802838300,1.96983837890625,2.2530735260665415,1.4400238896481692,0.3438553768716752
1772786488812854300,1.979854248046875,2.134642961475253,1.5222669963099063,0.5224954954929649
1772786488822870300,1.989870361328125,1.9894921477407217,1.6811936758100985,0.6240541279993951
1772786488832885200,1.99988525390625,1.9047066631197929,1.8005816872566938,0.8009849584847688
1772786488842901200,2.0099013671875,1.8196277485102414,1.8564849223949014,0.9540291558176278
1772786488852917200,2.019917236328125,1.649512004867196,1.8233315714642404,0.9728595284938811
1772786488862933500,2.02993359375,1.3016799794495104,1.676432306627184,0.8335305527806282
1772786488872949200,2.03994921875,1.0201514410227537,1.380488727748394,0.5976746551178396
1772786488882965200,2.04996533203125,0.9244166923642158,1.0027220211856067,0.42767523133084173
1772786488892981200,2.059981201171875,0.8943459637492894,0.6150375855900347,0.3032718759402633
1772786488902997200,2.069997314453125,0.990959833329916,-0.11771200452577323,0.019763854134082794
1772786488913013200,2.08001318359375,0.9481675703078508,-0.8072933379139751,-0.23906638414189219
1772786488923029200,2.090029296875,0.7486024448186158,-1.21292771008946,-0.4220347412258386
1772786488933044200,2.100044189453125,0.5695142901688813,-1.3922110219851136,-0.5293171582065522
1772786488943060500,2.110060546875,0.5284218168020248,-1.37257444749251,-0.4645527173511684
1772786488953076500,2.120076416015625,0.7291255909323692,-1.3138831890709697,-0.28604148580655453
1772786488963092200,2.13009228515625,0.8766729444146156,-1.214531711219996,-0.13376220843158662
1772786488973108200,2.140108154296875,0.8813631480574607,-1.0931688925690948,-0.025681115353852507
1772786488983124200,2.150124267578125,0.8151748118788004,-1.003991310469061,0.13529343658685683
1772786488993140200,2.16014013671875,0.7559452087968588,-0.9850849499471485,0.31547362425699826
1772786489003156200,2.17015625,0.617973492911458,-0.9936453460868447,0.3054864832498133
1772786489013172500,2.18017236328125,0.4111602959901094,-1.0467137231253087,0.22433993965312837
1772786489023187500,2.1901875,0.2319254263460636,-1.041233465083316,0.15657573245987294
1772786489033203500,2.200203369140625,0.009454057043790817,-0.9794096077244728,0.1536561917513609
1772786489043219200,2.21021923828125,-0.2910720273196697,-0.7215235914960503,0.38368528295680876
1772786489053235200,2.220235107421875,-0.657101388207078,-0.6410296665892005,0.5773287633121014
1772786489063251200,2.230251220703125,-1.1987503508508204,-0.6240707138080149,0.4500087898224592
1772786489073267200,2.24026708984375,-1.4123200362950563,-0.4666193675573915,0.19275515321344136
1772786489083283200,2.250283203125,-1.1402876404881477,-0.35539902660585937,0.1672593312986195
1772786489093299500,2.260299560546875,-0.7522071913123131,-0.46893911574184893,0.28062399080246686
1772786489103315500,2.2703154296875,-0.4488981982320547,-0.703604707641527,0.2944441341012716
1772786489113330400,2.280330322265625,-0.433431164509058,-1.0308508219525216,0.2584118667334318
1772786489123346400,2.290346435546875,-0.5332224950820207,-1.493933028359711,0.08788052802681923
1772786489133362200,2.300362060546875,-0.6568488747507334,-1.54398242290318,0.002987929769605398
1772786489143378200,2.310378173828125,-0.9899930341243743,-1.3357603820972144,-0.12373159360885619
1772786489153394200,2.320394287109375,-1.1254688415408134,-1.1144938585400581,-0.2688264393724501
1772786489163410200,2.33041015625,-1.4058400266259907,-0.8191215036779642,-0.32574696179442103
1772786489173426400,2.340426513671875,-1.6808593292891978,-0.47595622796230014,-0.46246984666250646
1772786489183442400,2.3504423828125,-1.6951029586970805,-0.2127338922072202,-0.5962416997052729
1772786489193458400,2.36045849609375,-1.5254484028249977,-0.016323358291387556,-0.8033350287422537
1772786489203474200,2.37047412109375,-1.474020413404703,-0.03132741414513439,-0.9745950470495969
1772786489213489400,2.380489501953125,-1.478880712917447,-0.2784404727509245,-1.0264672000408173
1772786489223505200,2.390505126953125,-1.449066589412093,-0.5642907468343153,-1.0788207068081945
1772786489233521200,2.400521240234375,-1.31391519164443,-0.03875328982956707,-0.8022516174197196
1772786489243537200,2.410537109375,-1.2935574632704256,1.5624425009623168,0.18805851982980964
1772786489253553400,2.420553466796875,-1.1541589294523,1.5593590018637478,0.6410106696277856
1772786489263569400,2.4305693359375,-1.1077163272291422,1.4322227143779396,0.8275885955110192
1772786489273585400,2.44058544921875,-1.0423165110796688,1.506272723842412,0.8968152764722704
1772786489283601400,2.450601318359375,-1.0464970116347074,1.5225499049045144,0.7922231214888393
1772786489293617200,2.4606171875,-0.9953969389945269,1.6726877132713793,0.5206557128451764
1772786489303632400,2.47063232421875,-0.7443588158994913,1.849984162198752,0.28524507473185656
1772786489313648000,2.480648193359375,-0.37699849866926666,1.8605583093136548,0.09989625225216149
1772786489323664100,2.4906640625,0.07963584677278995,1.855477352787554,-0.0698669516261667
1772786489333680400,2.500680419921875,0.5568120449841022,1.9160256372526288,-0.256124924840033
1772786489343696400,2.5106962890625,1.0119231263816355,1.9330588973790406,-0.3502271769259125
1772786489353712400,2.52071240234375,1.5768991885989903,1.9513627619631588,-0.42498555385544895
1772786489363728400,2.530728271484375,1.831562516453862,1.952126001420617,-0.45146329947970804
1772786489373744000,2.540744140625,1.4906664277791977,1.810829232765734,-0.48083757026307283
1772786489383760100,2.550760009765625,0.8663327521860599,0.864112664983794,-1.1441619246382266
1772786489393775000,2.560775146484375,0.39165129339993,-0.27691300745531916,-2.097545695224404
1772786489403791000,2.570791015625,-0.17905600594580173,-0.5415867841277271,-2.3850287581413983
1772786489413807400,2.580807373046875,-0.5815940195411443,-0.648016383671388,-2.3020205123260618
1772786489423823400,2.5908232421875,-0.8671738791853189,-0.6678943657044321,-2.066525703060627
1772786489433839400,2.60083935546875,-0.9884954890429973,-0.6219339209750294,-1.8205246973499654
1772786489443855400,2.61085546875,-1.034526003333926,-0.5247546725966036,-1.4829500081829725
1772786489453871400,2.620871337890625,-0.979797803324461,-0.3664428005265072,-1.051249759119749
1772786489463887000,2.63088720703125,-0.8658329859703778,-0.1973958186261356,-0.585028085643053
1772786489473903000,2.640903076171875,-0.6361550462901592,0.047755146126449106,-0.22119944967031477
1772786489483919400,2.65091943359375,-0.3421966498792171,0.19799915481414646,0.026127105555683372
1772786489493934300,2.660934326171875,-0.13719313272833825,0.19752375585474072,0.11199234823733567
1772786489503950300,2.670950439453125,0.06344108329713344,0.1291228581931442,0.041466421245783563
1772786489513966300,2.68096630859375,0.3482365145653486,0.03723309452496469,-0.12252937821224331
1772786489523982300,2.690982421875,0.5927689090281725,-0.1047887004688382,-0.32905133710205553
1772786489533998300,2.700998291015625,0.676765873619914,-0.19523060341626405,-0.6077734398059547
1772786489544014300,2.711014404296875,0.770392836344242,-0.26772322737090287,-0.8633286019340157
1772786489554030000,2.721030029296875,0.9073913232833146,-0.39236601754054423,-1.0527839829497039
1772786489564046300,2.73104638671875,0.9794114343553781,-0.5911529251988977,-1.3371030288778245
1772786489574062300,2.741062255859375,1.2914929319560526,-0.6713650374896823,-1.6507193348303437
1772786489584077300,2.751077392578125,1.3771645517617463,-1.1304777557440102,-1.6767817045867441
1772786489594093300,2.76109326171875,1.4851356816589831,-1.2329838982336223,-1.8572519612446425
1772786489604109300,2.771109375,1.4192051196336746,-1.1879824347294867,-1.9990033417992292
1772786489614125300,2.781125244140625,1.3859253658443689,-1.3162092939309775,-1.9957685976617037
1772786489624141300,2.791141357421875,1.4025526755183935,-1.3937747641704976,-1.9537883816748856
1772786489634157000,2.801156982421875,1.3713152412116527,-1.3887372083947063,-1.9191789867170155
1772786489644173300,2.81117333984375,1.3824942223519086,-1.367018566931039,-1.8526603956706822
1772786489654189300,2.821189208984375,1.3703572098344563,-1.3946264125637708,-1.7865297810286282
1772786489664205300,2.831205322265625,1.422049987670779,-1.2744342451274395,-1.5831448049902914
1772786489674220300,2.84122021484375,1.4185463634639977,-0.7215620238102972,-1.1550802820809185
1772786489684236300,2.851236328125,1.3121645485848188,-0.4919511945495382,-0.7835981356803328
1772786489694252300,2.861252197265625,1.0509113209456205,-0.4556950187653303,-0.4553827379457652
1772786489704268300,2.871268310546875,0.5763146178334951,-0.3573628374921158,-0.23644757994562385
1772786489714284300,2.8812841796875,0.09486264199912547,-0.3003916077962145,-0.1066957031339407
1772786489724300300,2.89130029296875,-0.20730711791813372,-0.347130745280534,-0.06643069356717168
1772786489734316300,2.90131640625,-0.33207097718417644,-0.5415612112950533,-0.12373546606637537
1772786489744332300,2.911332275390625,-0.3588543546915054,-0.8308724394872784,-0.3812970726460218
1772786489754348300,2.921348388671875,-0.32374387834370133,-0.8032126444716006,-0.5824510016966611
1772786489764364300,2.9313642578125,-0.4976970081925392,-0.4820803368657827,-0.5355157205857336
1772786489774379300,2.941379150390625,-1.0502975729614497,-0.3208512256421149,-0.6151959910221397
1772786489784395800,2.951395751953125,-1.6395879922240972,-0.12027577233286574,-0.7685057074233889
1772786489794411800,2.961411865234375,-2.1326853976666924,-0.024015794223826378,-0.8234837174754589
1772786489804427500,2.971427490234375,-2.6786551461189982,-0.16570033835358916,-0.7727016247432679
1772786489814443500,2.981443603515625,-3.0251299117088317,-0.1381397841949947,-0.709336310096085
1772786489824459500,2.99145947265625,-2.9234757098734376,0.27471356118228285,-0.20410547233261167
1772786489834475500,3.0014755859375,-2.688829334130883,0.6042696329360827,0.568960309547931
1772786489844491500,3.011491455078125,-2.8471470879524943,0.7024623326733708,0.9360800960205495
1772786489854507800,3.0215078125,-3.433224390387535,0.8038069571029395,0.8372118716418743
1772786489864522800,3.031522705078125,-3.6957559673994775,1.0593160150669514,0.5657799259461462
1772786489874538800,3.041538818359375,-3.2785955542117353,1.1725818903714418,0.06450578991919756
1772786489884554800,3.0515546875,-2.5278052439600227,0.7542168506342917,-0.7101501837622374
1772786489894570500,3.061570556640625,-1.867474956834316,0.7708394841331988,-1.3701634408280252
1772786489904586500,3.07158642578125,-1.179592061394453,0.7080458318941295,-1.7611366888359188
1772786489914602500,3.0816025390625,-0.45953123592734335,0.7971008105278015,-1.795818126116693
1772786489924618500,3.091618408203125,0.05015665431022644,0.7235102352686226,-1.6854601010829209
1772786489934634800,3.101634765625,0.2958575080305338,0.3872861569929868,-1.730067012311518
1772786489944650800,3.111650634765625,0.8497270698219537,0.34469383698981254,-1.6423171249270438
1772786489954666500,3.12166650390625,1.5343611925989389,0.5534660955570638,-1.2864220584325492
1772786489964681700,3.131681640625,2.113938027098775,1.1007821440517902,-0.7639872070856392
1772786489974697500,3.141697509765625,2.3099656261116266,1.7992254503421485,-0.032910482085496184
1772786489984713500,3.15171337890625,2.278255313596129,2.0078312297686933,0.5399653934709727
1772786489994729500,3.1617294921875,2.203869642436504,1.8787591519147158,0.75632755917795
1772786490004745500,3.171745361328125,2.205485260939598,1.7593588655084371,0.8524819214880466
1772786490014761700,3.18176171875,2.1702333302944896,1.665754406876862,1.0637954255033284
1772786490024777700,3.19177783203125,2.125405762052536,1.641907228951901,1.2640049133107065
1772786490034793700,3.201793701171875,2.0283535010546445,1.6757368717089294,1.4483008657366037
1772786490044809500,3.2118095703125,1.9492770417302845,1.6620274953082204,1.588314462713152
1772786490054824700,3.22182470703125,1.7722265303879976,1.6346023127660154,1.6339853499114512
1772786490064840400,3.23184033203125,1.5786264507830141,1.6740788753688334,1.5495473635539412
1772786490074856400,3.2418564453125,1.500984992697835,1.6693334344074129,1.4797563267081975
1772786490084872400,3.25187255859375,1.5045137513458728,1.620638815473765,1.4955466010361909
1772786490094888700,3.261888671875,1.4741946009278297,1.4513659523956477,1.451258254237473
1772786490104904700,3.27190478515625,1.2691063281029462,1.0651248474761843,1.3225254913404583
1772786490114920700,3.281920654296875,1.0417629688501358,0.34638697770852594,1.1017921978771685
1772786490124936700,3.291936767578125,0.6492471675753593,-0.10483584581250324,0.8515805887341499
1772786490134952400,3.301952392578125,-0.020685645154118536,-0.269927459416911,0.7025912197500467
1772786490144967700,3.3119677734375,-0.7307108142971992,-0.38428050890360027,0.4347950367407873
1772786490154983400,3.3219833984375,-1.1441945847988129,-0.5115526977287606,0.06335241863299161
1772786490164999400,3.33199951171875,-1.2466349685758351,-0.680902900359407,-0.20414737524557858
1772786490175015700,3.342015625,-1.0120067130118608,-0.8898042286664247,-0.31219383540134876
1772786490185031700,3.35203173828125,-0.49780397569835183,-1.043717098592594,-0.38191151474993673
1772786490195047700,3.362047607421875,-0.10101239680051803,-1.1826022029958665,-0.43982587051484734
1772786490205063700,3.372063720703125,0.11001929459869861,-1.2811556623369456,-0.4311130602924153
1772786490215079400,3.382079345703125,0.287960617300868,-1.331305740775913,-0.4056568762682378
1772786490225095400,3.392095458984375,0.48381285974681376,-1.3818671764947472,-0.4572952570362016
1772786490235111400,3.402111328125,0.7244628598183394,-1.2019489276964217,-0.5347735604489222
1772786490245126400,3.41212646484375,1.034945690050721,-1.1519995594613253,-0.2743867038480937
1772786490255142700,3.422142578125,1.1720979062467813,-1.0908220371820032,-0.22095745760798452
1772786490265158700,3.43215869140625,1.2818313696414232,-0.9282748290970921,-0.3107876583978534
1772786490275174700,3.442174560546875,1.3068980063587425,-0.830591211393103,-0.18873090266603976
1772786490285190700,3.452190673828125,1.3465543094426393,-0.6690620212443172,-0.025642683039605617
1772786490295206700,3.46220654296875,1.2758271607905625,-0.4683809704024344,-0.012474939234927295
1772786490305222400,3.472222412109375,1.1496616180330514,-0.38086956794895227,-0.01736092117819935
1772786490315238400,3.48223828125,1.0135913518548012,-0.47890473903696984,0.0878938258998096
1772786490325253400,3.49225341796875,0.8022311591535806,-0.5998490400148555,0.12066855277642607
1772786490335269600,3.50226953125,0.33810324308574197,-0.7075964806914329,0.04314531424343586
1772786490345285600,3.51228564453125,-0.2848667429387569,-0.770607355877757,-0.08200805579684674
1772786490355301600,3.522301513671875,-0.785190007981658,-0.9300163390021771,-0.2763800696223974
1772786490365317600,3.532317626953125,-1.0684990000844001,-1.2397791113317012,-0.5088343421481549
1772786490375333600,3.542333740234375,-0.9820856220006943,-1.6101162524156272,-0.7030856522034853
1772786490385349600,3.552349609375,-0.9294318901777266,-1.762135636745393,-0.7860220748916268
1772786490395365400,3.562365478515625,-1.029307976424694,-1.7429871380306778,-0.803694875030592
1772786490405381600,3.572381591796875,-1.3263900578141212,-1.6154910773217677,-0.8899681139912455
1772786490415397600,3.582397705078125,-1.5676111357718705,-1.37891534095183,-0.9914183176871388
1772786490425412600,3.59241259765625,-1.7514894473075866,-1.1115095820322631,-0.9733863288469612
1772786490435428600,3.6024287109375,-1.8357190516114235,-0.8186382502056658,-0.9542780160121619
1772786490445444600,3.612444580078125,-1.8558073153942822,-0.469542524995096,-0.9822657278079538
1772786490455460600,3.622460693359375,-1.998324273493886,-0.023278693854622542,-0.9745322840116918
1772786490465476600,3.6324765625,-2.383430675294995,0.5091956497412174,-0.8273243916168809
1772786490475492400,3.642492431640625,-2.612310158073902,1.003254447561875,-0.7196444266859442
1772786490485508600,3.652508544921875,-2.4868203226208685,1.4049926160164177,-0.49083157940246164
1772786490495524600,3.662524658203125,-2.2331290546685456,1.6401126006200908,-0.15082717887051403
1772786490505540600,3.67254052734375,-1.9153829554349182,2.0748850967355073,0.29675036521703
1772786490515555600,3.6825556640625,-1.616917310732603,2.7311551486849783,0.8272027379985898
1772786490525571600,3.692571533203125,-1.190588087183237,2.8974086639419196,1.202897533658147
1772786490535587600,3.702587646484375,-0.7346686120122671,2.839958345492184,1.3999863321617245
1772786490545603600,3.712603515625,-0.16216332333385944,2.5621646096795794,1.5007430006355047
1772786490555619600,3.72261962890625,0.2282873621046543,2.241869118224084,1.60737864414528
1772786490565635600,3.732635498046875,0.31607495115101336,2.013541570239514,1.6650673013955353
1772786490575651600,3.742651611328125,0.3364373557001352,1.7652575681582092,1.5910726753801105
1772786490585667600,3.75266748046875,0.35671968075037,2.005359725088626,1.4849395745649934
1772786490595683600,3.76268359375,0.5262661000728607,2.4828093334138392,1.3063354040399193
1772786490605698600,3.772698486328125,0.850077198433876,2.7708398010805246,0.9505376604400575
1772786490615714600,3.782714599609375,1.306620942983031,2.8741736265659332,0.5055874691814184
1772786490625730600,3.79273046875,1.9286445880681276,2.764447761955857,-0.1398938430543989
1772786490635746600,3.80274658203125,2.4745488700687885,2.137654710511863,-1.1252785796657203
1772786490645762600,3.812762451171875,2.7980899193167685,1.4046072699606418,-2.0034630976870655
1772786490655778600,3.822778564453125,2.6306249824434516,0.7159205107919872,-2.638420458625257
1772786490665794600,3.832794677734375,1.8057985451221465,0.28597002800554033,-3.014172172103822
1772786490675810600,3.842810546875,0.8334569030225276,0.1025855096024461,-3.098420188847184
1772786490685826600,3.85282666015625,-0.06147825879156589,-0.19418514948394147,-2.9582138457775113
1772786490695842600,3.862842529296875,-0.9888023630350827,-0.3988249478889629,-2.6084657576054333
1772786490705857500,3.872857421875,-1.8401205014407633,-0.5334271508086472,-2.166027110776305
1772786490715873500,3.88287353515625,-2.401297755897045,-0.5393860592130572,-1.70819142672047
1772786490725889800,3.892889892578125,-2.53195067320168,-0.39706243172846734,-1.2788643365293741
1772786490735905500,3.902905517578125,-2.588128487497568,-0.2976373954509385,-0.9093416536334902
1772786490745921500,3.912921630859375,-2.3471330349892376,-0.17829875783771276,-0.6071044545032084
1772786490755937500,3.9229375,-1.803472148001194,0.002320880695618689,-0.35063480787873264
1772786490765953500,3.93295361328125,-1.0842769994527102,0.06398739206828176,-0.332550139003247
1772786490775969500,3.942969482421875,-0.4064285912930965,0.04452741625159978,-0.4732933654285967
1772786490785985500,3.952985595703125,0.20753157432377337,0.027332270961208268,-0.6573936491519212
1772786490796000500,3.96300048828125,0.8057605023235083,0.0879808831287548,-0.7836133332494646
1772786490806016500,3.9730166015625,1.366892748594284,-0.13524533226196653,-0.9114287621058523
1772786490816032800,3.98303271484375,1.6270786392629146,-0.37496987891849126,-1.0218359600435942
1772786490826048500,3.993048583984375,1.6093927604466676,-0.4696694027777761,-1.1037436972711234
1772786490836064500,4.003064453125,1.5262123729348183,-0.5236902582354843,-1.0724745526518673
1772786490846080500,4.01308056640625,1.401412273311615,-0.5091024184998124,-0.9631663289319723
1772786490856096500,4.023096435546875,1.2493529953628777,-0.43790546037890016,-0.8420421413425355
1772786490866112500,4.033112548828125,1.0630027407556772,-0.33286168917044995,-0.8425845776561647
1772786490876128500,4.04312841796875,0.9308867651611566,-0.22638291672281918,-0.8176032811347395
1772786490886143500,4.0531435546875,1.0026806662619114,0.08104220643937587,-0.7822999125633389
1772786490896159700,4.06315966796875,1.0516080710381268,-0.15409312186390162,-0.7707086973603814
1772786490906175500,4.073175537109375,1.370111710640788,-0.34141616702601313,-0.9494766070798039
1772786490916191500,4.08319140625,1.6304332103878258,-0.5124483679268509,-1.1837694932095706
1772786490926207500,4.09320751953125,1.7463433165907858,-0.6870971518896519,-1.2966243034951388
1772786490936223500,4.103223388671875,1.6451257526069878,-0.8555963271815329,-1.4327705575190484
1772786490946239500,4.113239501953125,1.414181738513708,-0.9654070935960859,-1.708201801984012
1772786490956255500,4.12325537109375,1.1702630920350552,-1.064959427781403,-1.9597750548690556
1772786490966271700,4.133271728515625,0.9659171620100736,-1.1810232632413507,-2.1289856663659212
1772786490976286700,4.14328662109375,0.8051029151976108,-1.2036390727404505,-2.272609270533174
1772786490986302700,4.153302734375,0.7043412782877683,-1.1989309681147335,-2.3051009426847098
1772786490996318500,4.163318359375,0.5264636684715748,-1.1934842470161615,-2.2554547221146524
1772786491006334500,4.17333447265625,0.29299451981484886,-1.1284119092553853,-2.115147256758064
1772786491016350500,4.1833505859375,0.1088520043849945,-1.0095955602169036,-1.8410481376796959
1772786491026366500,4.193366455078125,-0.14685995573997496,-0.8659805046822875,-1.5404739763908086
1772786491036382500,4.203382568359375,-0.37494682683646674,-0.6256416163865477,-1.2545916266687214
1772786491046398700,4.213398681640625,-0.7040344042956829,-0.4613779232399538,-1.0963969877701252
1772786491056414700,4.223414794921875,-1.055632504248619,-0.2746573740156367,-0.9947970003399997
1772786491066429700,4.2334296875,-1.3427192613244057,-0.027287929495982823,-0.870044904576987
1772786491076445700,4.24344580078125,-1.4879180058538912,0.2231208461869508,-0.5814767863696441
1772786491086461400,4.25346142578125,-1.6426035406529902,0.3347933513527736,-0.27766035522390153
1772786491096477400,4.2634775390625,-1.8720634536683558,0.35091095793899146,0.14763236488457768
1772786491106493400,4.273493408203125,-2.111573051533103,0.682097151645273,0.8031322727117687
1772786491116509400,4.283509521484375,-2.5461826121717688,1.5662689273826778,1.7215116576731204
1772786491126525700,4.293525634765625,-2.8715438625842333,1.984882900379598,2.1289503027915955
1772786491136541700,4.303541748046875,-3.0523931816875933,2.1416833815060556,1.8502188477374613
1772786491146557700,4.3135576171875,-2.9986785426348446,1.8586271951206028,0.8391339988108724
1772786491156573400,4.323573486328125,-2.3502222331762312,1.354494162531197,-0.6351308178089559
1772786491166588700,4.333588623046875,-1.2280337284803389,0.9899158772349357,-2.05581433943212
1772786491176604400,4.3436044921875,-0.24790976194143294,0.8398176702260971,-3.208597304356098
1772786491186620400,4.353620361328125,0.7288339145094156,0.6923132060375065,-4.033078873762488
1772786491196636400,4.363636474609375,1.6030144575864076,0.6714850836727768,-4.305854196891189
1772786491206652700,4.373652587890625,2.067365076494217,0.22958916541822252,-4.217913170848787
1772786491216668700,4.383668701171875,1.9040788866102694,-0.07774886398240924,-3.607316344185173
1772786491226684700,4.3936845703125,1.1403484307646752,1.495988207323849,-2.084390445575118
1772786491236700400,4.403700439453125,0.5348755229860543,2.2987620950520036,-0.6618729865230619
1772786491246716400,4.41371630859375,0.18040625151097772,2.4168980606108903,0.17732998587079346
1772786491256731400,4.4237314453125,-0.07793488807380199,2.361131457464397,0.6126853964406996
1772786491266747400,4.433747314453125,-0.1954746413052082,2.2009609153829515,0.9063660718888044
1772786491276763400,4.443763427734375,-0.27324644777178764,2.1953236401483416,1.1994869214970618
1772786491286779600,4.453779541015625,-0.32252456568181515,2.1351899278335273,1.5739219263538717
1772786491296795600,4.463795654296875,-0.01968377463519573,2.1949977691948415,1.9565641299985348
1772786491306811600,4.473811767578125,0.49581601675152775,2.1365867890194057,2.2108502951040863
1772786491316827600,4.48382763671875,0.8903180234074592,2.0204126250527796,2.3024936827957627
1772786491326843400,4.493843505859375,1.1627321120083332,1.9971200122706592,2.304882916019857
1772786491336859400,4.503859375,1.1274264053493737,2.0970104193039236,2.182590415303409
1772786491346874400,4.513874267578125,0.9335644599378109,2.273323117890954,1.9734468757383523
1772786491356890400,4.523890380859375,0.7873679365426302,2.3640151962071654,1.6653116315454244
1772786491366906600,4.53390673828125,0.7730594252049923,2.410852058444917,1.302977033522725
1772786491376922600,4.543922607421875,0.7087503269016743,2.1768198690779506,0.7086703204680234
1772786491386938600,4.553938720703125,0.778009741088748,1.6079937073037027,0.0016940905667841434
1772786491396954600,4.56395458984375,0.7409937233805656,1.299103406959772,-0.4504826909445226
1772786491406970600,4.573970703125,0.4536094446629286,1.0194659429766237,-0.9379851259242743
1772786491416986400,4.583986328125,0.11857552601993084,0.8989996347740292,-1.3321258249871433
1772786491427002400,4.59400244140625,-0.07913315794765949,0.8759243910696357,-1.4948187251530587
1772786491437018600,4.6040185546875,-0.18775602975189684,0.7850501611195504,-1.3751330459341407
1772786491447033600,4.61403369140625,-0.18797405641674994,0.6820660989198833,-1.0829810413580387
1772786491457049600,4.624049560546875,-0.20577625508904457,0.5131764630056918,-0.7590615141864866
1772786491467065600,4.634065673828125,-0.2995820815116167,0.3323136998988688,-0.47316338237337763
1772786491477081600,4.64408154296875,-0.13253800039887428,0.28716672697681933,-0.18483290884681045
1772786491487097600,4.65409765625,0.15256021320819854,0.20374509632131083,0.16502631154954434
1772786491497113300,4.66411328125,0.019894202515482903,0.16664667929299173,0.4007747302498668
1772786491507129300,4.67412939453125,-0.31264205409288404,0.1521041491369251,0.4741721210245043
1772786491517145600,4.6841455078125,-0.5157832845032215,0.11308604349186643,0.49274756909161804
1772786491527161600,4.69416162109375,-0.628422990733385,-0.3227177136337384,0.2945097466833889
1772786491537176600,4.704176513671875,-0.4980149881005287,-0.7024553184106945,-0.03188976073563099
1772786491547192600,4.714192626953125,-0.2520154436945915,-0.587282550038956,-0.231660784060508
1772786491557208600,4.72420849609375,-0.010560556980967521,-0.5133312882412224,-0.39457010345607996
1772786491567224600,4.734224609375,0.16208090574741363,-0.46144770054053513,-0.6096477092452347
1772786491577240600,4.744240478515625,0.36075814248621463,-0.4387126485759392,-0.7888429775312542
1772786491587256300,4.75425634765625,0.4758680382221937,-0.4255833005528897,-0.6718193571284413
1772786491597272600,4.7642724609375,0.4503086495518684,-0.3339847749162465,-0.4532479178741574
1772786491607288600,4.77428857421875,0.34545126776099205,-0.2781044091969728,-0.23078626624830065
1772786491617304600,4.7843046875,0.1718903521001339,-0.33132315449155864,-0.0028329584036022423
1772786491627319600,4.794319580078125,0.11288052924871445,-0.44841070697605606,0.08868015397191047
1772786491637335600,4.80433544921875,0.18255027780234812,-0.6376842286188155,0.11521489048041403
1772786491647351600,4.8143515625,0.21141864489018916,-0.754438749756664,0.14453151279240845
1772786491657367600,4.824367431640625,0.22251170131266115,-0.6697200467616319,0.18460932922400533
1772786491667383600,4.834383544921875,0.2938572741240263,-0.4003337815493345,0.2528936147686094
1772786491677399600,4.844399658203125,0.42605975895822046,-0.2793263522073626,0.28562771737389264
1772786491687415600,4.85441552734375,0.6424269661664962,-0.27912016211077567,0.2463345485139638
1772786491697431600,4.864431640625,0.8460130177348851,-0.24384963636305182,0.1960059717029333
1772786491707447600,4.874447509765625,0.7815992900133133,-0.2788947193244472,0.15437953758984804
1772786491717462500,4.884462646484375,0.4710545004606247,-0.32114136769510804,0.01715527907088399
1772786491727478500,4.894478515625,0.18498831860423087,-0.37954273979198183,-0.15805771464593707
1772786491737494500,4.90449462890625,0.013008534654974936,-0.48902299561053514,-0.3922791429746896
1772786491747510500,4.914510498046875,-0.10087737224400042,-0.6636264791268855,-0.6840221283584833
1772786491757526500,4.924526611328125,-0.13011223455667495,-0.7569542397089302,-0.9954944080196321
1772786491767542500,4.93454248046875,-0.12934183470606803,-0.802966706886515,-1.22433414331004
1772786491777558500,4.94455859375,-0.01094575690627098,-0.8779205333229154,-1.3376602243691682
1772786491787574500,4.954574462890625,0.05947860940694809,-0.5252523199204355,-1.1709337578382342
1772786491797590500,4.964590576171875,-0.013696516919136047,-0.3299753931444138,-0.9630514703806489
1772786491807605500,4.97460546875,-0.10606968019008636,-0.22606248912941662,-0.862405788000673
1772786491817621500,4.98462158203125,-0.16239537852406502,-0.11634276199918239,-0.7404363086935132
1772786491827637500,4.994637451171875,-0.13893500795960426,-0.19731175707187504,-0.6517305088236928
1772786491837653500,5.004653564453125,-0.10283610509634017,-0.34795758802611376,-0.6587159107316285
1772786491847669200,5.014669189453125,0.036840661141276355,-0.5070925399821251,-0.7197454759076237
1772786491857685200,5.024685302734375,0.1998661542624235,-0.6873341024506837,-0.7985828657791018
1772786491867701500,5.034701416015625,0.1604658717662096,-0.9125997786466031,-0.9445114589530974
1772786491877717500,5.044717529296875,-0.037277298992872236,-1.0655192536212503,-1.1669992679335177
1772786491887733500,5.0547333984375,-0.24570377632975576,-1.057559088397026,-1.351338328848779
1772786491897748500,5.06474853515625,-0.2755558937579393,-0.9179602827664464,-1.3472902225017547
1772786491907764500,5.074764404296875,-0.3858914146989584,-0.7907973264694214,-1.1091284590493886
1772786491917780500,5.084780517578125,-0.7278998485296965,-0.5883024311386048,-0.6721600603248924
1772786491927796500,5.09479638671875,-1.4183546402841805,-0.45459798077624286,-0.17072350027784705
1772786491937812200,5.104812255859375,-2.3604396758079527,-0.3365256185054779,0.18526625876277683
1772786491947828500,5.114828369140625,-3.216450940465927,0.019374270294606685,0.5065107945714146
1772786491957844500,5.124844482421875,-3.5265386339008806,0.7871838852126151,1.0462832958187906
1772786491967860500,5.134860595703125,-3.2732845883220434,1.601267175527662,1.6093047899022697
1772786491977876500,5.14487646484375,-2.6780636099666357,2.050849702762067,1.8859174992367624
1772786491987891500,5.154891357421875,-1.7770266241461037,2.2351864255897698,1.8893501040339469
1772786491997907500,5.164907470703125,-0.861453747972846,2.1707414259471,1.7153601493060588
1772786492007923500,5.17492333984375,0.009926935252547264,2.0967736879386005,1.5257292655929922
1772786492017939500,5.184939453125,0.7586386856645345,2.0467918056733905,1.3812445145517587
1772786492027955500,5.19495556640625,1.3864970282524822,2.009368522338569,1.3260241471111773
1772786492037971500,5.204971435546875,1.889226769915223,1.9337533093839883,1.2873530556723474
1772786492047987500,5.214987548828125,2.1598744333654643,1.78678331739828,1.134419259911403
1772786492058003500,5.22500341796875,2.251601115426421,1.7152460214070975,0.8984653817668556
1772786492068019500,5.23501953125,2.246192534381151,1.776807282306999,0.5780787779618054
1772786492078034400,5.245034423828125,2.2218927903831003,1.8034397070363164,0.12138466515652835
1772786492088050400,5.255050537109375,2.302898171943426,1.531498496644199,-0.45574886784441765
1772786492098066400,5.26506640625,2.392681903243065,1.1510868285305798,-1.050024235912785
1772786492108082200,5.275082275390625,2.3418168084025384,0.7290453653030097,-1.5830582957506178
1772786492118098400,5.285098388671875,1.9017583347082136,0.2100482150535099,-2.024065886863321
1772786492128114400,5.295114501953125,1.110631337893009,-0.2204463662806898,-2.4038253746785223
1772786492138130400,5.30513037109375,0.3479915998935699,-0.4990837133105844,-2.688343011918664
1772786492148146400,5.315146484375,-0.3802005095809698,-0.7026306749776006,-2.7832649828895923
1772786492158162400,5.325162353515625,-1.0516776291429997,-0.8989024580098688,-2.630169639891386
1772786492168177400,5.335177490234375,-1.4758827001452446,-1.0618798742055893,-2.3887360882267354
1772786492178193400,5.345193359375,-1.6087871957689523,-0.9181120392620563,-1.8165750829413532
1772786492188209400,5.35520947265625,-1.6078601440519094,-0.5635752555087209,-1.1492533294931053
1772786492198225400,5.365225341796875,-1.6045985119074582,-0.2081088627550751,-0.6709246733110398
1772786492208241400,5.375241455078125,-1.2993378002375364,0.08921272647865117,-0.20443733463548122
1772786492218257400,5.38525732421875,-0.7787678659796714,0.38732721965573724,0.3189695766139775
1772786492228273400,5.3952734375,-0.36526188364624973,0.6344073258399963,0.7799182050585747
1772786492238289400,5.405289306640625,-0.03380348540246486,0.7466234728958457,1.0718564207535237
1772786492248305400,5.415305419921875,0.18030396018028258,0.5848313940271734,1.1449821549799293
1772786492258320400,5.4253203125,0.2649193489313125,0.10792597558125853,0.9771955849368125
1772786492268336400,5.43533642578125,0.1883370445102453,-0.4080782581962645,0.6335240401994436
1772786492278352400,5.445352294921875,0.08122223918139934,-0.8146488883085549,0.29025347747839986
1772786492288368400,5.455368408203125,-0.13293489076197146,-1.0403051712572573,-0.04277129329927266
1772786492298384400,5.46538427734375,-0.4388666335612535,-1.1600718798231333,-0.3116818307586014
1772786492308400400,5.475400390625,-0.6724766519933939,-1.260319648926705,-0.6278244403183459
1772786492318416400,5.48541650390625,-0.6816220814794302,-1.4560655083887277,-1.0159136573225258
1772786492328432400,5.495432373046875,-0.37767128336429595,-1.7008312732160091,-1.3197063422664999
1772786492338448600,5.50544873046875,0.016163199293613432,-1.912505938693881,-1.6244398151919244
1772786492348463400,5.51546337890625,0.32879882364571095,-2.058696032348275,-1.8544079699903726
1772786492358479600,5.525479736328125,0.458718750500679,-2.1264283830985424,-2.0022700885102154
1772786492368495400,5.535495361328125,0.3343102805435657,-1.9776259149886666,-1.9698225477613507
1772786492378511400,5.545511474609375,0.09749591311216353,-1.7526767573960125,-1.807435206413269
1772786492388527400,5.55552734375,0.06964169150292873,-1.7538323571719228,-1.7429682871997356
1772786492398543400,5.56554345703125,0.28173896630704404,-1.636350617738068,-1.662389606618881
1772786492408559400,5.575559326171875,0.5159422744572162,-1.4921598812073469,-1.572033920650184
1772786492418575600,5.58557568359375,0.7579501188784837,-1.3566316129513085,-1.4868572447545825
1772786492428591600,5.595591552734375,0.9259890562474727,-1.2655655867561697,-1.4701365577086805
1772786492438606600,5.605606689453125,1.2208920400321484,-1.1975452859099953,-1.3936045221701263
1772786492448622600,5.61562255859375,1.3671423394411801,-0.9186431504640727,-1.1144281728927046
1772786492458638300,5.625638427734375,1.3006822005838155,-0.7964107093717903,-0.9733093911532312
1772786492468654300,5.635654296875,1.173627600032091,-0.7181575491290539,-0.9959282693922519
1772786492478670300,5.64567041015625,1.016767643803358,-0.6673625969152898,-1.077609285191819
1772786492488686300,5.655686279296875,0.9188988057255745,-0.7188589753966778,-1.2778379160910844
1772786492498702600,5.66570263671875,0.7774965308696031,-0.8856920441072433,-1.5631816288918257
1772786492508718600,5.675718505859375,0.5336269842296838,-1.096972887961939,-1.877609689618647
1772786492518734300,5.685734375,0.2996422872662544,-1.279640289337933,-2.071280496372282
1772786492528749600,5.69574951171875,-0.13808335956633092,-1.313716600332409,-2.261795177182555
1772786492538765300,5.705765380859375,-0.3390682887256145,-1.1591288268193602,-2.279891974887252
1772786492548781300,5.71578125,-0.47032910879552364,-1.1705492155000568,-1.9845409550741313
1772786492558797300,5.72579736328125,-0.7852367697328329,-1.1030200591716914,-1.9101964927077293
1772786492568813300,5.735813232421875,-0.8585130183458328,-1.070886114416644,-1.8178592775329947
1772786492578829600,5.74582958984375,-0.8191127358496189,-1.1179331122737377,-1.5480334518596528
1772786492588845600,5.755845458984375,-0.9424334105700254,-1.122626823047921,-1.360702661782503
1772786492598861600,5.765861572265625,-1.2046890932500363,-1.1601613847374916,-1.3177511165454983
1772786492608877300,5.775877197265625,-1.760944088873267,-1.1532847039010374,-1.2430588636547326
1772786492618892500,5.785892578125,-2.191936043536663,-1.0614232164792716,-1.155785069349408
1772786492628908300,5.795908203125,-2.1663339847683907,-1.01925390766114,-0.94577731417045
1772786492638924300,5.80592431640625,-1.8549410539537667,-0.5168653075862676,-0.3412826037742197
1772786492648940300,5.815940185546875,-1.8760650905251501,0.758331081020087,1.0428704917006193
1772786492658956500,5.82595654296875,-1.9645529367953538,1.6407599586129187,2.5032553245931863
1772786492668972500,5.83597265625,-2.0026123260766266,1.9808919310472906,3.354781552791595
1772786492678988500,5.845988525390625,-2.9841771390736103,1.7012851544633507,3.0307568116798995
1772786492689004500,5.856004638671875,-4.159378272032738,1.7933657645285128,2.1292574690446258
1772786492699020300,5.866020263671875,-4.2887002329945565,1.0233810705937445,0.7581589393235743
1772786492709035500,5.876035400390625,-3.2915017975360152,-0.04148706217501312,-0.7941681911420077
1772786492719051300,5.88605126953125,-2.037194979158044,-0.5040795123038814,-1.9567494234375655
1772786492729067300,5.8960673828125,-0.9408312360703944,-0.6455893026549369,-2.613736683745682
1772786492739083500,5.90608349609375,0.08089490692317486,-0.4577385803569108,-2.4854464039191604
1772786492749099500,5.916099609375,1.1730740578025578,-0.018845551979076117,-1.7217787841767072
1772786492759115500,5.926115478515625,1.9199726213127373,0.5791306251022964,-0.7183413081981241
1772786492769131500,5.936131591796875,2.1674884155005216,1.1154507939387113,0.11745130776297301
1772786492779147300,5.946147216796875,2.144652314314246,1.170674741575867,0.5791966030105948
1772786492789164000,5.9561640625,2.216912079361081,1.2793163180805742,1.015342506371066
1772786492799179000,5.966178955078125,2.343254732251167,1.4147786814935503,1.3707935554251074
1772786492809195000,5.976195068359375,2.3698627531915903,1.471724411422014,1.7524962862625717
1772786492819211000,5.9862109375,2.3496862266033887,1.624319403682649,2.0625589913867413
1772786492829227000,5.99622705078125,2.2850591483920812,1.7252147499747574,2.225363242972642
1772786492839243000,6.006242919921875,2.205524423906207,1.784649227979034,2.2992682910084725
1772786492849259300,6.01625927734375,2.156594096520543,1.649211560615897,2.25738919730857
1772786492859275000,6.02627490234375,2.0790105061024424,1.3881598468981682,2.043051888492703
1772786492869291000,6.036291015625,1.8826386236965655,1.177502907095477,1.773964752357453
1772786492879307000,6.04630712890625,1.4758587347477674,1.0365399735048413,1.5021497986935077
1772786492889322000,6.056322021484375,1.1257073264718056,1.0224521922457963,1.2052755148358643
1772786492899338000,6.066337890625,0.9042325669914484,1.1544772016212344,0.9582447276860475
1772786492909354000,6.07635400390625,0.6805056446701288,1.348007723121345,0.6146333156380802
1772786492919370000,6.086369873046875,0.48854105731248854,1.3972244662329554,0.21660591133497653
1772786492929386200,6.09638623046875,0.3725017717719078,0.9428586502447723,-0.3112201315309852
1772786492939402000,6.106402099609375,0.34509704749584197,-0.14964976912159472,-1.1859267443086952
1772786492949418000,6.11641796875,0.20136545290946958,-0.6137685885675251,-1.7189476524040102
1772786492959434000,6.12643408203125,0.0739911188840866,-0.781290077933669,-1.8283257264897226
1772786492969449000,6.136448974609375,0.01759293983578682,-0.8049405642427504,-1.6141687426768243
1772786492979465000,6.14646484375,0.01818155337870121,-0.7084654455456882,-1.263601300945878
1772786492989481000,6.15648095703125,0.13376958802044392,-0.6043672846242785,-0.8270967934060841
1772786492999497000,6.1664970703125,0.3520633793771267,-0.7188559797219931,-0.46844398916866625
1772786493009513200,6.17651318359375,0.34032559531033035,-0.624027751449123,-0.09301088578575291
1772786493019529200,6.186529296875,0.2968330750644207,-0.5800931865241378,0.19389961054082958
1772786493029545000,6.196544921875,0.1680208171904087,-0.5480810415178538,0.4118067772001028
1772786493039561000,6.20656103515625,0.12185001764595507,-0.45401736787669356,0.5361761572558432
1772786493049577000,6.216576904296875,0.37766368457973,-0.5935242574401199,0.5600309339653701
1772786493059592000,6.226592041015625,0.6236532921135425,-0.8538124394394457,0.5193947895312682
1772786493069608000,6.23660791015625,0.5961942073017359,-0.8937550121188164,0.4345364588698372
1772786493079624000,6.2466240234375,0.5288152000337839,-0.9612280543457716,0.2799182719522156
1772786493089640200,6.25664013671875,0.33316637120544906,-0.9610959523987025,0.14838669951637273
1772786493099656200,6.26665625,0.07003390569090842,-0.8937539161402731,0.04990254255183972
1772786493109672200,6.276672119140625,-0.10697510459721088,-0.8269712673302739,0.04303420028546825
1772786493119688000,6.28668798828125,-0.20703122358620166,-0.8124292394977063,0.08431746525038034
1772786493129704000,6.296703857421875,-0.27483693183362484,-0.7734259934950619,0.13087364738322793
1772786493139720000,6.306719970703125,-0.35015900706052777,-0.703565544674918,0.18602436538739128
1772786493149735000,6.31673486328125,-0.3592991758495569,-0.6447694376394152,0.1570426558518782
1772786493159751000,6.3267509765625,-0.21668167998492716,-0.6152980631571263,0.020147894148761405
1772786493169767200,6.33676708984375,0.12328969506025314,-0.6017234190519899,-0.1522729298325721
1772786493179783200,6.346783203125,0.4244786272466182,-0.6809734083123504,-0.33427488043662157
1772786493189799200,6.356799072265625,0.49744098760485644,-0.750600486768037,-0.5248489632839337
1772786493199815000,6.36681494140625,0.4669406354010105,-0.7065136538907885,-0.7513776086203754
1772786493209831000,6.376830810546875,0.4659714981079101,-0.7073408984951675,-0.9331533949188887
1772786493219847000,6.386846923828125,0.3909451909571886,-0.7965447840802371,-1.1057131707131862
1772786493229863000,6.39686279296875,0.16576456269621848,-0.9185803143609315,-1.2669115945376455
1772786493239878000,6.4068779296875,-0.11252046376466751,-1.0227306438609958,-1.4132025182180106
1772786493249894100,6.41689404296875,-0.479867921513319,-1.1140700801700354,-1.3980525876201688
1772786493259910100,6.42691015625,-0.9271370572388171,-1.1464257048517466,-1.304056645452976
1772786493269926100,6.436926025390625,-1.484222073945403,-0.9213339969832449,-1.2379925201758741
1772786493279942100,6.446942138671875,-2.038449947655201,-0.5573780083037913,-1.2107508775070308
1772786493289958000,6.4569580078125,-2.122102628853917,-0.15256708134040237,-1.2054501407504081
1772786493299974000,6.466973876953125,-1.862538669475913,0.30869828490316864,-1.0042781645864247
1772786493309990000,6.476989990234375,-2.0612334418714044,0.7929949826441705,-0.5394849164776504
1772786493320006100,6.487006103515625,-2.5952877116024493,1.230348435163498,0.0040210356770083305
1772786493330021000,6.497021240234375,-2.870395861592889,1.5555929273284972,0.6605682606000453
1772786493340037000,6.507037109375,-2.619615512651205,1.4998838995881378,1.293914898405969
1772786493350053000,6.51705322265625,-2.2734745090603825,1.3314534786835313,1.7446720223776995
1772786493360069000,6.527069091796875,-1.9459084420800208,1.3759858633711932,2.0225459838196636
1772786493370085000,6.537085205078125,-1.5021750792652369,1.5632342358618974,2.1588344227932392
1772786493380100900,6.547100830078125,-1.0256500384390355,1.7879279573887585,2.244275594843924
1772786493390116900,6.557116943359375,-0.6605436376154422,1.9702071631647646,2.305341181181371
1772786493400133000,6.567133056640625,-0.5859674123197793,2.1243121215969323,2.2172474487952885
1772786493410148000,6.577148193359375,-0.538180994272232,2.187091672245413,1.9127755494154988
1772786493420164000,6.5871640625,-0.458700045800209,2.145053296330571,1.426153331336379
1772786493430180000,6.59718017578125,-0.12468027263581752,1.9387401578858494,0.7783957447316497
1772786493440196000,6.607196044921875,0.29152386274039743,0.9134681589789688,-0.44897301703393455
1772786493450212000,6.617212158203125,0.8905155918061732,0.14847659715637565,-1.7473121616229415
1772786493460227800,6.627227783203125,1.2033283262908459,-0.25040347845330835,-2.6137808151483535
1772786493470243800,6.637243896484375,1.0802999125152826,-0.460995024869591,-3.181158093288541
1772786493480260000,6.647260009765625,0.7278560093879699,-0.5845122450754046,-3.274495425416529
1772786493490276000,6.657276123046875,0.46762978670895095,-0.5965025425985455,-2.6844778609231112
1772786493500291000,6.667291015625,0.3168611330926418,-0.49483328932449216,-1.6529352573141454
1772786493510307000,6.67730712890625,0.05182312621772289,-0.4076747919619083,-0.8107185631223023
1772786493520323000,6.687322998046875,-0.024234862068295476,-0.3488771505564451,-0.22816673139967023
1772786493530339000,6.697339111328125,0.1264461132645607,-0.3040039896070957,0.08009820358753204
1772786493540355000,6.70735498046875,0.10467442643940449,-0.33148002555370326,0.1944936674438417
1772786493550370800,6.717370849609375,-0.23969313773810863,-0.3437248823598027,0.0977171546474099
1772786493560387000,6.727386962890625,-0.5873994909495115,-0.4691669331483543,-0.21243432473875581
1772786493570403000,6.737403076171875,-0.49339726517200466,-0.6563583147548139,-0.4143069234527647
1772786493580419000,6.747419189453125,0.1730401066571474,-0.8442933543354272,-0.48538705026097595
1772786493590434000,6.75743408203125,0.7526438291639089,-0.8626265911445021,-0.4424518716368824
1772786493600450000,6.767449951171875,1.061727313992381,-0.8921300412654877,-0.49014323181211944
1772786493610466000,6.777466064453125,1.178489653110504,-0.9090417208388447,-0.7182713847670704
1772786493620482000,6.78748193359375,1.340441379520297,-0.976049995098263,-0.9658945848520845
1772786493630498000,6.797498046875,1.4696592955857515,-1.0781237375199795,-1.006640071412176
1772786493640514000,6.80751416015625,1.3950146812289952,-1.1138853712528944,-1.0747852407470344
1772786493650530000,6.817530029296875,1.235443712475896,-1.1471531423434616,-1.2045379943415522
1772786493660546000,6.827546142578125,1.1299749207884073,-1.2797140852265059,-1.3014821187898515
1772786493670562000,6.83756201171875,1.118190374970436,-1.4414010232202707,-1.3153002162620424
1772786493680577000,6.847576904296875,1.099780858054757,-1.534528950381279,-1.2991250342696905
1772786493690593000,6.857593017578125,1.1803905182957648,-1.4991608460105954,-1.1946004646297543
1772786493700609000,6.867609130859375,1.416487092846632,-1.357190123616904,-0.9891891703955829
1772786493710625000,6.877625,1.546455535018444,-1.3018459836661815,-0.7915737176693975
1772786493720641000,6.88764111328125,1.74189685857594,-1.0429827199034392,-0.46760220458228136
1772786493730657000,6.897656982421875,1.9364906253933905,-0.863000173697248,-0.1955307554066181
1772786493740673000,6.907673095703125,1.7816963695228099,-1.2175317698188126,-0.24858499432187525
1772786493750689000,6.91768896484375,1.6388520791649817,-1.3240230364218353,-0.28331688314825293
1772786493760704000,6.9277041015625,1.5254916574448347,-1.366936441605538,-0.28944298307942223
1772786493770720000,6.937719970703125,1.1310691457659006,-1.5105128456301986,-0.28330170384543013
1772786493780736000,6.947736083984375,0.6264753637969493,-1.5956106110706925,-0.35448289814163
1772786493790751500,6.95775146484375,0.30183365983068944,-1.6430160669766365,-0.5223348250385373
1772786493800767500,6.967767578125,0.17312427780926226,-1.64782565921545,-0.7075485498964786
1772786493810783700,6.97778369140625,0.07439326994419097,-1.5620307052910327,-0.8317155392479151
1772786493820799500,6.987799560546875,-0.25917992849647997,-0.8484474052749573,-0.5363724104803055
1772786493830815500,6.9978154296875,-0.6689508159548044,-0.30264826414920387,-0.19444807473644612
1772786493840831500,7.00783154296875,-0.7976952692896128,-0.03277772255130112,0.0726892242389731
1772786493850846500,7.017846435546875,-0.6060574296683072,0.0499808593519032,0.22333057994749395
1772786493860862500,7.027862548828125,-0.30209727920293805,-0.07352854287363589,0.06799447228517383
1772786493870878500,7.03787841796875,-0.2079097599864006,-0.5062123230814933,-0.3347063306564465
1772786493880894500,7.04789453125,-0.40726445759534835,-1.0404884188696741,-1.0324031659610569
1772786493890910700,7.05791064453125,-0.9067010029315948,-1.443768190743029,-1.7184060928732157
1772786493900926500,7.067926513671875,-1.666000782853365,-1.518588453927636,-2.1962200044661757
1772786493910942500,7.0779423828125,-2.2624510107427835,-1.4408265843331813,-2.434127135570347
1772786493920958500,7.08795849609375,-2.503727618280053,-1.3231655428096651,-2.367839138409495
1772786493930974500,7.097974365234375,-2.5397663153886794,-1.1732341437350957,-2.0546232299514116
1772786493940989400,7.107989501953125,-2.490032854926586,-0.7190737141259014,-1.4372848200730979
1772786493951005400,7.11800537109375,-2.553569215291738,0.5314272456957027,-0.20524180115247145
1772786493961021400,7.128021484375,-2.7998265338510273,1.8829973740063606,1.603116164395213
1772786493971037700,7.13803759765625,-2.407631050571799,1.5058860626123844,2.425942806201428
1772786493981053700,7.1480537109375,-1.9828566552489995,0.8231761858962475,2.4072066876798868
1772786493991069400,7.1580693359375,-1.6689906123191118,0.58006827127859,2.375230417704582
1772786494001085400,7.16808544921875,-1.4529770408540963,0.65434682880193,2.3871910507418215
1772786494011101400,7.178101318359375,-1.2301906142532826,1.1079801657970993,2.3640751097008583
1772786494021116400,7.188116455078125,-1.0390443575412034,1.7366913988873363,2.2126064911216496
1772786494031132400,7.19813232421875,-0.952566682049632,2.306195167662203,1.8711005999855697
1772786494041148400,7.2081484375,-0.5023837047040463,2.498662443844974,1.261260583038628
1772786494051164700,7.21816455078125,0.05832943937182426,0.9276070128381252,-0.249518220051378
1772786494061180700,7.2281806640625,0.6678501612365245,0.060440257513336836,-1.3981173234194517
1772786494071196700,7.23819677734375,1.2196166132688522,0.3999853334378451,-1.3800757630333305
1772786494081212400,7.24821240234375,1.6632354097932576,0.44720874730776994,-1.2184761379968374
1772786494091228400,7.258228515625,2.0112720178723333,0.527291022673808,-0.9523993626587093
1772786494101244400,7.268244384765625,2.3081097691118715,0.7314647014044224,-0.5702420929867774
1772786494111259400,7.27825927734375,2.51695593316555,0.944024406088516,-0.20350874854847786
1772786494121275400,7.288275390625,2.5962901666432616,1.3130268645025789,0.2527929308731109
1772786494131291600,7.298291748046875,2.547268069320917,1.8019858549661933,0.8761756624169648
1772786494141307600,7.3083076171875,2.4081214644372464,1.793380377575755,1.3337528416670859
1772786494151323600,7.31832373046875,2.0012457138985393,1.6501380278110502,1.5631488956660031
1772786494161339600,7.328339599609375,1.330717273363471,1.608230146408081,1.7256164626434445
1772786494171355400,7.33835546875,0.7885796504199505,1.5558081775143742,1.8287883755654095
1772786494181371400,7.348371337890625,0.5927431900650263,1.187646407708153,1.707194670768082
1772786494191387600,7.3583876953125,0.4791530512422323,0.8029507055997848,1.4543734636485577
1772786494201402400,7.36840234375,0.5545774177998304,0.5654404648587107,1.264744625762105
1772786494211418600,7.378418701171875,0.6668196491450071,0.32503121474049984,1.071319025941193
1772786494221434600,7.3884345703125,0.9208119458705186,0.14201470766589044,0.7933215842500329
1772786494231450600,7.39845068359375,1.041060958060622,-0.0651082127917558,0.6285780351646244
1772786494241466600,7.408466552734375,1.1431827774077654,-0.11357099573090672,0.45917018406260757
1772786494251482400,7.418482421875,1.285291154706478,-0.123437286837399,0.2868789960766211
1772786494261498400,7.428498291015625,1.4175252037227153,-0.19710998742207883,0.15037006448647006
1772786494271514600,7.4385146484375,1.5800988614231346,-0.2917944233100861,-0.02163533796123229
1772786494281529300,7.448529296875,1.5542057107537983,-0.5176442560695111,-0.12408891914654523
1772786494291545600,7.458545654296875,1.2342805139154196,-0.8463454645596444,-0.18281652752310038
1772786494301561600,7.4685615234375,0.8587152629196644,-1.1583932790864258,-0.332309279452078
1772786494311577600,7.47857763671875,0.7456400878816842,-1.5042464787118135,-0.4167831408405676
1772786494321593600,7.488593505859375,0.5786351697355508,-1.7183182684592901,-0.33624804367311295
1772786494331609600,7.498609619140625,0.36792438085377216,-1.6842421035952866,-0.16776039442224427
1772786494341625300,7.508625244140625,0.0519447067707777,-1.5436857780441642,-0.035574344699620265
1772786494351641600,7.5186416015625,-0.0564934561163187,-1.3508622357696294,0.1712652790043503
1772786494361657600,7.52865771484375,-0.09647007719576359,-1.1956909632802009,0.4495154898801818
1772786494371672600,7.538672607421875,-0.16072364591956137,-1.0875418464675546,0.6783362647417932
1772786494381688600,7.5486884765625,-0.22274317198097704,-1.0220436845101415,0.913400281374529
1772786494391704600,7.55870458984375,-0.45317631394267077,-0.9249081291429698,1.1111902869500219
1772786494401720600,7.568720458984375,-0.7415373287379742,-0.7595313967205584,1.1755727427504956
1772786494411736600,7.578736572265625,-0.9664864863306284,-0.5421123423717916,1.0854236852698027
1772786494421752600,7.588752685546875,-1.0414724614709616,-0.3153608115322888,0.9191516845081001
1772786494431768600,7.5987685546875,-0.903019099548459,-0.30238749432116746,0.6633335605949163
1772786494441784600,7.60878466796875,-0.5882943939626216,-0.5593861332558095,0.38331911652553824
1772786494451799600,7.618799560546875,-0.380060224327445,-0.8396474282257258,-0.012100708228209987
1772786494461815600,7.628815673828125,-0.2808522466003895,-0.9744237090706824,-0.42135044875610617
1772786494471831600,7.63883154296875,-0.19013094218969345,-1.2108983231537043,-0.822103003706783
1772786494481847600,7.64884765625,-0.26718963195085527,-1.6886521751224994,-1.308718353653699
1772786494491863600,7.658863525390625,-0.7025713460057973,-1.904999508586526,-1.7635149622745812
1772786494501879600,7.668879638671875,-1.2939941011220215,-1.8811840409740805,-1.980677557644248
1772786494511895600,7.6788955078125,-1.6434949365347622,-1.710674183446914,-1.8878145650297402
1772786494521911600,7.68891162109375,-1.8214438580214976,-1.2908084568232296,-1.7139903222575783
1772786494531927600,7.698927490234375,-1.889787910929322,-0.7478539645388722,-1.633728452540934
1772786494541942500,7.708942626953125,-1.7391975364893675,-0.28053938125893474,-1.6170343612410127
1772786494551958500,7.71895849609375,-1.5414005897164345,0.44666532461345193,-1.3802970045685767
1772786494561974500,7.728974609375,-1.664120960456133,1.0417864958561955,-0.9559781709935515
1772786494571990500,7.738990478515625,-2.04995918366313,1.3697078060150145,-0.5713850524768233
1772786494582006500,7.749006591796875,-2.2585247772097587,1.8163475577957928,-0.08004330419567413
1772786494592022800,7.759022705078125,-2.04662039462924,2.1761419698163866,0.5797284448649734
1772786494602038500,7.76903857421875,-1.8500743247002363,2.1585167351461947,1.074132110600546
1772786494612054500,7.779054443359375,-1.9914754305124283,2.1065695441573857,1.290151161958277
1772786494622069500,7.789069580078125,-2.2312176680892706,2.1836763108439743,1.46662211984694
1772786494632085500,7.79908544921875,-2.2890923494309185,2.3924586158812047,1.7302696952767669
1772786494642101500,7.8091015625,-1.8285510596781969,2.4975959836572406,2.0661727979697284
1772786494652117500,7.819117431640625,-1.0052367804855107,2.485127839489281,2.252585742549598
1772786494662133500,7.829133544921875,-0.2881552630901337,2.5302713418126106,2.1635791331022975
1772786494672149500,7.8391494140625,0.2274380517989397,2.6113003965094683,1.902290103497356
1772786494682165500,7.84916552734375,0.6714794576495885,2.528596686598658,1.4863976644188164
1772786494692181500,7.859181396484375,1.2066057405263184,2.372172199177742,1.0647970768265425
1772786494702197500,7.869197509765625,1.9574322911351918,2.26933960121274,0.6685876817308366
1772786494712212500,7.87921240234375,2.72216286393404,1.882337594923377,-0.015544702069088815
1772786494722228500,7.889228515625,3.2382927699178454,1.2832459126144646,-0.5948540447391569
1772786494732244500,7.899244384765625,3.526021916550398,0.6416928066730498,-1.1397132746662944
1772786494742260500,7.909260498046875,2.9429870505511757,-0.06382737920098007,-1.70521226477921
1772786494752276500,7.9192763671875,1.9521862071752547,-0.3047702247392386,-2.028113554818928
1772786494762292700,7.929292724609375,0.9490624733209609,-0.4667894634272903,-2.1670188982926306
1772786494772308500,7.93930859375,-0.09070844492912292,-0.7159264290761203,-2.1354897875629364
1772786494782324500,7.949324462890625,-1.0849778411984443,-0.8714861894264817,-1.9592901939615606
1772786494792341000,7.959341064453125,-1.774989565360546,-0.9048117551188916,-1.5615297700315713
1772786494802356000,7.96935595703125,-2.081691708010435,-0.828096983424574,-1.1791967784665525
1772786494812372000,7.9793720703125,-2.217213692656159,-0.5987788169674575,-0.9737881876461207
1772786494822388000,7.989387939453125,-2.111045228266716,-0.4257786039292812,-0.782756058833003
1772786494832404200,7.999404296875,-1.3210790919244288,-0.22377660668194294,-0.7453881589472293
1772786494842420200,8.009420166015625,-0.40144729574918747,0.06784735543206334,-0.6065749142037704
1772786494852436000,8.01943603515625,0.3367296166449785,0.19408143338114023,-0.38325701107475907
1772786494862452000,8.029451904296875,1.0943395437836647,-0.02395275719128549,0.03161861564405262
1772786494872468000,8.039468017578125,1.6532827555775642,-0.09477277175858616,-0.23775782229397444
1772786494882483000,8.04948291015625,1.6830436875909567,-0.13104374325312673,-0.48621937289927153
1772786494892499000,8.0594990234375,1.8426456360042094,-0.24622166272401808,-0.5739915451807901
1772786494902515000,8.069514892578125,2.3875930556714535,-0.4246159168254584,-0.688510452753678
1772786494912531200,8.07953125,2.7636639181017872,-0.5685647343590855,-0.8602098853915929
1772786494922547200,8.089547119140626,2.509809568542242,-0.7495423560172318,-0.79217760184668
1772786494932563000,8.09956298828125,2.00624220701158,-1.0490208310239015,-0.6348062620297074
1772786494942579000,8.109578857421875,1.407055832156539,-1.1811015891745686,-0.45489334699362516
1772786494952595000,8.119594970703124,0.5834826097667217,-1.1213652056142687,-0.38791459108963605
1772786494962610000,8.12960986328125,0.20626842252016067,-0.968136737755686,-0.3702471247129142
1772786494972626000,8.1396259765625,0.3496796991109848,-0.9359098540201782,-0.12805353019488974
1772786494982642000,8.149641845703124,0.3151303637772798,-1.088415414431691,0.08692156506786122
1772786494992658200,8.159658203125,0.20396949792802332,-1.299043493466079,0.044360316056385636
1772786495002674200,8.169674072265625,0.14962123714685438,-1.4203969597667454,-0.18303069999674335
1772786495012690200,8.179690185546875,-0.028768998366594314,-1.4650418649181722,-0.5488358054079115
1772786495022706000,8.189705810546876,-0.3037859629422426,-1.4801691452927888,-0.8844388291757553
1772786495032722000,8.199721923828125,-0.48395957474112505,-1.4350301730141042,-0.9613683395992964
1772786495042738000,8.209738037109375,-0.14022154063880443,-1.2692654641874135,-0.9126679485119878
1772786495052753000,8.2197529296875,0.3194663471549749,-0.6897506620731204,-0.9331942383859306
1772786495062769000,8.229768798828125,0.7810229514300823,-0.6014530046127736,-0.9014112259604036
1772786495072785200,8.23978515625,0.9105559247940778,-0.6494434938650578,-0.8985558365292846
1772786495082801200,8.24980126953125,0.7949374950140714,-0.08001666278392076,-0.47477125596143305
1772786495092817200,8.259817138671876,0.7010790616214275,-0.11823927980288862,-0.5935204945804551
1772786495102833200,8.269833251953125,-0.3224158446103334,-0.3333279184427112,-0.9348519424650817
1772786495112849000,8.279848876953125,-1.449978443560004,-0.5189628643874079,-1.0872795422695576
1772786495122865000,8.289864990234374,-1.2920634253203869,-0.4403908474538475,-1.1493723527628927
1772786495132880000,8.2998798828125,-0.46857729669213294,-0.2830668539099395,-1.3597082439176738
1772786495142895900,8.309895751953125,0.3049409781962633,-0.22540734968893228,-1.618254696816206
1772786495152912100,8.319912109375,0.4252262307435274,-0.5605024969998746,-1.5792434136375784
1772786495162928000,8.32992822265625,-0.08327917171120643,-0.8620430191028863,-1.52530431817919
1772786495172944100,8.339944091796875,-0.7349158647716045,-0.9666896807525306,-1.5201419669799505
1772786495182960000,8.349960205078125,-1.2901695743978023,-0.9626472004286944,-1.8018660279788077
1772786495192976000,8.359975830078126,-1.6876099725931881,-1.1350197100225836,-1.8531772591516373
1772786495202991900,8.369991943359375,-1.507616978058219,-0.9235149212189018,-1.541835766263306
1772786495213008000,8.3800078125,-0.8514344582617283,0.16470716259777546,-0.8314246665425599
1772786495223022800,8.39002294921875,-0.6893325097262859,-0.10393025700859725,-0.23921859729522837
1772786495233039000,8.4000390625,-2.170191244718432,-0.3357487158488482,0.13112241624621673
1772786495243055000,8.41005517578125,-2.750719096332788,1.0463584799468517,1.2841922535538672
1772786495253071000,8.420071044921874,-2.3566075502991675,1.8493980328738688,2.9425100806891917
1772786495263087000,8.430087158203126,-1.7477391548633574,1.2902101986691354,3.0469086127966643
1772786495273103000,8.44010302734375,-1.5493337208032607,1.3759882014587521,2.876549415786564
1772786495283118800,8.450118896484375,-1.6377362268775701,1.7888946104638277,2.738160935793817
1772786495293134800,8.460134765625,-1.6228209818184376,2.1980539418950675,2.339980532886088
1772786495303149800,8.47014990234375,-1.5540531505405901,1.392725839639455,1.1665941942639648
1772786495313166000,8.480166015625,-1.1901613862037659,0.23234306723624468,-0.18042236239556222
1772786495323182000,8.49018212890625,-0.6431862601011991,0.11512998867593704,-1.1458040658220647
1772786495333198000,8.500197998046875,-0.11844400859475135,0.4815941607840359,-1.7541382082507013
1772786495343214000,8.510214111328125,0.6619464901506901,0.36387853952907023,-1.362168934942782
1772786495353230000,8.52022998046875,1.3501964653372764,0.4909907520195469,-1.3231002224884927
1772786495363246000,8.53024609375,1.7561504248559474,0.4675352402932942,-1.0500448403093963
1772786495373261800,8.54026171875,2.197736254248023,0.4889708635644987,-0.4855772756034508
1772786495383278000,8.550278076171875,1.9869594143927096,0.960251537463814,0.2783168463712558
1772786495393293000,8.56029296875,1.1072679989397525,1.6745995382420718,1.340292034177482
1772786495403309000,8.57030908203125,0.7198696868091822,2.138805341851711,1.9381150117248296
1772786495413325000,8.580324951171875,1.3189461715489625,2.1853370836630464,2.4487645866014063
1772786495423341000,8.590341064453124,1.7390736178487538,1.9849436906561255,2.763569225555658
1772786495433357000,8.600357177734375,1.7416133654594421,1.9445888839140533,2.694010536161065
1772786495443373000,8.610373046875,1.9083903200685977,1.9176278117522596,2.577223062601685
1772786495453389000,8.62038916015625,1.7766151207357643,1.5624135671287773,2.2108198999658226
1772786495463405000,8.630405029296876,1.5674673433870077,1.1084893574282526,1.8094129362270235
