time,seconds_elapsed,z,y,x
1772786486889803000,0.056802978515625,-0.012773655354976654,-0.06602219492197037,-0.046879950910806656
1772786486899819000,0.066819091796875,-0.11444439738988876,-0.07722602784633636,-0.059894781559705734
1772786486909834800,0.076834716796875,-0.19596323370933533,-0.11857905983924866,-0.1776919960975647
1772786486919850800,0.086850830078125,-0.22655867040157318,-0.27452078461647034,-0.34525266289711
1772786486929867000,0.096866943359375,-0.2694329023361206,-0.35914912819862366,-0.5187080502510071
1772786486939883000,0.106883056640625,-0.3290542662143707,-0.30432289838790894,-0.5954123139381409
1772786486949899000,0.11689892578125,-0.4145875573158264,-0.2021174430847168,-0.6075690984725952
1772786486959915000,0.1269150390625,-0.4891580641269684,-0.13306325674057007,-0.5965810418128967
1772786486969930000,0.136929931640625,-0.516416609287262,-0.07718507945537567,-0.5578551888465881
1772786486979946000,0.146946044921875,-0.4886243939399719,-0.008153768256306648,-0.4879423975944519
1772786486989962000,0.1569619140625,-0.42758873105049133,0.051735665649175644,-0.3860807418823242
1772786486999977700,0.166977783203125,-0.3714886009693146,0.08934647589921951,-0.26325586438179016
1772786487009994000,0.176993896484375,-0.33843424916267395,0.07603253424167633,-0.12988929450511932
1772786487020010000,0.187010009765625,-0.3224668502807617,-0.010058397427201271,-0.004006979055702686
1772786487030026000,0.19702587890625,-0.3191802501678467,-0.1303613781929016,0.10410404205322266
1772786487040042000,0.2070419921875,-0.32501572370529175,-0.2429780662059784,0.19348125159740448
1772786487050058000,0.21705810546875,-0.3067789375782013,-0.31371161341667175,0.25147077441215515
1772786487060073000,0.227072998046875,-0.27291375398635864,-0.3738107681274414,0.2941940426826477
1772786487070089000,0.2370888671875,-0.24882307648658752,-0.40992721915245056,0.3281727731227875
1772786487080104700,0.247104736328125,-0.23890605568885803,-0.40645289421081543,0.36535826325416565
1772786487090121000,0.257120849609375,-0.23856915533542633,-0.39095649123191833,0.39414677023887634
1772786487100137000,0.267136962890625,-0.23732809722423553,-0.3742191791534424,0.39034488797187805
1772786487110153000,0.277153076171875,-0.23997555673122406,-0.35131996870040894,0.3541536033153534
1772786487120169000,0.2871689453125,-0.2529275715351105,-0.328928142786026,0.28007933497428894
1772786487130185000,0.29718505859375,-0.26230961084365845,-0.2876496911048889,0.17517448961734772
1772786487140201000,0.307200927734375,-0.263314813375473,-0.23972178995609283,0.05385557934641838
1772786487150216700,0.317216796875,-0.2689034640789032,-0.18875926733016968,-0.0738922581076622
1772786487160232000,0.32723193359375,-0.22834643721580505,-0.20413796603679657,-0.20420686900615692
1772786487170248000,0.337248046875,-0.1962958723306656,-0.16482509672641754,-0.3456542193889618
1772786487180264000,0.347263916015625,-0.15886947512626648,-0.10369821637868881,-0.4158586859703064
1772786487190280000,0.357280029296875,-0.1110079437494278,-0.0228212159126997,-0.44486501812934875
1772786487200296000,0.3672958984375,-0.10397300869226456,0.18203115463256836,-0.4302448630332947
1772786487210312000,0.37731201171875,-0.1507255882024765,0.36997655034065247,-0.3540632724761963
1772786487220328000,0.387327880859375,-0.22428497672080994,0.4582628309726715,-0.2556130886077881
1772786487230344000,0.397343994140625,-0.2760368585586548,0.45424970984458923,-0.17799843847751617
1772786487240360000,0.40735986328125,-0.2943580746650696,0.41478246450424194,-0.1162453293800354
1772786487250375000,0.417375,-0.27621638774871826,0.34927865862846375,-0.0757998675107956
1772786487260391000,0.427390869140625,-0.23252296447753906,0.25939804315567017,-0.04033374786376953
1772786487270407000,0.437406982421875,-0.1658555269241333,0.15237703919410706,0.018175099045038223
1772786487280423000,0.4474228515625,-0.06867817789316177,0.0703776627779007,0.09350042790174484
1772786487290439000,0.45743896484375,0.03543757274746895,0.0850178599357605,0.17008069157600403
1772786487300455000,0.467454833984375,0.16820134222507477,0.1325470507144928,0.21112467348575592
1772786487310471000,0.477470947265625,0.28997358679771423,0.21796394884586334,0.19861926138401031
1772786487320487000,0.48748681640625,0.3687439560890198,0.3180835247039795,0.13503797352313995
1772786487330503000,0.4975029296875,0.31112220883369446,0.5375357270240784,0.017533713951706886
1772786487340519000,0.507518798828125,0.13547170162200928,0.7469008564949036,-0.09746772050857544
1772786487350534000,0.517533935546875,-0.09604621678590775,0.8277570605278015,-0.17513588070869446
1772786487360550000,0.5275498046875,-0.15416111052036285,0.657978892326355,-0.13910938799381256
1772786487370566000,0.53756591796875,-0.05101582407951355,0.3997481167316437,0.03811040148139
1772786487380582000,0.547581787109375,0.07862241566181183,0.2065497189760208,0.3062238097190857
1772786487390598000,0.557597900390625,0.14029669761657715,0.10668943077325821,0.5641136765480042
1772786487400614100,0.5676142578125,0.1769082248210907,0.11519265919923782,0.6800268292427063
1772786487410630000,0.5776298828125,0.21025818586349487,0.24096442759037018,0.6780163645744324
1772786487420646000,0.58764599609375,0.18663738667964935,0.40466177463531494,0.6052878499031067
1772786487430662000,0.597661865234375,0.05663624405860901,0.45836231112480164,0.506927490234375
1772786487440676900,0.6076767578125,-0.11466584354639053,0.3827037811279297,0.401867151260376
1772786487450692900,0.61769287109375,-0.21831288933753967,0.2831191420555115,0.26871949434280396
1772786487460708900,0.627708984375,-0.19652923941612244,0.21340996026992798,0.14177928864955902
1772786487470724900,0.637724853515625,-0.12606492638587952,0.11699234694242477,0.09572497755289078
1772786487480741000,0.6477412109375,-0.05745040625333786,-0.011202676221728325,0.12044337391853333
1772786487490756900,0.6577568359375,-0.003997035324573517,-0.15253156423568726,0.1753694713115692
1772786487500772900,0.66777294921875,0.03441505506634712,-0.2773638367652893,0.23902630805969238
1772786487510788900,0.677788818359375,0.050553809851408005,-0.38733986020088196,0.2961311340332031
1772786487520804900,0.687804931640625,0.04946737363934517,-0.4927075207233429,0.3291289210319519
1772786487530819800,0.69781982421875,0.028798047453165054,-0.564247727394104,0.3112788200378418
1772786487540835800,0.7078359375,-0.005429971031844616,-0.5696009397506714,0.22389627993106842
1772786487550851800,0.717851806640625,-0.04351184144616127,-0.5218999981880188,0.07851564884185791
1772786487560868000,0.7278681640625,-0.07016676664352417,-0.45492950081825256,-0.1102159321308136
1772786487570884000,0.737884033203125,-0.06689774245023727,-0.3410932123661041,-0.31397226452827454
1772786487580899800,0.74789990234375,-0.024646025151014328,-0.19971665740013123,-0.48338061571121216
1772786487590915800,0.757915771484375,0.05620568245649338,-0.12384931743144989,-0.5801223516464233
1772786487600931800,0.767931884765625,0.1511341631412506,-0.15355177223682404,-0.614086389541626
1772786487610947800,0.77794775390625,0.22942417860031128,-0.2488625943660736,-0.6029221415519714
1772786487620963800,0.7879638671875,0.2723379135131836,-0.3227473199367523,-0.5834342241287231
1772786487630978800,0.797978759765625,0.2645247280597687,-0.3706703782081604,-0.5623441338539124
1772786487640995000,0.8079951171875,0.23248934745788574,-0.41899219155311584,-0.5452746748924255
1772786487651011000,0.818010986328125,0.17636801302433014,-0.4116154909133911,-0.5636107921600342
1772786487661027000,0.828027099609375,0.10730956494808197,-0.36032217741012573,-0.6051250696182251
1772786487671042800,0.838042724609375,0.03331683203577995,-0.2920334041118622,-0.6342765688896179
1772786487681058800,0.848058837890625,-0.023599782958626747,-0.22325418889522552,-0.633198618888855
1772786487691074800,0.85807470703125,-0.060903213918209076,-0.13705618679523468,-0.6053664088249207
1772786487701090800,0.8680908203125,-0.07759217917919159,-0.025545112788677216,-0.5744854807853699
1772786487711107000,0.878107177734375,-0.09527397155761719,0.07388853281736374,-0.5446063876152039
1772786487721122000,0.8881220703125,-0.12865066528320312,0.14662472903728485,-0.5135327577590942
1772786487731138000,0.898137939453125,-0.21637065708637238,0.17313329875469208,-0.46268853545188904
1772786487741154000,0.908154052734375,-0.3195335566997528,0.1827443540096283,-0.4171670079231262
1772786487751169800,0.918169677734375,-0.39428049325942993,0.16220127046108246,-0.39094337821006775
1772786487761185800,0.928185791015625,-0.42679277062416077,0.19694942235946655,-0.3661578893661499
1772786487771201800,0.938201904296875,-0.4511508643627167,0.2295539677143097,-0.346314400434494
1772786487781217800,0.9482177734375,-0.4785803556442261,0.23499728739261627,-0.3444838225841522
1772786487791234000,0.958234130859375,-0.5106917023658752,0.22802698612213135,-0.3490106761455536
1772786487801250000,0.96825,-0.5339815020561218,0.23733273148536682,-0.33284255862236023
1772786487811265000,0.97826513671875,-0.5475322008132935,0.26703307032585144,-0.2856292426586151
1772786487821281000,0.988281005859375,-0.5404950976371765,0.29070761799812317,-0.21770049631595612
1772786487831297000,0.998297119140625,-0.5247438549995422,0.29647600650787354,-0.14014045894145966
1772786487841313000,1.00831298828125,-0.5062929391860962,0.2682041525840759,-0.058061957359313965
1772786487851329000,1.0183291015625,-0.5017626285552979,0.2215098738670349,0.013534463942050934
1772786487861345000,1.028344970703125,-0.5148684978485107,0.17707403004169464,0.07161230593919754
1772786487871361000,1.038361083984375,-0.5446045398712158,0.12234287708997726,0.11162044107913971
1772786487881377000,1.048376953125,-0.5912331342697144,0.0693962350487709,0.15234442055225372
1772786487891393000,1.05839306640625,-0.6606180667877197,0.043575551360845566,0.18110229074954987
1772786487901409000,1.068408935546875,-0.7477063536643982,0.06731843948364258,0.2004762589931488
1772786487911424000,1.078424072265625,-0.8460140228271484,0.10495449602603912,0.2053474485874176
1772786487921440000,1.08843994140625,-0.95661860704422,0.16153936088085175,0.21352475881576538
1772786487931456000,1.0984560546875,-1.0780502557754517,0.22575004398822784,0.24391941726207733
1772786487941472000,1.108471923828125,-1.1767373085021973,0.2732830345630646,0.2922259569168091
1772786487951488000,1.118488037109375,-1.186637043952942,0.25577592849731445,0.33690449595451355
1772786487961504000,1.12850390625,-1.1788578033447266,0.22239035367965698,0.4029117822647095
1772786487971520000,1.13852001953125,-1.2052589654922485,0.15723904967308044,0.477626234292984
1772786487981536300,1.148536376953125,-1.258959412574768,0.11962916702032089,0.5612984299659729
1772786487991552000,1.158552001953125,-1.3119720220565796,0.1566244661808014,0.6076582074165344
1772786488001567200,1.168567138671875,-1.362532615661621,0.25700920820236206,0.6151575446128845
1772786488011583000,1.1785830078125,-1.4072366952896118,0.3304472267627716,0.6268291473388672
1772786488021599000,1.188598876953125,-1.3422473669052124,0.378762423992157,0.6007879972457886
1772786488031615000,1.198614990234375,-1.1708883047103882,0.4500674903392792,0.5526755452156067
1772786488041631000,1.208630859375,-1.0397599935531616,0.5491300821304321,0.5067405700683594
1772786488051647000,1.21864697265625,-0.9468016028404236,0.5716926455497742,0.469931423664093
1772786488061663200,1.228663330078125,-0.833885669708252,0.48708048462867737,0.4619382917881012
1772786488071679200,1.23867919921875,-0.686015248298645,0.330576628446579,0.4930078089237213
1772786488081695000,1.248695068359375,-0.5006546974182129,0.14058008790016174,0.5482866168022156
1772786488091710200,1.258710205078125,-0.311506062746048,-0.008845889940857887,0.6157554388046265
1772786488101726000,1.268725830078125,-0.14244085550308228,-0.08913473039865494,0.6546399593353271
1772786488111742000,1.278741943359375,0.00043587107211351395,-0.12112675607204437,0.6291518807411194
1772786488121758000,1.288758056640625,0.11454998701810837,-0.09600178897380829,0.5323567390441895
1772786488131774000,1.29877392578125,0.2111676186323166,-0.04818926006555557,0.3690924346446991
1772786488141790200,1.308790283203125,0.29483693838119507,0.08218738436698914,0.134829580783844
1772786488151806200,1.31880615234375,0.27252817153930664,0.22755390405654907,-0.13558992743492126
1772786488161822200,1.328822265625,0.11751624196767807,0.3220446705818176,-0.38239187002182007
1772786488171838000,1.338837890625,-0.08351700007915497,0.4043073058128357,-0.5763542056083679
1772786488181853000,1.34885302734375,-0.2688908874988556,0.47799330949783325,-0.6930959224700928
1772786488191869000,1.358868896484375,-0.41761618852615356,0.5447385311126709,-0.6801202297210693
1772786488201885000,1.368885009765625,-0.5086267590522766,0.5810497403144836,-0.5575708150863647
1772786488211901000,1.37890087890625,-0.5655257701873779,0.5860181450843811,-0.36407408118247986
1772786488221917200,1.388917236328125,-0.6024583578109741,0.5670372247695923,-0.13143613934516907
1772786488231933200,1.39893310546875,-0.6251484751701355,0.523726761341095,0.10747843980789185
1772786488241949200,1.40894921875,-0.6337096095085144,0.4575246274471283,0.314577579498291
1772786488251965000,1.41896484375,-0.6268594264984131,0.36993780732154846,0.4654589593410492
1772786488261981000,1.42898095703125,-0.598751962184906,0.2745252847671509,0.5674749612808228
1772786488271997000,1.438996826171875,-0.5527352094650269,0.1597079038619995,0.6322124004364014
1772786488282012000,1.449011962890625,-0.4752861559391022,0.06631506234407425,0.6695365905761719
1772786488292028000,1.45902783203125,-0.4005914032459259,-0.012916112318634987,0.6864849328994751
1772786488302044200,1.469044189453125,-0.3360448479652405,-0.10352827608585358,0.6810699701309204
1772786488312060200,1.47906005859375,-0.27382487058639526,-0.17858999967575073,0.6557086706161499
1772786488322076200,1.489076171875,-0.19968058168888092,-0.22961996495723724,0.6192735433578491
1772786488332092200,1.499092041015625,-0.14602267742156982,-0.22220732271671295,0.5555675029754639
1772786488342108000,1.50910791015625,-0.12258322536945343,-0.13781015574932098,0.4442802667617798
1772786488352124000,1.5191240234375,-0.11390930414199829,-0.05381326004862785,0.3321004807949066
1772786488362140000,1.529139892578125,-0.09800077229738235,0.04072413966059685,0.22784341871738434
1772786488372155000,1.53915478515625,-0.10539477318525314,0.1930985003709793,0.14920826256275177
1772786488382171100,1.549171142578125,-0.12409859895706177,0.34413447976112366,0.09153372049331665
1772786488392187100,1.559187255859375,-0.15185247361660004,0.4768464267253876,0.0430213063955307
1772786488402203100,1.569203125,-0.17623402178287506,0.5742583274841309,-0.007103037089109421
1772786488412219100,1.57921923828125,-0.19735795259475708,0.6094322800636292,-0.06719247251749039
1772786488422235100,1.589235107421875,-0.21134985983371735,0.56126868724823,-0.10377637296915054
1772786488432251000,1.5992509765625,-0.2104177474975586,0.47767290472984314,-0.10697615891695023
1772786488442267000,1.609266845703125,-0.1814347356557846,0.3577008545398712,-0.07224684953689575
1772786488452283100,1.619283203125,-0.10819166898727417,0.28114214539527893,-0.0017503100680187345
1772786488462298000,1.629298095703125,0.00864192470908165,0.28083398938179016,0.08735667914152145
1772786488472314000,1.639314208984375,0.13071855902671814,0.28389981389045715,0.14763492345809937
1772786488482330000,1.649330078125,0.2248610258102417,0.23988600075244904,0.1338031142950058
1772786488492346000,1.65934619140625,0.29588034749031067,0.16260133683681488,0.023564213886857033
1772786488502362000,1.669362060546875,0.3789125978946686,0.07613682746887207,-0.13688907027244568
1772786488512377900,1.6793779296875,0.4417512118816376,0.009705076925456524,-0.27866244316101074
1772786488522393900,1.689393798828125,0.4485152065753937,-0.07801961153745651,-0.3349910378456116
1772786488532410000,1.69941015625,0.41538095474243164,-0.20539620518684387,-0.2861787676811218
1772786488542426000,1.709426025390625,0.37649261951446533,-0.2834389805793762,-0.17274311184883118
1772786488552442000,1.719442138671875,0.3513758182525635,-0.20006312429904938,-0.08199509978294373
1772786488562457000,1.72945703125,0.3157411813735962,0.021419048309326172,-0.04756809026002884
1772786488572473000,1.73947314453125,0.23188303411006927,0.3203032314777374,-0.11779166013002396
1772786488582489000,1.749489013671875,0.12789538502693176,0.6240172982215881,-0.3018600344657898
1772786488592505000,1.759505126953125,0.033359818160533905,0.7542674541473389,-0.46025365591049194
1772786488602520800,1.769520751953125,-0.06615190207958221,0.730676531791687,-0.4769982397556305
1772786488612537000,1.779537109375,-0.18572303652763367,0.7098892331123352,-0.327601820230484
1772786488622553000,1.789552978515625,-0.30090686678886414,0.7485571503639221,-0.08792334049940109
1772786488632569000,1.799569091796875,-0.3363623321056366,0.7920185923576355,0.13066546618938446
1772786488642585000,1.809585205078125,-0.23698900640010834,0.7535727620124817,0.23965977132320404
1772786488652600000,1.81960009765625,-0.022043412551283836,0.571160614490509,0.30819249153137207
1772786488662616000,1.829615966796875,0.10676337778568268,0.4259033501148224,0.3815109431743622
1772786488672632000,1.839632080078125,0.15490959584712982,0.3674357831478119,0.4227215051651001
1772786488682648000,1.84964794921875,0.1988406777381897,0.32184815406799316,0.46738889813423157
1772786488692664000,1.8596640625,0.21759119629859924,0.22235432267189026,0.5190477967262268
1772786488702680000,1.86968017578125,0.2087433934211731,0.03190920501947403,0.5685933828353882
1772786488712696000,1.879696044921875,0.17005938291549683,-0.19469411671161652,0.6253147125244141
1772786488722712000,1.889712158203125,0.10701579600572586,-0.3984125256538391,0.6610981822013855
1772786488732728000,1.89972802734375,0.05856863409280777,-0.5871784090995789,0.6496455669403076
1772786488742743000,1.909742919921875,0.05075691640377045,-0.6788766980171204,0.5519739985466003
1772786488752759000,1.919759033203125,0.08277291059494019,-0.6763802766799927,0.37735286355018616
1772786488762775000,1.929775146484375,0.13321655988693237,-0.6434729695320129,0.1665610820055008
1772786488772791000,1.939791015625,0.14687538146972656,-0.5798346400260925,-0.04361851513385773
1772786488782806300,1.94980615234375,0.10042726993560791,-0.525187075138092,-0.21945063769817352
1772786488792822300,1.959822265625,0.04184412211179733,-0.4998649060726166,-0.36698389053344727
1772786488802838300,1.96983837890625,-0.014704400673508644,-0.47510862350463867,-0.47142863273620605
1772786488812854300,1.979854248046875,-0.03280723839998245,-0.4597459137439728,-0.5394896864891052
1772786488822870300,1.989870361328125,0.001649733167141676,-0.4912432134151459,-0.5871565937995911
1772786488832885200,1.99988525390625,0.0809331014752388,-0.5676090717315674,-0.6278904676437378
1772786488842901200,2.0099013671875,0.18777357041835785,-0.6557806134223938,-0.6554032564163208
1772786488852917200,2.019917236328125,0.2929505705833435,-0.7304569482803345,-0.6495400667190552
1772786488862933500,2.02993359375,0.36853522062301636,-0.7480581402778625,-0.6009319424629211
1772786488872949200,2.03994921875,0.40329691767692566,-0.7276586294174194,-0.5518267154693604
1772786488882965200,2.04996533203125,0.403954416513443,-0.6530467867851257,-0.5220066905021667
1772786488892981200,2.059981201171875,0.35213249921798706,-0.5729905366897583,-0.5273537635803223
1772786488902997200,2.069997314453125,0.24140791594982147,-0.4998980462551117,-0.5517093539237976
1772786488913013200,2.08001318359375,0.09749201685190201,-0.42437559366226196,-0.5892590880393982
1772786488923029200,2.090029296875,-0.059170402586460114,-0.3154979348182678,-0.6153101921081543
1772786488933044200,2.100044189453125,-0.2005312591791153,-0.18055927753448486,-0.6130800247192383
1772786488943060500,2.110060546875,-0.30850666761398315,-0.09134597331285477,-0.5888492465019226
1772786488953076500,2.120076416015625,-0.37447822093963623,-0.04847441241145134,-0.5532132387161255
1772786488963092200,2.13009228515625,-0.4208676815032959,-0.010559181682765484,-0.5070266127586365
1772786488973108200,2.140108154296875,-0.44405877590179443,0.0410052090883255,-0.4746849536895752
1772786488983124200,2.150124267578125,-0.43489786982536316,0.10380545258522034,-0.47129887342453003
1772786488993140200,2.16014013671875,-0.4084681272506714,0.15183450281620026,-0.5001816749572754
1772786489003156200,2.17015625,-0.3848491311073303,0.20881608128547668,-0.5570999383926392
1772786489013172500,2.18017236328125,-0.3666898310184479,0.24509365856647491,-0.6081860065460205
1772786489023187500,2.1901875,-0.3568141460418701,0.25219443440437317,-0.6245899200439453
1772786489033203500,2.200203369140625,-0.3420703411102295,0.24182647466659546,-0.5963380336761475
1772786489043219200,2.21021923828125,-0.3085307776927948,0.14392074942588806,-0.4627073407173157
1772786489053235200,2.220235107421875,-0.2957555949687958,0.06905636936426163,-0.23453037440776825
1772786489063251200,2.230251220703125,-0.3137577772140503,0.06210285425186157,0.026311609894037247
1772786489073267200,2.24026708984375,-0.3298177123069763,0.06107833608984947,0.23214839398860931
1772786489083283200,2.250283203125,-0.3284805417060852,0.051292043179273605,0.3368017375469208
1772786489093299500,2.260299560546875,-0.33894357085227966,0.030540427193045616,0.3521207869052887
1772786489103315500,2.2703154296875,-0.3829416334629059,-0.013480357825756073,0.304403156042099
1772786489113330400,2.280330322265625,-0.48315396904945374,-0.069721519947052,0.25093698501586914
1772786489123346400,2.290346435546875,-0.6041547060012817,-0.16301994025707245,0.2558324635028839
1772786489133362200,2.300362060546875,-0.7271120548248291,-0.17919357120990753,0.2820643186569214
1772786489143378200,2.310378173828125,-0.8410806655883789,-0.17671509087085724,0.29119306802749634
1772786489153394200,2.320394287109375,-0.9230069518089294,-0.13384512066841125,0.30314186215400696
1772786489163410200,2.33041015625,-0.946993350982666,-0.05862263962626457,0.34066617488861084
1772786489173426400,2.340426513671875,-0.9258769154548645,0.024084491655230522,0.3980213403701782
1772786489183442400,2.3504423828125,-0.8958849906921387,0.05824190378189087,0.45401331782341003
1772786489193458400,2.36045849609375,-0.8721032738685608,0.07398837804794312,0.49229174852371216
1772786489203474200,2.37047412109375,-0.8712824583053589,0.13033947348594666,0.4936942756175995
1772786489213489400,2.380489501953125,-0.9038198590278625,0.2241421341896057,0.4651944637298584
1772786489223505200,2.390505126953125,-0.9647670388221741,0.27325439453125,0.3981771469116211
1772786489233521200,2.400521240234375,-0.8993307948112488,0.31346386671066284,0.29111966490745544
1772786489243537200,2.410537109375,-0.8149832487106323,0.3142854571342468,0.19528713822364807
1772786489253553400,2.420553466796875,-0.780418336391449,0.26860105991363525,0.13462166488170624
1772786489263569400,2.4305693359375,-0.7738987803459167,0.17809927463531494,0.14881040155887604
1772786489273585400,2.44058544921875,-0.7558377981185913,0.04708107188344002,0.23148317635059357
1772786489283601400,2.450601318359375,-0.7182422280311584,-0.08465180546045303,0.3819885849952698
1772786489293617200,2.4606171875,-0.6533125042915344,-0.2003144919872284,0.5609892010688782
1772786489303632400,2.47063232421875,-0.5763462781906128,-0.2941724359989166,0.7156909704208374
1772786489313648000,2.480648193359375,-0.5039242506027222,-0.3672655522823334,0.820092499256134
1772786489323664100,2.4906640625,-0.43360915780067444,-0.40464988350868225,0.854721188545227
1772786489333680400,2.500680419921875,-0.35584723949432373,-0.38647645711898804,0.8198611736297607
1772786489343696400,2.5106962890625,-0.2844955027103424,-0.3991318941116333,0.6799470782279968
1772786489353712400,2.52071240234375,-0.20622572302818298,-0.4363202750682831,0.4588719308376312
1772786489363728400,2.530728271484375,-0.09477844089269638,-0.39351338148117065,0.18638424575328827
1772786489373744000,2.540744140625,-0.044802095741033554,-0.2148437649011612,-0.11146794259548187
1772786489383760100,2.550760009765625,-0.14442658424377441,-0.029000580310821533,-0.3917458951473236
1772786489393775000,2.560775146484375,-0.2780597507953644,0.1568065732717514,-0.6145174503326416
1772786489403791000,2.570791015625,-0.38637903332710266,0.35669437050819397,-0.7948256731033325
1772786489413807400,2.580807373046875,-0.4619799256324768,0.535612940788269,-0.9052485227584839
1772786489423823400,2.5908232421875,-0.5345752239227295,0.6511154770851135,-0.9170534610748291
1772786489433839400,2.60083935546875,-0.6030901074409485,0.6869531273841858,-0.8277579545974731
1772786489443855400,2.61085546875,-0.6474781632423401,0.6548140048980713,-0.6843684911727905
1772786489453871400,2.620871337890625,-0.6537719964981079,0.5787807703018188,-0.519281804561615
1772786489463887000,2.63088720703125,-0.611141562461853,0.4862738847732544,-0.34434500336647034
1772786489473903000,2.640903076171875,-0.5268413424491882,0.3512423038482666,-0.16173361241817474
1772786489483919400,2.65091943359375,-0.4232853353023529,0.19356633722782135,0.004132270347326994
1772786489493934300,2.660934326171875,-0.3050212860107422,0.028346221894025803,0.1436701864004135
1772786489503950300,2.670950439453125,-0.1934644728899002,-0.13387374579906464,0.2559646964073181
1772786489513966300,2.68096630859375,-0.10033053159713745,-0.2779321074485779,0.33401793241500854
1772786489523982300,2.690982421875,-0.017647530883550644,-0.36731114983558655,0.38406920433044434
1772786489533998300,2.700998291015625,0.040104713290929794,-0.4108183979988098,0.4196346700191498
1772786489544014300,2.711014404296875,0.07484801858663559,-0.4483183026313782,0.44551223516464233
1772786489554030000,2.721030029296875,0.07530289143323898,-0.43365278840065,0.44982069730758667
1772786489564046300,2.73104638671875,0.06674623489379883,-0.4224932789802551,0.4231181740760803
1772786489574062300,2.741062255859375,0.021863453090190887,-0.3857134282588959,0.3628156781196594
1772786489584077300,2.751077392578125,-0.028638068586587906,-0.36742547154426575,0.3092632293701172
1772786489594093300,2.76109326171875,-0.07906263321638107,-0.3273742198944092,0.26878026127815247
1772786489604109300,2.771109375,-0.13704396784305573,-0.2778420150279999,0.23441283404827118
1772786489614125300,2.781125244140625,-0.19209709763526917,-0.2514503598213196,0.22140568494796753
1772786489624141300,2.791141357421875,-0.2475949078798294,-0.22588570415973663,0.23298148810863495
1772786489634157000,2.801156982421875,-0.3055221140384674,-0.21767358481884003,0.2503735423088074
1772786489644173300,2.81117333984375,-0.3619092106819153,-0.22370469570159912,0.2797096371650696
1772786489654189300,2.821189208984375,-0.41535407304763794,-0.24618549644947052,0.3081128001213074
1772786489664205300,2.831205322265625,-0.4116664528846741,-0.2678639888763428,0.31910786032676697
1772786489674220300,2.84122021484375,-0.3729051947593689,-0.2842762768268585,0.30829116702079773
1772786489684236300,2.851236328125,-0.33073410391807556,-0.3195585012435913,0.28394538164138794
1772786489694252300,2.861252197265625,-0.28660205006599426,-0.3478548526763916,0.2694242298603058
1772786489704268300,2.871268310546875,-0.2472972273826599,-0.334587037563324,0.2679295241832733
1772786489714284300,2.8812841796875,-0.2081274539232254,-0.2883484363555908,0.2727448046207428
1772786489724300300,2.89130029296875,-0.17529334127902985,-0.22727635502815247,0.27181476354599
1772786489734316300,2.90131640625,-0.16839735209941864,-0.1884932816028595,0.26805543899536133
1772786489744332300,2.911332275390625,-0.17906150221824646,-0.2154373675584793,0.2719450891017914
1772786489754348300,2.921348388671875,-0.14960187673568726,-0.2771127223968506,0.2697162926197052
1772786489764364300,2.9313642578125,-0.08525726944208145,-0.2685602009296417,0.2477608472108841
1772786489774379300,2.941379150390625,0.0007372661493718624,-0.13428571820259094,0.1962137669324875
1772786489784395800,2.951395751953125,0.07144046574831009,0.04831009358167648,0.1258963942527771
1772786489794411800,2.961411865234375,0.0920858234167099,0.32821017503738403,-0.005212894640862942
1772786489804427500,2.971427490234375,0.03737824410200119,0.6668940186500549,-0.2271944135427475
1772786489814443500,2.981443603515625,-0.030184824019670486,0.8645812273025513,-0.4888609051704407
1772786489824459500,2.99145947265625,-0.05918782576918602,0.7810112237930298,-0.6493802070617676
1772786489834475500,3.0014755859375,-0.07895034551620483,0.5143867135047913,-0.6099193692207336
1772786489844491500,3.011491455078125,-0.13011674582958221,0.316718727350235,-0.3928171694278717
1772786489854507800,3.0215078125,-0.18127579987049103,0.27177920937538147,-0.11188934743404388
1772786489864522800,3.031522705078125,-0.19282960891723633,0.2576275169849396,0.13509009778499603
1772786489874538800,3.041538818359375,-0.19168177247047424,0.11151929944753647,0.3758161664009094
1772786489884554800,3.0515546875,-0.17753826081752777,0.029375474900007248,0.534699559211731
1772786489894570500,3.061570556640625,-0.15960054099559784,0.005567080806940794,0.6105126142501831
1772786489904586500,3.07158642578125,-0.1669989824295044,-0.03589636832475662,0.6332780122756958
1772786489914602500,3.0816025390625,-0.20405499637126923,-0.08362633734941483,0.6358668804168701
1772786489924618500,3.091618408203125,-0.30310890078544617,-0.05819786339998245,0.6333496570587158
1772786489934634800,3.101634765625,-0.4550968408584595,-0.051052603870630264,0.6314836144447327
1772786489944650800,3.111650634765625,-0.5918262600898743,-0.14123067259788513,0.6279058456420898
1772786489954666500,3.12166650390625,-0.6697266101837158,-0.30039849877357483,0.6019197702407837
1772786489964681700,3.131681640625,-0.6657068729400635,-0.41092967987060547,0.5189980268478394
1772786489974697500,3.141697509765625,-0.6070675253868103,-0.4772636890411377,0.4203260540962219
1772786489984713500,3.15171337890625,-0.5411453247070312,-0.4884214401245117,0.32541725039482117
1772786489994729500,3.1617294921875,-0.496366411447525,-0.46437761187553406,0.21992094814777374
1772786490004745500,3.171745361328125,-0.4603632986545563,-0.4365856647491455,0.10125965625047684
1772786490014761700,3.18176171875,-0.4189130663871765,-0.3975977897644043,-0.02599123865365982
1772786490024777700,3.19177783203125,-0.36333420872688293,-0.36410874128341675,-0.15852448344230652
1772786490034793700,3.201793701171875,-0.28622743487358093,-0.3295997679233551,-0.28120189905166626
1772786490044809500,3.2118095703125,-0.19346755743026733,-0.28383469581604004,-0.3935358226299286
1772786490054824700,3.22182470703125,-0.09094357490539551,-0.20955274999141693,-0.5002923607826233
1772786490064840400,3.23184033203125,0.016050226986408234,-0.13819190859794617,-0.5898289680480957
1772786490074856400,3.2418564453125,0.1352543830871582,-0.10025704652070999,-0.6579896211624146
1772786490084872400,3.25187255859375,0.2601986229419708,-0.11074339598417282,-0.7121026515960693
1772786490094888700,3.261888671875,0.3639173209667206,-0.13958010077476501,-0.7555635571479797
1772786490104904700,3.27190478515625,0.4120391607284546,-0.22562070190906525,-0.7734403014183044
1772786490114920700,3.281920654296875,0.4083208441734314,-0.35046038031578064,-0.7649927139282227
1772786490124936700,3.291936767578125,0.39486968517303467,-0.42778345942497253,-0.7255359292030334
1772786490134952400,3.301952392578125,0.38023295998573303,-0.3980751037597656,-0.6438484787940979
1772786490144967700,3.3119677734375,0.34843483567237854,-0.30272284150123596,-0.5334537029266357
1772786490154983400,3.3219833984375,0.28444093465805054,-0.19544775784015656,-0.4256255030632019
1772786490164999400,3.33199951171875,0.19838030636310577,-0.0678870901465416,-0.35073649883270264
1772786490175015700,3.342015625,0.11663351207971573,0.017070945352315903,-0.30205681920051575
1772786490185031700,3.35203173828125,0.055542949587106705,0.04466754570603371,-0.26184406876564026
1772786490195047700,3.362047607421875,0.00022084126248955727,0.06705088913440704,-0.222951278090477
1772786490205063700,3.372063720703125,-0.049456436187028885,0.08335475623607635,-0.17930099368095398
1772786490215079400,3.382079345703125,-0.10210073739290237,0.10337533801794052,-0.1325201690196991
1772786490225095400,3.392095458984375,-0.16209907829761505,0.14175617694854736,-0.07691384106874466
1772786490235111400,3.402111328125,-0.19924591481685638,0.171129509806633,-0.0708002895116806
1772786490245126400,3.41212646484375,-0.23346102237701416,0.2072921246290207,-0.08077989518642426
1772786490255142700,3.422142578125,-0.25166505575180054,0.2309204787015915,-0.08644337207078934
1772786490265158700,3.43215869140625,-0.23982620239257812,0.2451004534959793,-0.09769070148468018
1772786490275174700,3.442174560546875,-0.1979525089263916,0.23585635423660278,-0.1235654428601265
1772786490285190700,3.452190673828125,-0.1404634565114975,0.2259126901626587,-0.14225910604000092
1772786490295206700,3.46220654296875,-0.11326219886541367,0.22236482799053192,-0.16270126402378082
1772786490305222400,3.472222412109375,-0.11291679739952087,0.19963862001895905,-0.18809092044830322
1772786490315238400,3.48223828125,-0.12631170451641083,0.1361677646636963,-0.19911721348762512
1772786490325253400,3.49225341796875,-0.1517222374677658,0.055229417979717255,-0.17967382073402405
1772786490335269600,3.50226953125,-0.18761739134788513,0.03606824204325676,-0.13534577190876007
1772786490345285600,3.51228564453125,-0.23290850222110748,0.08819625526666641,-0.06997591257095337
1772786490355301600,3.522301513671875,-0.31038811802864075,0.17474286258220673,-0.0011174855753779411
1772786490365317600,3.532317626953125,-0.4384423494338989,0.1982574611902237,0.07764308154582977
1772786490375333600,3.542333740234375,-0.6121832132339478,0.17141999304294586,0.1415909230709076
1772786490385349600,3.552349609375,-0.7960731387138367,0.11072728037834167,0.19532547891139984
1772786490395365400,3.562365478515625,-0.9562066197395325,0.0733996108174324,0.26137322187423706
1772786490405381600,3.572381591796875,-1.0932013988494873,0.07783118635416031,0.3350761830806732
1772786490415397600,3.582397705078125,-1.2006354331970215,0.09996125102043152,0.4062071144580841
1772786490425412600,3.59241259765625,-1.2819422483444214,0.13628096878528595,0.4685181975364685
1772786490435428600,3.6024287109375,-1.3632283210754395,0.17026770114898682,0.4971834123134613
1772786490445444600,3.612444580078125,-1.4467418193817139,0.2251824289560318,0.4810068607330322
1772786490455460600,3.622460693359375,-1.4938762187957764,0.30633026361465454,0.45241835713386536
1772786490465476600,3.6324765625,-1.4988776445388794,0.3873981237411499,0.45363882184028625
1772786490475492400,3.642492431640625,-1.4607027769088745,0.42302295565605164,0.4746229350566864
1772786490485508600,3.652508544921875,-1.3859127759933472,0.41751155257225037,0.5241209268569946
1772786490495524600,3.662524658203125,-1.2901169061660767,0.3685309588909149,0.5691555142402649
1772786490505540600,3.67254052734375,-1.1567875146865845,0.36533641815185547,0.5475258827209473
1772786490515555600,3.6825556640625,-1.0081379413604736,0.3837601840496063,0.4785683751106262
1772786490525571600,3.692571533203125,-0.8681058287620544,0.41205084323883057,0.39381444454193115
1772786490535587600,3.702587646484375,-0.7590049505233765,0.39972811937332153,0.3040509819984436
1772786490545603600,3.712603515625,-0.66267991065979,0.3087247312068939,0.2207258641719818
1772786490555619600,3.72261962890625,-0.5812265872955322,0.16624587774276733,0.17086589336395264
1772786490565635600,3.732635498046875,-0.5366501212120056,-0.024476537480950356,0.18699967861175537
1772786490575651600,3.742651611328125,-0.48435789346694946,-0.22410576045513153,0.27501609921455383
1772786490585667600,3.75266748046875,-0.38192400336265564,-0.3879043161869049,0.4029217064380646
1772786490595683600,3.76268359375,-0.233633354306221,-0.49764734506607056,0.5250457525253296
1772786490605698600,3.772698486328125,-0.0575936995446682,-0.5623186230659485,0.6048804521560669
1772786490615714600,3.782714599609375,0.11231677234172821,-0.5871430039405823,0.5930224061012268
1772786490625730600,3.79273046875,0.20242291688919067,-0.5323126912117004,0.44376540184020996
1772786490635746600,3.80274658203125,0.21231523156166077,-0.4068165421485901,0.16969308257102966
1772786490645762600,3.812762451171875,0.14526806771755219,-0.2542100250720978,-0.16363433003425598
1772786490655778600,3.822778564453125,0.015844831243157387,-0.05700242146849632,-0.48526135087013245
1772786490665794600,3.832794677734375,-0.14969952404499054,0.18368451297283173,-0.7618169188499451
1772786490675810600,3.842810546875,-0.32292884588241577,0.4102369546890259,-0.9887099862098694
1772786490685826600,3.85282666015625,-0.48492753505706787,0.5942407846450806,-1.112591028213501
1772786490695842600,3.862842529296875,-0.6365482211112976,0.7043017745018005,-1.095170497894287
1772786490705857500,3.872857421875,-0.7615598440170288,0.7453587651252747,-0.9434800148010254
1772786490715873500,3.88287353515625,-0.8681779503822327,0.6870938539505005,-0.7125772833824158
1772786490725889800,3.892889892578125,-0.9496928453445435,0.6051583886146545,-0.4325343072414398
1772786490735905500,3.902905517578125,-1.0107332468032837,0.5156586170196533,-0.13414599001407623
1772786490745921500,3.912921630859375,-1.0274205207824707,0.377134770154953,0.13963599503040314
1772786490755937500,3.9229375,-1.0067285299301147,0.19946303963661194,0.3385392427444458
1772786490765953500,3.93295361328125,-0.9587677717208862,0.026467271149158478,0.4653477668762207
1772786490775969500,3.942969482421875,-0.8976284861564636,-0.1088588610291481,0.5293813347816467
1772786490785985500,3.952985595703125,-0.8222761154174805,-0.19523820281028748,0.5147594213485718
1772786490796000500,3.96300048828125,-0.7534922957420349,-0.3043194115161896,0.45653870701789856
1772786490806016500,3.9730166015625,-0.7120882868766785,-0.418387234210968,0.3820488452911377
1772786490816032800,3.98303271484375,-0.6975769996643066,-0.5065138339996338,0.31731778383255005
1772786490826048500,3.993048583984375,-0.6866441965103149,-0.5610025525093079,0.26252517104148865
1772786490836064500,4.003064453125,-0.6690723896026611,-0.5854942798614502,0.21620243787765503
1772786490846080500,4.01308056640625,-0.6347485780715942,-0.6002120971679688,0.18036781251430511
1772786490856096500,4.023096435546875,-0.5895962715148926,-0.5964354872703552,0.16248787939548492
1772786490866112500,4.033112548828125,-0.5236348509788513,-0.5732062458992004,0.1677161455154419
1772786490876128500,4.04312841796875,-0.4267125725746155,-0.552256166934967,0.17246802151203156
1772786490886143500,4.0531435546875,-0.3495078384876251,-0.4980035126209259,0.17522308230400085
1772786490896159700,4.06315966796875,-0.2851232588291168,-0.4739690124988556,0.18376198410987854
1772786490906175500,4.073175537109375,-0.25965648889541626,-0.46181267499923706,0.17805778980255127
1772786490916191500,4.08319140625,-0.25350725650787354,-0.46463748812675476,0.16525916755199432
1772786490926207500,4.09320751953125,-0.2566310167312622,-0.481247216463089,0.1491352766752243
1772786490936223500,4.103223388671875,-0.2794977128505707,-0.4882388114929199,0.1456308215856552
1772786490946239500,4.113239501953125,-0.3196515440940857,-0.4625738561153412,0.1485452950000763
1772786490956255500,4.12325537109375,-0.3622405529022217,-0.4208887219429016,0.15542344748973846
1772786490966271700,4.133271728515625,-0.40592625737190247,-0.3821873664855957,0.16365568339824677
1772786490976286700,4.14328662109375,-0.46312031149864197,-0.3509168028831482,0.17224091291427612
1772786490986302700,4.153302734375,-0.5331763029098511,-0.3371633291244507,0.18376819789409637
1772786490996318500,4.163318359375,-0.6136127710342407,-0.3225998282432556,0.20146676898002625
1772786491006334500,4.17333447265625,-0.6888858079910278,-0.30235254764556885,0.21713843941688538
1772786491016350500,4.1833505859375,-0.7403463125228882,-0.28793153166770935,0.230205237865448
1772786491026366500,4.193366455078125,-0.7631388306617737,-0.277892529964447,0.24795252084732056
1772786491036382500,4.203382568359375,-0.7685865759849548,-0.27184954285621643,0.2816532254219055
1772786491046398700,4.213398681640625,-0.7614870071411133,-0.23015761375427246,0.3248712420463562
1772786491056414700,4.223414794921875,-0.7434150576591492,-0.10022810101509094,0.3329360783100128
1772786491066429700,4.2334296875,-0.7101465463638306,0.10338826477527618,0.2780071198940277
1772786491076445700,4.24344580078125,-0.7006521224975586,0.379353791475296,0.15490089356899261
1772786491086461400,4.25346142578125,-0.7245916724205017,0.7050825357437134,-0.060739707201719284
1772786491096477400,4.2634775390625,-0.7398659586906433,0.9943833351135254,-0.33598992228507996
1772786491106493400,4.273493408203125,-0.6572983264923096,1.1427991390228271,-0.4873802959918976
1772786491116509400,4.283509521484375,-0.5369807481765747,1.0642167329788208,-0.38561585545539856
1772786491126525700,4.293525634765625,-0.4180173873901367,0.8762102127075195,-0.09974086284637451
1772786491136541700,4.303541748046875,-0.3336007595062256,0.7358053922653198,0.2693732678890228
1772786491146557700,4.3135576171875,-0.30849534273147583,0.6391711235046387,0.6173029541969299
1772786491156573400,4.323573486328125,-0.3226308822631836,0.5292227864265442,0.8305252194404602
1772786491166588700,4.333588623046875,-0.3453287184238434,0.49633410573005676,0.8833122849464417
1772786491176604400,4.3436044921875,-0.3914778530597687,0.492805153131485,0.8141925930976868
1772786491186620400,4.353620361328125,-0.517121434211731,0.43574994802474976,0.6588333249092102
1772786491196636400,4.363636474609375,-0.702876091003418,0.3148171305656433,0.4441510736942291
1772786491206652700,4.373652587890625,-0.9680401086807251,0.1728983223438263,0.21752962470054626
1772786491216668700,4.383668701171875,-1.1228773593902588,0.07651238888502121,0.03249877691268921
1772786491226684700,4.3936845703125,-1.1342030763626099,-0.027883626520633698,-0.06561386585235596
1772786491236700400,4.403700439453125,-1.0817023515701294,-0.16543082892894745,-0.09492142498493195
1772786491246716400,4.41371630859375,-1.0306506156921387,-0.28904661536216736,-0.06990039348602295
1772786491256731400,4.4237314453125,-0.9997472167015076,-0.38620856404304504,0.00014180876314640045
1772786491266747400,4.433747314453125,-0.9847941994667053,-0.4430285692214966,0.10484739392995834
1772786491276763400,4.443763427734375,-0.9737750887870789,-0.42138025164604187,0.22828303277492523
1772786491286779600,4.453779541015625,-0.960437536239624,-0.36972543597221375,0.3200496733188629
1772786491296795600,4.463795654296875,-0.9390558004379272,-0.3217001259326935,0.34846585988998413
1772786491306811600,4.473811767578125,-0.9165719747543335,-0.2591852843761444,0.29508960247039795
1772786491316827600,4.48382763671875,-0.8805814981460571,-0.19495412707328796,0.1770804077386856
1772786491326843400,4.493843505859375,-0.828851044178009,-0.12435123324394226,0.03202340379357338
1772786491336859400,4.503859375,-0.7742032408714294,-0.025040095672011375,-0.1003253161907196
1772786491346874400,4.513874267578125,-0.725216269493103,0.07064748555421829,-0.19472016394138336
1772786491356890400,4.523890380859375,-0.6664280295372009,0.12344944477081299,-0.2558346390724182
1772786491366906600,4.53390673828125,-0.6087091565132141,0.13801097869873047,-0.2796453535556793
1772786491376922600,4.543922607421875,-0.611041784286499,0.124907948076725,-0.29541659355163574
1772786491386938600,4.553938720703125,-0.6318864822387695,0.08662775903940201,-0.3213288486003876
1772786491396954600,4.56395458984375,-0.673918604850769,0.04005386307835579,-0.33975180983543396
1772786491406970600,4.573970703125,-0.7537618279457092,0.008012169972062111,-0.3404933214187622
1772786491416986400,4.583986328125,-0.851885199546814,-0.011091483756899834,-0.33544743061065674
1772786491427002400,4.59400244140625,-0.938312828540802,-0.013203376904129982,-0.3378928601741791
1772786491437018600,4.6040185546875,-1.0125082731246948,-0.016871348023414612,-0.356873482465744
1772786491447033600,4.61403369140625,-1.0881398916244507,-0.046491432934999466,-0.3720318675041199
1772786491457049600,4.624049560546875,-1.1577852964401245,-0.06226959824562073,-0.35911181569099426
1772786491467065600,4.634065673828125,-1.2129818201065063,-0.0670713409781456,-0.33239805698394775
1772786491477081600,4.64408154296875,-1.2537275552749634,-0.1135466992855072,-0.32199016213417053
1772786491487097600,4.65409765625,-1.2741858959197998,-0.1830938756465912,-0.31079334020614624
1772786491497113300,4.66411328125,-1.289198398590088,-0.18969745934009552,-0.27389734983444214
1772786491507129300,4.67412939453125,-1.3030319213867188,-0.16985972225666046,-0.22015872597694397
1772786491517145600,4.6841455078125,-1.3345003128051758,-0.14492826163768768,-0.1549123376607895
1772786491527161600,4.69416162109375,-1.414494514465332,-0.13998106122016907,-0.08697275817394257
1772786491537176600,4.704176513671875,-1.4900065660476685,-0.12097861617803574,-0.0386052243411541
1772786491547192600,4.714192626953125,-1.5456725358963013,-0.09041865915060043,-0.027522023767232895
1772786491557208600,4.72420849609375,-1.5890854597091675,-0.04101010411977768,-0.04042823240160942
1772786491567224600,4.734224609375,-1.6415544748306274,0.002067502122372389,-0.06772685050964355
1772786491577240600,4.744240478515625,-1.698607325553894,0.021848130971193314,-0.08809684216976166
1772786491587256300,4.75425634765625,-1.7409402132034302,0.013064485974609852,-0.08393087238073349
1772786491597272600,4.7642724609375,-1.7800004482269287,-0.009559066966176033,-0.056219883263111115
1772786491607288600,4.77428857421875,-1.8133624792099,-0.050178006291389465,-0.0008463005069643259
1772786491617304600,4.7843046875,-1.8479050397872925,-0.08151169121265411,0.07301114499568939
1772786491627319600,4.794319580078125,-1.8910243511199951,-0.11224257946014404,0.1448553055524826
1772786491637335600,4.80433544921875,-1.9338042736053467,-0.1260039210319519,0.201701819896698
1772786491647351600,4.8143515625,-1.9554461240768433,-0.1060793474316597,0.24324345588684082
1772786491657367600,4.824367431640625,-1.9389092922210693,-0.0530073381960392,0.2690843641757965
1772786491667383600,4.834383544921875,-1.8895677328109741,0.02338968962430954,0.27276766300201416
1772786491677399600,4.844399658203125,-1.8288911581039429,0.10400091856718063,0.24084089696407318
1772786491687415600,4.85441552734375,-1.7573896646499634,0.16950760781764984,0.16888047754764557
1772786491697431600,4.864431640625,-1.6928058862686157,0.2034730315208435,0.08660637587308884
1772786491707447600,4.874447509765625,-1.634695053100586,0.2564511001110077,0.022051654756069183
1772786491717462500,4.884462646484375,-1.5812398195266724,0.3422195315361023,-0.027401914820075035
1772786491727478500,4.894478515625,-1.5346146821975708,0.40933966636657715,-0.06347353756427765
1772786491737494500,4.90449462890625,-1.502447485923767,0.4519904553890228,-0.08381582796573639
1772786491747510500,4.914510498046875,-1.4923853874206543,0.4840075969696045,-0.08804459869861603
1772786491757526500,4.924526611328125,-1.4899473190307617,0.505408525466919,-0.08517078310251236
1772786491767542500,4.93454248046875,-1.5010950565338135,0.5077106952667236,-0.08447602391242981
1772786491777558500,4.94455859375,-1.4980140924453735,0.4875319302082062,-0.09224633127450943
1772786491787574500,4.954574462890625,-1.4733833074569702,0.44744357466697693,-0.08472826331853867
1772786491797590500,4.964590576171875,-1.4482403993606567,0.38503000140190125,-0.038215357810258865
1772786491807605500,4.97460546875,-1.4197279214859009,0.3086894452571869,0.036935605108737946
1772786491817621500,4.98462158203125,-1.3928507566452026,0.20162583887577057,0.1325092762708664
1772786491827637500,4.994637451171875,-1.385250449180603,0.09069398790597916,0.23222388327121735
1772786491837653500,5.004653564453125,-1.4046597480773926,-0.007316193077713251,0.3150540590286255
1772786491847669200,5.014669189453125,-1.4592936038970947,-0.10405998677015305,0.3551417291164398
1772786491857685200,5.024685302734375,-1.5566898584365845,-0.1807403713464737,0.3628113567829132
1772786491867701500,5.034701416015625,-1.6684439182281494,-0.22442080080509186,0.3597048819065094
1772786491877717500,5.044717529296875,-1.771539330482483,-0.22418750822544098,0.35452741384506226
1772786491887733500,5.0547333984375,-1.8570349216461182,-0.22139069437980652,0.3321753740310669
1772786491897748500,5.06474853515625,-1.9349091053009033,-0.21193727850914001,0.2849423289299011
1772786491907764500,5.074764404296875,-1.989830732345581,-0.1875106394290924,0.1866869330406189
1772786491917780500,5.084780517578125,-2.0203399658203125,-0.12841561436653137,0.055506281554698944
1772786491927796500,5.09479638671875,-2.0355000495910645,-0.03155927360057831,-0.04849928990006447
1772786491937812200,5.104812255859375,-2.039243698120117,0.10616876184940338,-0.07357534766197205
1772786491947828500,5.114828369140625,-2.0101637840270996,0.23004738986492157,0.00456183822825551
1772786491957844500,5.124844482421875,-1.9437603950500488,0.28943905234336853,0.1608092337846756
1772786491967860500,5.134860595703125,-1.8568265438079834,0.3152030110359192,0.3194896876811981
1772786491977876500,5.14487646484375,-1.768540382385254,0.3197202682495117,0.41663819551467896
1772786491987891500,5.154891357421875,-1.7005345821380615,0.30486106872558594,0.43468961119651794
1772786491997907500,5.164907470703125,-1.6583764553070068,0.2733367085456848,0.40003734827041626
1772786492007923500,5.17492333984375,-1.634691834449768,0.2152843177318573,0.33817237615585327
1772786492017939500,5.184939453125,-1.5994230508804321,0.11582271009683609,0.26873233914375305
1772786492027955500,5.19495556640625,-1.5438896417617798,-0.03499013930559158,0.20971019566059113
1772786492037971500,5.204971435546875,-1.4759013652801514,-0.23228217661380768,0.1812005192041397
1772786492047987500,5.214987548828125,-1.4056785106658936,-0.43886011838912964,0.18997563421726227
1772786492058003500,5.22500341796875,-1.3149685859680176,-0.6091977953910828,0.21968506276607513
1772786492068019500,5.23501953125,-1.2234687805175781,-0.6901898384094238,0.23298755288124084
1772786492078034400,5.245034423828125,-1.1528077125549316,-0.677707850933075,0.1973874866962433
1772786492088050400,5.255050537109375,-1.1288551092147827,-0.5876659750938416,0.09750142693519592
1772786492098066400,5.26506640625,-1.1521772146224976,-0.4413233995437622,-0.06251993775367737
1772786492108082200,5.275082275390625,-1.2140533924102783,-0.3028641939163208,-0.23590457439422607
1772786492118098400,5.285098388671875,-1.3256853818893433,-0.13216330111026764,-0.3861156702041626
1772786492128114400,5.295114501953125,-1.4839472770690918,0.06051109731197357,-0.5082613825798035
1772786492138130400,5.30513037109375,-1.685286283493042,0.2652812898159027,-0.6114399433135986
1772786492148146400,5.315146484375,-1.9032396078109741,0.4687332808971405,-0.6678334474563599
1772786492158162400,5.325162353515625,-2.1140732765197754,0.626837968826294,-0.6553844809532166
1772786492168177400,5.335177490234375,-2.292880058288574,0.6948019862174988,-0.5683364272117615
1772786492178193400,5.345193359375,-2.396432399749756,0.6820781826972961,-0.416277140378952
1772786492188209400,5.35520947265625,-2.4252703189849854,0.670051634311676,-0.23551644384860992
1772786492198225400,5.365225341796875,-2.3861491680145264,0.6538111567497253,-0.08140197396278381
1772786492208241400,5.375241455078125,-2.2792911529541016,0.6083471775054932,0.019985327497124672
1772786492218257400,5.38525732421875,-2.107515811920166,0.5556277632713318,0.05830901488661766
1772786492228273400,5.3952734375,-1.8891446590423584,0.49320265650749207,0.04569000378251076
1772786492238289400,5.405289306640625,-1.6584550142288208,0.4162178635597229,0.010365036316215992
1772786492248305400,5.415305419921875,-1.4521965980529785,0.34162968397140503,-0.035963576287031174
1772786492258320400,5.4253203125,-1.2937614917755127,0.2599603831768036,-0.08335985243320465
1772786492268336400,5.43533642578125,-1.1724742650985718,0.17061126232147217,-0.11858005076646805
1772786492278352400,5.445352294921875,-1.0860613584518433,0.08834061771631241,-0.13597634434700012
1772786492288368400,5.455368408203125,-1.0382709503173828,0.03192737326025963,-0.11380129307508469
1772786492298384400,5.46538427734375,-1.0068435668945312,0.017218466848134995,-0.04983562231063843
1772786492308400400,5.475400390625,-1.0006532669067383,0.02618533931672573,0.03370146080851555
1772786492318416400,5.48541650390625,-1.0140851736068726,0.025015413761138916,0.10357162356376648
1772786492328432400,5.495432373046875,-1.050965666770935,0.01258249394595623,0.1355527639389038
1772786492338448600,5.50544873046875,-1.113478660583496,0.0000307492446154356,0.12309689074754715
1772786492348463400,5.51546337890625,-1.173518419265747,0.0042887162417173386,0.085667684674263
1772786492358479600,5.525479736328125,-1.2133995294570923,0.015222057700157166,0.051340069621801376
1772786492368495400,5.535495361328125,-1.2116373777389526,0.05499345436692238,0.04172512888908386
1772786492378511400,5.545511474609375,-1.2050566673278809,0.09655874222517014,0.07893135398626328
1772786492388527400,5.55552734375,-1.197704792022705,0.09632766991853714,0.1484295278787613
1772786492398543400,5.56554345703125,-1.1731358766555786,0.06954212486743927,0.22496318817138672
1772786492408559400,5.575559326171875,-1.1261882781982422,0.023039836436510086,0.28988519310951233
1772786492418575600,5.58557568359375,-1.0607192516326904,-0.023098096251487732,0.33273011445999146
1772786492428591600,5.595591552734375,-1.00508451461792,-0.07040201127529144,0.3451180160045624
1772786492438606600,5.605606689453125,-0.9330429434776306,-0.12320104241371155,0.32773318886756897
1772786492448622600,5.61562255859375,-0.8495235443115234,-0.17102715373039246,0.3082846403121948
1772786492458638300,5.625638427734375,-0.7786616683006287,-0.19694183766841888,0.28324294090270996
1772786492468654300,5.635654296875,-0.72480309009552,-0.18402263522148132,0.2518320083618164
1772786492478670300,5.64567041015625,-0.680565595626831,-0.1349317878484726,0.20656466484069824
1772786492488686300,5.655686279296875,-0.6484063267707825,-0.08106129616498947,0.15508273243904114
1772786492498702600,5.66570263671875,-0.6382517218589783,-0.01853400096297264,0.10757061094045639
1772786492508718600,5.675718505859375,-0.642116904258728,0.012290295213460922,0.060342296957969666
1772786492518734300,5.685734375,-0.6795516014099121,0.05433734506368637,0.06122753024101257
1772786492528749600,5.69574951171875,-0.7296094298362732,0.05028931424021721,0.07401958853006363
1772786492538765300,5.705765380859375,-0.7402482628822327,-0.021712176501750946,0.09170936793088913
1772786492548781300,5.71578125,-0.7542267441749573,-0.07088703662157059,0.13885605335235596
1772786492558797300,5.72579736328125,-0.7836434841156006,-0.1332438886165619,0.21784621477127075
1772786492568813300,5.735813232421875,-0.7926772832870483,-0.26997148990631104,0.27810028195381165
1772786492578829600,5.74582958984375,-0.7745959758758545,-0.43619242310523987,0.3349984586238861
1772786492588845600,5.755845458984375,-0.7551221251487732,-0.5974940657615662,0.4005648195743561
1772786492598861600,5.765861572265625,-0.7389663457870483,-0.6748961806297302,0.46760404109954834
1772786492608877300,5.775877197265625,-0.720315158367157,-0.6398133039474487,0.5302497744560242
1772786492618892500,5.785892578125,-0.7217093110084534,-0.5021127462387085,0.5484005808830261
1772786492628908300,5.795908203125,-0.7598282694816589,-0.29446902871131897,0.38424915075302124
1772786492638924300,5.80592431640625,-0.711403489112854,-0.028999561443924904,0.05062617361545563
1772786492648940300,5.815940185546875,-0.5562968254089355,0.12732583284378052,-0.2778290808200836
1772786492658956500,5.82595654296875,-0.33251407742500305,0.00035217683762311935,-0.4345691502094269
1772786492668972500,5.83597265625,-0.16480562090873718,-0.21872372925281525,-0.318250447511673
1772786492678988500,5.845988525390625,-0.0485658273100853,-0.27270734310150146,-0.02232343889772892
1772786492689004500,5.856004638671875,0.014644700102508068,-0.27792230248451233,0.36124807596206665
1772786492699020300,5.866020263671875,-0.026338420808315277,-0.3568136692047119,0.6954764127731323
1772786492709035500,5.876035400390625,-0.15257972478866577,-0.4411666691303253,0.8807281255722046
1772786492719051300,5.88605126953125,-0.3363599479198456,-0.4865541160106659,0.9378926157951355
1772786492729067300,5.8960673828125,-0.5274198055267334,-0.46319514513015747,0.9113697409629822
1772786492739083500,5.90608349609375,-0.6868762969970703,-0.4593013525009155,0.8086196780204773
1772786492749099500,5.916099609375,-0.7649465203285217,-0.5217311382293701,0.6600570678710938
1772786492759115500,5.926115478515625,-0.7624726891517639,-0.5987092852592468,0.520095944404602
1772786492769131500,5.936131591796875,-0.7167978882789612,-0.6553720831871033,0.43183955550193787
1772786492779147300,5.946147216796875,-0.6438493728637695,-0.6918816566467285,0.3793582320213318
1772786492789164000,5.9561640625,-0.553386390209198,-0.7250696420669556,0.35195019841194153
1772786492799179000,5.966178955078125,-0.4538781940937042,-0.7417021989822388,0.3268387019634247
1772786492809195000,5.976195068359375,-0.3328082263469696,-0.7412401437759399,0.2891758978366852
1772786492819211000,5.9862109375,-0.20482657849788666,-0.6782404184341431,0.23110966384410858
1772786492829227000,5.99622705078125,-0.09144261479377747,-0.5352962613105774,0.12724080681800842
1772786492839243000,6.006242919921875,0.0061497255228459835,-0.34777963161468506,-0.03284260258078575
1772786492849259300,6.01625927734375,0.0706753060221672,-0.1697172373533249,-0.21073459088802338
1772786492859275000,6.02627490234375,0.1064671203494072,-0.01668933406472206,-0.3703708350658417
1772786492869291000,6.036291015625,0.12376545369625092,0.11421214044094086,-0.4748650789260864
1772786492879307000,6.04630712890625,0.13206467032432556,0.23295371234416962,-0.5281605124473572
1772786492889322000,6.056322021484375,0.13153749704360962,0.3226231038570404,-0.5672550797462463
1772786492899338000,6.066337890625,0.15814274549484253,0.391954243183136,-0.5966843366622925
1772786492909354000,6.07635400390625,0.20602139830589294,0.44604480266571045,-0.5967754125595093
1772786492919370000,6.086369873046875,0.2565370500087738,0.42555710673332214,-0.5494071245193481
1772786492929386200,6.09638623046875,0.20027001202106476,0.34175512194633484,-0.466537743806839
1772786492939402000,6.106402099609375,0.05902847647666931,0.28132373094558716,-0.41321220993995667
1772786492949418000,6.11641796875,-0.12532946467399597,0.25251781940460205,-0.399433434009552
1772786492959434000,6.12643408203125,-0.31259045004844666,0.2405623495578766,-0.40695154666900635
1772786492969449000,6.136448974609375,-0.4572465121746063,0.22743871808052063,-0.4056369662284851
1772786492979465000,6.14646484375,-0.56528639793396,0.19695857167243958,-0.3873993754386902
1772786492989481000,6.15648095703125,-0.6494826674461365,0.09722800552845001,-0.3467479348182678
1772786492999497000,6.1664970703125,-0.7091084718704224,0.016092676669359207,-0.3010576665401459
1772786493009513200,6.17651318359375,-0.7476138472557068,-0.03602173179388046,-0.263952374458313
1772786493019529200,6.186529296875,-0.771811842918396,-0.035491228103637695,-0.2366882711648941
1772786493029545000,6.196544921875,-0.7873581647872925,0.039074577391147614,-0.22669506072998047
1772786493039561000,6.20656103515625,-0.7980363965034485,0.1284947395324707,-0.24104975163936615
1772786493049577000,6.216576904296875,-0.817834734916687,0.18766139447689056,-0.2656421959400177
1772786493059592000,6.226592041015625,-0.8402343392372131,0.23863615095615387,-0.29767894744873047
1772786493069608000,6.23660791015625,-0.8627135753631592,0.26937177777290344,-0.3349470794200897
1772786493079624000,6.2466240234375,-0.8836913108825684,0.28764933347702026,-0.3635803163051605
1772786493089640200,6.25664013671875,-0.900963306427002,0.3168860375881195,-0.3694954216480255
1772786493099656200,6.26665625,-0.9093219041824341,0.3277522623538971,-0.35332685708999634
1772786493109672200,6.276672119140625,-0.9205145835876465,0.3192896544933319,-0.3098008930683136
1772786493119688000,6.28668798828125,-0.9367939829826355,0.29865601658821106,-0.25052931904792786
1772786493129704000,6.296703857421875,-0.9410274028778076,0.28327882289886475,-0.18081898987293243
1772786493139720000,6.306719970703125,-0.9176240563392639,0.2633623480796814,-0.09156448394060135
1772786493149735000,6.31673486328125,-0.8883882761001587,0.2515854835510254,0.007762044668197632
1772786493159751000,6.3267509765625,-0.8584505915641785,0.2516065239906311,0.06219999119639397
1772786493169767200,6.33676708984375,-0.839246392250061,0.2451789528131485,0.07303664088249207
1772786493179783200,6.346783203125,-0.8275971412658691,0.23729172348976135,0.06664425134658813
1772786493189799200,6.356799072265625,-0.8305562734603882,0.249995157122612,0.0455988273024559
1772786493199815000,6.36681494140625,-0.8443218469619751,0.2697068154811859,0.008032280020415783
1772786493209831000,6.376830810546875,-0.8765701055526733,0.2800207734107971,-0.04926080256700516
1772786493219847000,6.386846923828125,-0.945769190788269,0.28850480914115906,-0.12056107819080353
1772786493229863000,6.39686279296875,-1.0501092672348022,0.2903660535812378,-0.19375422596931458
1772786493239878000,6.4068779296875,-1.1683733463287354,0.27127596735954285,-0.24382111430168152
1772786493249894100,6.41689404296875,-1.2723997831344604,0.22947371006011963,-0.2480982542037964
1772786493259910100,6.42691015625,-1.3544999361038208,0.16935817897319794,-0.19848810136318207
1772786493269926100,6.436926025390625,-1.3969794511795044,0.11966338753700256,-0.07618679851293564
1772786493279942100,6.446942138671875,-1.4242534637451172,0.07579819113016129,0.06722389161586761
1772786493289958000,6.4569580078125,-1.454991340637207,0.00971086323261261,0.12048874795436859
1772786493299974000,6.466973876953125,-1.4758111238479614,0.030385514721274376,0.07725685089826584
1772786493309990000,6.476989990234375,-1.4551321268081665,0.19645607471466064,-0.008652139455080032
1772786493320006100,6.487006103515625,-1.4076037406921387,0.4179152250289917,-0.08408191055059433
1772786493330021000,6.497021240234375,-1.3708442449569702,0.5798348188400269,-0.13525311648845673
1772786493340037000,6.507037109375,-1.3559507131576538,0.6548742055892944,-0.15759918093681335
1772786493350053000,6.51705322265625,-1.3452280759811401,0.6852922439575195,-0.14965201914310455
1772786493360069000,6.527069091796875,-1.3106780052185059,0.6952412724494934,-0.1419118195772171
1772786493370085000,6.537085205078125,-1.2344105243682861,0.6788102388381958,-0.15267080068588257
1772786493380100900,6.547100830078125,-1.112999439239502,0.6017359495162964,-0.15917690098285675
1772786493390116900,6.557116943359375,-0.9575647711753845,0.5127132534980774,-0.13852697610855103
1772786493400133000,6.567133056640625,-0.771779477596283,0.43003302812576294,-0.0919157937169075
1772786493410148000,6.577148193359375,-0.5781474113464355,0.3660065531730652,-0.017645329236984253
1772786493420164000,6.5871640625,-0.4062483310699463,0.2871253192424774,0.08586481958627701
1772786493430180000,6.59718017578125,-0.3513084650039673,0.23157145082950592,0.1686214655637741
1772786493440196000,6.607196044921875,-0.434904009103775,0.19956716895103455,0.14632867276668549
1772786493450212000,6.617212158203125,-0.5929102301597595,0.20721344649791718,0.03330278769135475
1772786493460227800,6.627227783203125,-0.7674223780632019,0.26328206062316895,-0.12313049286603928
1772786493470243800,6.637243896484375,-0.953120231628418,0.3642408847808838,-0.2812432646751404
1772786493480260000,6.647260009765625,-1.1219524145126343,0.46565645933151245,-0.42406222224235535
1772786493490276000,6.657276123046875,-1.2170065641403198,0.4994663894176483,-0.5220201015472412
1772786493500291000,6.667291015625,-1.2464454174041748,0.48487547039985657,-0.5560821890830994
1772786493510307000,6.67730712890625,-1.2325025796890259,0.4311290383338928,-0.5314984321594238
1772786493520323000,6.687322998046875,-1.1831903457641602,0.3283235728740692,-0.4707336127758026
1772786493530339000,6.697339111328125,-1.1051700115203857,0.23931556940078735,-0.383347749710083
1772786493540355000,6.70735498046875,-1.0155898332595825,0.141687273979187,-0.2387295812368393
1772786493550370800,6.717370849609375,-0.9292449355125427,0.097687728703022,-0.02009597048163414
1772786493560387000,6.727386962890625,-0.8583475947380066,0.11044613271951675,0.21903644502162933
1772786493570403000,6.737403076171875,-0.7961637377738953,0.07580246031284332,0.3930606245994568
1772786493580419000,6.747419189453125,-0.7252892851829529,-0.005178942810744047,0.4646836519241333
1772786493590434000,6.75743408203125,-0.6595678925514221,-0.07326022535562515,0.4684925079345703
1772786493600450000,6.767449951171875,-0.6132834553718567,-0.13276934623718262,0.4469917416572571
1772786493610466000,6.777466064453125,-0.5817684531211853,-0.1808667629957199,0.4142751097679138
1772786493620482000,6.78748193359375,-0.5550481677055359,-0.25147539377212524,0.3764398396015167
1772786493630498000,6.797498046875,-0.5086034536361694,-0.32416871190071106,0.3488342761993408
1772786493640514000,6.80751416015625,-0.45788565278053284,-0.3539670705795288,0.32728371024131775
1772786493650530000,6.817530029296875,-0.40853238105773926,-0.34642791748046875,0.3266429007053375
1772786493660546000,6.827546142578125,-0.37526097893714905,-0.34198176860809326,0.3540167510509491
1772786493670562000,6.83756201171875,-0.3726608455181122,-0.3417084217071533,0.41080620884895325
1772786493680577000,6.847576904296875,-0.3957810699939728,-0.32141461968421936,0.46672913432121277
1772786493690593000,6.857593017578125,-0.4106406271457672,-0.30628377199172974,0.4878801107406616
1772786493700609000,6.867609130859375,-0.3793522119522095,-0.279630571603775,0.4634823799133301
1772786493710625000,6.877625,-0.30919530987739563,-0.25860369205474854,0.3968648314476013
1772786493720641000,6.88764111328125,-0.19795775413513184,-0.29341039061546326,0.3121749758720398
1772786493730657000,6.897656982421875,-0.10346334427595139,-0.3403228521347046,0.24761229753494263
1772786493740673000,6.907673095703125,-0.05239137262105942,-0.3746848404407501,0.2087482511997223
1772786493750689000,6.91768896484375,-0.016882754862308502,-0.41521069407463074,0.16931430995464325
1772786493760704000,6.9277041015625,0.024663623422384262,-0.4507710933685303,0.14228934049606323
1772786493770720000,6.937719970703125,0.06089634820818901,-0.42300572991371155,0.1426912248134613
1772786493780736000,6.947736083984375,0.0902949795126915,-0.33454883098602295,0.16016235947608948
1772786493790751500,6.95775146484375,0.11264749616384506,-0.19978244602680206,0.1607634574174881
1772786493800767500,6.967767578125,0.11659377068281174,-0.041353918612003326,0.1351499706506729
1772786493810783700,6.97778369140625,0.16441640257835388,0.1355314403772354,0.10171549767255783
1772786493820799500,6.987799560546875,0.24057401716709137,0.3394310176372528,0.09407435357570648
1772786493830815500,6.9978154296875,0.3127373456954956,0.5078620314598083,0.12085424363613129
1772786493840831500,7.00783154296875,0.39099380373954773,0.5953372716903687,0.14116430282592773
1772786493850846500,7.017846435546875,0.46075138449668884,0.5699630975723267,0.1215941309928894
1772786493860862500,7.027862548828125,0.5109197497367859,0.43212395906448364,0.0806722640991211
1772786493870878500,7.03787841796875,0.5128909945487976,0.22857007384300232,0.06519610434770584
1772786493880894500,7.04789453125,0.4633873403072357,-0.029811149463057518,0.09684058278799057
1772786493890910700,7.05791064453125,0.3774663507938385,-0.25907182693481445,0.2287793904542923
1772786493900926500,7.067926513671875,0.3001798391342163,-0.42846351861953735,0.4274775981903076
1772786493910942500,7.0779423828125,0.2505110204219818,-0.5391875505447388,0.6205403208732605
1772786493920958500,7.08795849609375,0.18902529776096344,-0.5081002116203308,0.7496192455291748
1772786493930974500,7.097974365234375,0.1199793741106987,-0.25352269411087036,0.6892459392547607
1772786493940989400,7.107989501953125,0.12875157594680786,0.2285456657409668,0.36884021759033203
1772786493951005400,7.11800537109375,0.27492308616638184,0.7878134846687317,0.005544831044971943
1772786493961021400,7.128021484375,0.403051495552063,1.0711445808410645,-0.17270426452159882
1772786493971037700,7.13803759765625,0.4168696701526642,1.0934723615646362,-0.2328483760356903
1772786493981053700,7.1480537109375,0.35350480675697327,0.976791262626648,-0.2383376806974411
1772786493991069400,7.1580693359375,0.309668630361557,0.7946889400482178,-0.2234542965888977
1772786494001085400,7.16808544921875,0.30732664465904236,0.5989670753479004,-0.2028755247592926
1772786494011101400,7.178101318359375,0.3669995069503784,0.37082964181900024,-0.13200965523719788
1772786494021116400,7.188116455078125,0.4924570322036743,0.16504158079624176,0.013764580711722374
1772786494031132400,7.19813232421875,0.6372008919715881,-0.025209940969944,0.2255486696958542
1772786494041148400,7.2081484375,0.6286196708679199,-0.18464167416095734,0.4262378215789795
1772786494051164700,7.21816455078125,0.4725165367126465,-0.2800029218196869,0.5205129981040955
1772786494061180700,7.2281806640625,0.32935830950737,-0.30008023977279663,0.49463212490081787
1772786494071196700,7.23819677734375,0.22450703382492065,-0.29558053612709045,0.40624386072158813
1772786494081212400,7.24821240234375,0.1340985745191574,-0.3003411889076233,0.3052687644958496
1772786494091228400,7.258228515625,0.05126163735985756,-0.3479370176792145,0.2171279340982437
1772786494101244400,7.268244384765625,-0.0009435126557946205,-0.43318721652030945,0.12907929718494415
1772786494111259400,7.27825927734375,-0.0005075754597783089,-0.5123200416564941,0.010660153813660145
1772786494121275400,7.288275390625,0.08141818642616272,-0.5642111897468567,-0.1440308839082718
1772786494131291600,7.298291748046875,0.20106644928455353,-0.6377853751182556,-0.3062518239021301
1772786494141307600,7.3083076171875,0.3198908269405365,-0.6714245676994324,-0.4429939389228821
1772786494151323600,7.31832373046875,0.42638662457466125,-0.6472142338752747,-0.537306010723114
1772786494161339600,7.328339599609375,0.5294477939605713,-0.5770663022994995,-0.5762704610824585
1772786494171355400,7.33835546875,0.6033931374549866,-0.5326254367828369,-0.5681179165840149
1772786494181371400,7.348371337890625,0.6314226388931274,-0.48402565717697144,-0.5410737991333008
1772786494191387600,7.3583876953125,0.627371072769165,-0.42217913269996643,-0.5284742116928101
1772786494201402400,7.36840234375,0.6185626983642578,-0.3799653649330139,-0.5051901936531067
1772786494211418600,7.378418701171875,0.6067351698875427,-0.3835259974002838,-0.4621783196926117
1772786494221434600,7.3884345703125,0.5800153613090515,-0.4118066430091858,-0.4107518792152405
1772786494231450600,7.39845068359375,0.5470157861709595,-0.44699451327323914,-0.3567953109741211
1772786494241466600,7.408466552734375,0.5193101763725281,-0.46153777837753296,-0.3202064335346222
1772786494251482400,7.418482421875,0.499620646238327,-0.43586522340774536,-0.31886035203933716
1772786494261498400,7.428498291015625,0.49437689781188965,-0.37475767731666565,-0.36042535305023193
1772786494271514600,7.4385146484375,0.48960840702056885,-0.3029496669769287,-0.43379446864128113
1772786494281529300,7.448529296875,0.4706365764141083,-0.22277997434139252,-0.5086939930915833
1772786494291545600,7.458545654296875,0.42717039585113525,-0.11043840646743774,-0.5639755725860596
1772786494301561600,7.4685615234375,0.35039305686950684,-0.007432130165398121,-0.6088000535964966
1772786494311577600,7.47857763671875,0.2491253912448883,0.07401516288518906,-0.6427013278007507
1772786494321593600,7.488593505859375,0.13236095011234283,0.1431201994419098,-0.665379524230957
1772786494331609600,7.498609619140625,0.012511220760643482,0.25033748149871826,-0.6753358840942383
1772786494341625300,7.508625244140625,-0.08170449733734131,0.3261803388595581,-0.6793561577796936
1772786494351641600,7.5186416015625,-0.12911587953567505,0.3595104515552521,-0.6653656959533691
1772786494361657600,7.52865771484375,-0.13646140694618225,0.34581702947616577,-0.616733193397522
1772786494371672600,7.538672607421875,-0.11321506649255753,0.2618839144706726,-0.5356472134590149
1772786494381688600,7.5486884765625,-0.07479337602853775,0.1504995971918106,-0.4326489269733429
1772786494391704600,7.55870458984375,-0.02346091717481613,0.06183825433254242,-0.3110879361629486
1772786494401720600,7.568720458984375,0.02299579605460167,0.018720611929893494,-0.18013951182365417
1772786494411736600,7.578736572265625,0.06047339364886284,-0.01914079673588276,-0.031957004219293594
1772786494421752600,7.588752685546875,0.09708493947982788,-0.061962030827999115,0.13111340999603271
1772786494431768600,7.5987685546875,0.11137714982032776,-0.11920417100191116,0.2832237780094147
1772786494441784600,7.60878466796875,0.08140726387500763,-0.1554790884256363,0.38056495785713196
1772786494451799600,7.618799560546875,0.0015776571817696095,-0.1389610469341278,0.3921419084072113
1772786494461815600,7.628815673828125,-0.1246471256017685,-0.08571247011423111,0.31749483942985535
1772786494471831600,7.63883154296875,-0.3167383670806885,-0.03529493510723114,0.1979285627603531
1772786494481847600,7.64884765625,-0.5567190051078796,0.012295752763748169,0.11587017774581909
1772786494491863600,7.658863525390625,-0.816940188407898,0.08545146882534027,0.09326619654893875
1772786494501879600,7.668879638671875,-1.049798607826233,0.1605113297700882,0.11977450549602509
1772786494511895600,7.6788955078125,-1.2362804412841797,0.22898240387439728,0.16429518163204193
1772786494521911600,7.68891162109375,-1.3653076887130737,0.30504360795021057,0.23327557742595673
1772786494531927600,7.698927490234375,-1.4741311073303223,0.352457731962204,0.32057905197143555
1772786494541942500,7.708942626953125,-1.5548410415649414,0.33963149785995483,0.3501073718070984
1772786494551958500,7.71895849609375,-1.5899882316589355,0.32986965775489807,0.33579573035240173
1772786494561974500,7.728974609375,-1.5885405540466309,0.3613322377204895,0.33797499537467957
1772786494571990500,7.738990478515625,-1.5693061351776123,0.445438414812088,0.34957772493362427
1772786494582006500,7.749006591796875,-1.5166312456130981,0.5169810056686401,0.32393789291381836
1772786494592022800,7.759022705078125,-1.4489721059799194,0.513180136680603,0.2787342965602875
1772786494602038500,7.76903857421875,-1.4091389179229736,0.48181259632110596,0.22504018247127533
1772786494612054500,7.779054443359375,-1.3867884874343872,0.47984442114830017,0.17816448211669922
1772786494622069500,7.789069580078125,-1.3639860153198242,0.5131206512451172,0.1588222086429596
1772786494632085500,7.79908544921875,-1.3204352855682373,0.5190892815589905,0.17956262826919556
1772786494642101500,7.8091015625,-1.2504172325134277,0.442238450050354,0.23338697850704193
1772786494652117500,7.819117431640625,-1.1415232419967651,0.3039013147354126,0.31444257497787476
1772786494662133500,7.829133544921875,-0.977011501789093,0.13192448019981384,0.4348851144313812
1772786494672149500,7.8391494140625,-0.7742185592651367,-0.036140039563179016,0.6033657789230347
1772786494682165500,7.84916552734375,-0.5659790635108948,-0.19332513213157654,0.7739614844322205
1772786494692181500,7.859181396484375,-0.3572014272212982,-0.3186388909816742,0.8880395889282227
1772786494702197500,7.869197509765625,-0.1793355643749237,-0.39162254333496094,0.8630945682525635
1772786494712212500,7.87921240234375,-0.07775356620550156,-0.3641315698623657,0.6445412635803223
1772786494722228500,7.889228515625,-0.05755561590194702,-0.2840085029602051,0.29614493250846863
1772786494732244500,7.899244384765625,-0.12243252247571945,-0.10464583337306976,-0.09814015030860901
1772786494742260500,7.909260498046875,-0.2268715798854828,0.10224210470914841,-0.42684081196784973
1772786494752276500,7.9192763671875,-0.3374234437942505,0.31342852115631104,-0.685968816280365
1772786494762292700,7.929292724609375,-0.45818662643432617,0.5149022340774536,-0.8767792582511902
1772786494772308500,7.93930859375,-0.5906400084495544,0.6747963428497314,-0.9545809626579285
1772786494782324500,7.949324462890625,-0.7318463921546936,0.7473235130310059,-0.8993116021156311
1772786494792341000,7.959341064453125,-0.8700248003005981,0.7448557019233704,-0.7538911700248718
1772786494802356000,7.96935595703125,-0.9949286580085754,0.7053894996643066,-0.5424196720123291
1772786494812372000,7.9793720703125,-1.1011229753494263,0.6964890360832214,-0.2674136757850647
1772786494822388000,7.989387939453125,-1.195368766784668,0.613063395023346,0.00934786256402731
1772786494832404200,7.999404296875,-1.2516084909439087,0.45296379923820496,0.21067611873149872
1772786494842420200,8.009420166015625,-1.2554080486297607,0.2872296869754791,0.31944891810417175
1772786494852436000,8.01943603515625,-1.1735512018203735,0.15460440516471863,0.33638960123062134
1772786494862452000,8.029451904296875,-1.0917742252349854,-0.07146760821342468,0.27997639775276184
1772786494872468000,8.039468017578125,-1.0317641496658325,-0.19700339436531067,0.21640917658805847
1772786494882483000,8.04948291015625,-0.9562685489654541,-0.2395995855331421,0.18277157843112946
1772786494892499000,8.0594990234375,-0.8471890687942505,-0.27034711837768555,0.1098688617348671
1772786494902515000,8.069514892578125,-0.743956983089447,-0.37204819917678833,-0.021554943174123764
1772786494912531200,8.07953125,-0.6505140066146851,-0.42444485425949097,-0.16645048558712006
1772786494922547200,8.089547119140626,-0.5633383989334106,-0.3851882517337799,-0.27757567167282104
1772786494932563000,8.09956298828125,-0.4840261936187744,-0.3444596230983734,-0.3368784785270691
1772786494942579000,8.109578857421875,-0.40256303548812866,-0.2589103579521179,-0.30746492743492126
1772786494952595000,8.119594970703124,-0.3334493339061737,-0.10240840911865234,-0.22341372072696686
1772786494962610000,8.12960986328125,-0.2616657018661499,-0.049261029809713364,-0.14392796158790588
1772786494972626000,8.1396259765625,-0.16843754053115845,-0.031083431094884872,-0.06605794280767441
1772786494982642000,8.149641845703124,-0.09591647237539291,-0.003758331760764122,-0.010455404408276081
1772786494992658200,8.159658203125,-0.07360322028398514,-0.004514104686677456,0.008389923721551895
1772786495002674200,8.169674072265625,-0.08752036839723587,-0.02814965695142746,0.027656296268105507
1772786495012690200,8.179690185546875,-0.11653550714254379,-0.06588798016309738,0.09364622831344604
1772786495022706000,8.189705810546876,-0.13468308746814728,-0.04687141627073288,0.20907509326934814
1772786495032722000,8.199721923828125,-0.12783010303974152,-0.046299610286951065,0.32157570123672485
1772786495042738000,8.209738037109375,-0.09551291912794113,-0.0823976919054985,0.35061851143836975
1772786495052753000,8.2197529296875,-0.0622539184987545,-0.15092375874519348,0.3045511245727539
1772786495062769000,8.229768798828125,-0.052161071449518204,-0.24583269655704498,0.2097359597682953
1772786495072785200,8.23978515625,0.008741872385144234,-0.2836855947971344,0.13923686742782593
1772786495082801200,8.24980126953125,0.09040158241987228,-0.39878982305526733,0.06708038598299026
1772786495092817200,8.259817138671876,0.15489894151687622,-0.5096947550773621,0.015079651027917862
1772786495102833200,8.269833251953125,0.2013828307390213,-0.44766438007354736,0.08962233364582062
1772786495112849000,8.279848876953125,0.17623798549175262,-0.33619874715805054,0.2612435221672058
1772786495122865000,8.289864990234374,0.13446950912475586,-0.2649243175983429,0.37814298272132874
1772786495132880000,8.2998798828125,0.09881958365440369,-0.29280439019203186,0.37339508533477783
1772786495142895900,8.309895751953125,0.08470083773136139,-0.3932356536388397,0.29765477776527405
1772786495152912100,8.319912109375,0.03948498144745827,-0.49089598655700684,0.26996082067489624
1772786495162928000,8.32992822265625,-0.012278348207473755,-0.54647296667099,0.314058780670166
1772786495172944100,8.339944091796875,-0.03836585581302643,-0.5637213587760925,0.40186190605163574
1772786495182960000,8.349960205078125,-0.022753341123461723,-0.47351980209350586,0.5208806991577148
1772786495192976000,8.359975830078126,-0.07473459839820862,-0.27256059646606445,0.61705082654953
1772786495202991900,8.369991943359375,-0.14124146103858948,0.07150197774171829,0.5453531742095947
1772786495213008000,8.3800078125,-0.13551996648311615,0.3302196264266968,0.19848421216011047
1772786495223022800,8.39002294921875,-0.18766146898269653,0.8109740018844604,-0.17205816507339478
1772786495233039000,8.4000390625,-0.27124446630477905,1.3018118143081665,-0.37776848673820496
1772786495243055000,8.41005517578125,-0.18855197727680206,1.4099862575531006,-0.3718557357788086
1772786495253071000,8.420071044921874,-0.06049865484237671,1.214124083518982,-0.2814897894859314
1772786495263087000,8.430087158203126,0.032543670386075974,0.9307676553726196,-0.1822044849395752
1772786495273103000,8.44010302734375,0.18225735425949097,0.7231048345565796,-0.08563190698623657
1772786495283118800,8.450118896484375,0.42033490538597107,0.5799189209938049,0.02206631936132908
1772786495293134800,8.460134765625,0.5805612206459045,0.41498324275016785,0.20181262493133545
1772786495303149800,8.47014990234375,0.5734476447105408,0.20004963874816895,0.38869383931159973
1772786495313166000,8.480166015625,0.4467517137527466,0.031839869916439056,0.5241776704788208
1772786495323182000,8.49018212890625,0.22813786566257477,-0.05206488445401192,0.5838484168052673
1772786495333198000,8.500197998046875,0.10468242317438126,-0.09884905815124512,0.5675403475761414
1772786495343214000,8.510214111328125,0.04806814715266228,-0.16159766912460327,0.4841279685497284
1772786495353230000,8.52022998046875,0.007362264674156904,-0.14953850209712982,0.3921280801296234
1772786495363246000,8.53024609375,-0.022096823900938034,-0.13869675993919373,0.29031676054000854
1772786495373261800,8.54026171875,-0.08008666336536407,-0.21130138635635376,0.2427021563053131
1772786495383278000,8.550278076171875,-0.09110789000988007,-0.2488117516040802,0.25647202134132385
1772786495393293000,8.56029296875,-0.013284181244671345,-0.20659036934375763,0.3348454535007477
1772786495403309000,8.57030908203125,0.08397552371025085,-0.20783913135528564,0.3415728509426117
1772786495413325000,8.580324951171875,0.15984100103378296,-0.2719773054122925,0.2399490773677826
1772786495423341000,8.590341064453124,0.21214868128299713,-0.26306822896003723,0.07845951616764069
1772786495433357000,8.600357177734375,0.2727758586406708,-0.2343144565820694,-0.10720506310462952
1772786495443373000,8.610373046875,0.3372315466403961,-0.20631718635559082,-0.2635810673236847
1772786495453389000,8.62038916015625,0.3726441264152527,-0.15237216651439667,-0.3749482333660126
1772786495463405000,8.630405029296876,0.4089539349079132,-0.1603430062532425,-0.44746848940849304
