time,seconds_elapsed,z,y,x
1772741645024706800,0.067706787109375,-0.48572132371664045,-0.2016624265620485,-0.07564421985335648
1772741645034721800,0.0777216796875,0.11490122142136096,-0.11245837658019736,0.1511469123441726
1772741645044737800,0.08773779296875,0.5847767412304878,-0.0653634661944583,0.2086523950472474
1772741645054752800,0.097752685546875,0.9397685752749443,-0.05677062908988446,0.24697803404927252
1772741645064768800,0.107768798828125,1.1022393571227789,-0.0431439077376388,0.363108724200353
1772741645074783700,0.11778369140625,1.0794646307349205,-0.040396052067913114,0.46863472596779465
1772741645084799700,0.1277998046875,0.8226070077061652,-0.08270855048270896,0.44808965832814573
1772741645094814700,0.137814697265625,0.36838732219040393,-0.15483161047259345,0.3643703416340053
1772741645104830700,0.147830810546875,-0.047131169009208676,-0.1629221971434541,0.21588293082267046
1772741645114845700,0.157845703125,-0.23841069671213624,-0.04731684604072943,0.12484525393918156
1772741645124861700,0.16786181640625,-0.17028700855672357,0.02037592161782086,0.13767996639721095
1772741645134876700,0.177876708984375,0.0023211364239454266,0.03305356208430603,0.1742398378357291
1772741645144893000,0.187892822265625,0.13947043001055717,0.050338732878863805,0.1988690329838544
1772741645154908000,0.197907958984375,0.14001052823662757,0.13312571889264507,0.21995843663327394
1772741645164924000,0.207923828125,0.07325462130308151,0.28831355892438437,0.2942981497593224
1772741645174939000,0.21793896484375,0.007679448586702347,0.4189571604114026,0.3845971371047199
1772741645184955000,0.227954833984375,-0.049209144327044485,0.3532680789917707,0.3534312336642295
1772741645194969900,0.237969970703125,-0.05604512782692909,0.05263301782850176,0.1573159563679248
1772741645204985900,0.24798583984375,-0.06126841543316841,-0.11307930322382598,0.0006976268753409385
1772741645215000800,0.258000732421875,-0.0390782109349966,-0.1632149512786418,-0.04024075190834701
1772741645225016800,0.268016845703125,0.030197569864988325,-0.16229752590646968,-0.016325111857056616
1772741645235031800,0.27803173828125,0.05307809471487999,-0.09885470730997621,0.01499196355715394
1772741645245047800,0.2880478515625,-0.019522446593642235,-0.03928582580368965,0.001541384223103523
1772741645255062800,0.298062744140625,-0.0733639268964529,-0.007378017954714596,-0.0018991846848279237
1772741645265078800,0.308078857421875,-0.12116203538179397,-0.020057722514122724,0.025294015732407568
1772741645275093800,0.31809375,-0.06663958707749844,-0.02646643877895549,0.03574943183846772
1772741645285109800,0.32810986328125,-0.0038473230779170987,-0.04411843359190971,0.05216003002189099
1772741645295124700,0.338124755859375,0.12703998750448225,0.019222258070670066,0.06330810456722974
1772741645305140700,0.348140625,0.29178806663453577,0.0011927899811416864,0.11669420578535646
1772741645315155700,0.35815576171875,0.3649643620043993,-0.07680794813679531,0.11835596498511732
1772741645325172000,0.368171875,0.15503040271401405,-0.07316639503035693,0.022715762742236256
1772741645335186700,0.378186767578125,-0.25251111825704575,0.025357856482546775,-0.0608639993507415
1772741645345203000,0.388202880859375,-0.4873568159639835,0.1868571446834132,-0.08499043260850012
1772741645355218000,0.398218017578125,-0.4809247370898723,0.30484425808982923,-0.023372692281007766
1772741645365233000,0.40823291015625,-0.2155044528990984,0.17955122385052963,0.00549819555748254
1772741645375249000,0.418248779296875,0.06650047086775303,0.01245754970870912,-0.03395929701868444
1772741645385263900,0.428263916015625,0.2838672105073929,-0.08788215372832492,-0.0326364874497056
1772741645395280000,0.43827978515625,0.3593254793345928,-0.16066590611664577,-0.03369659096188843
1772741645405294800,0.448294921875,0.31142157238721846,-0.1366420747168362,-0.02731087198015302
1772741645415310800,0.458310791015625,0.17034546074569223,-0.0287652172406204,0.00716126993149519
1772741645425325800,0.468325927734375,-0.024479776740074156,0.06775248022284358,-0.01757598870098591
1772741645435341800,0.478341796875,-0.004164718464016914,0.0568971415463835,-0.020093926338665188
1772741645445356800,0.488356689453125,0.1883154172003269,-0.004955320852436125,0.00020180618241429326
1772741645455372500,0.49837255859375,0.2722504224717617,-0.024273276116233318,0.07839771981257945
1772741645465387500,0.508387451171875,0.2793167075961828,-0.022296313487458974,0.14734985814876853
1772741645475403500,0.518403564453125,0.18463176025152206,-0.010888492027390747,0.12348273341432213
1772741645485418500,0.52841845703125,0.1690408078879118,-0.015451452561374753,0.06735252111982554
1772741645495434500,0.5384345703125,0.1911474257558584,-0.09837050398960709,0.0026387510057538748
1772741645505449500,0.548449462890625,0.16329612675607202,-0.06272124458998442,-0.030153474994935092
1772741645515465500,0.558465576171875,0.18196107973754405,-0.02197394966529682,-0.0005734159737825394
1772741645525480400,0.56848046875,0.1778407849371433,0.022187866410613058,0.06031012832764536
1772741645535496400,0.578496337890625,0.0029687866777181626,0.0984825860619545,0.08887282699979841
1772741645545511400,0.588511474609375,-0.21747195357978344,0.13556273678122088,0.14241371692083776
1772741645555527700,0.598527587890625,-0.3816384334295988,0.1748115367764607,0.14179923828430474
1772741645565542700,0.608542724609375,-0.40189562403857704,0.1133329309250228,0.09602876316905021
1772741645575558700,0.61855859375,-0.32686756332218647,0.03181506979791447,-0.04389204095751047
1772741645585573600,0.62857373046875,-0.15726444537639617,-0.05820215973034501,-0.13293255267441273
1772741645595589600,0.638589599609375,0.01601297716796398,-0.12738953159451483,-0.12224522750861942
1772741645605604600,0.6486044921875,0.07319149293899535,-0.09801473108818753,-0.10474248670693487
1772741645615620600,0.65862060546875,0.10673954227566719,-0.061335178792756045,-0.06780081287659705
1772741645625635600,0.668635498046875,0.15046119510233402,-0.04289559553237632,-0.024008907825313508
1772741645635651600,0.678651611328125,0.140815414878726,-0.053302587653137744,0.01948584091030061
1772741645645666600,0.68866650390625,0.08678104235231876,-0.016749657412059603,0.05288841736167669
1772741645655682600,0.6986826171875,0.05937281094491481,-0.008042802006378769,0.04174034281633794
1772741645665697500,0.708697509765625,0.05788228012621403,0.003383504958450794,-0.012585085078515112
1772741645675713500,0.718713623046875,0.09284545695781707,0.03800521140862256,-0.0368746730087325
1772741645685728500,0.728728515625,0.02552957805395126,0.09636720134317875,0.0007424158651381731
1772741645695744500,0.73874462890625,-0.03760755386054516,0.14020932047804816,0.059315491267107424
1772741645705759500,0.748759521484375,-0.037753099811077113,0.17507446202896534,0.05742416109517216
1772741645715775500,0.758775390625,0.07518997327983379,0.11718514937376603,0.0461369338074699
1772741645725790500,0.76879052734375,0.21877017669677734,0.06501613232782111,0.03751457834746688
1772741645735806700,0.778806640625,0.3006535101354122,0.030205205182172356,0.004941255794465541
1772741645745821400,0.788821533203125,0.38680209980309005,-0.014859752012230455,-0.062188964344188566
1772741645755837700,0.798837646484375,0.45832419822514053,-0.012634440645575522,-0.07695833465922623
1772741645765852700,0.808852783203125,0.43824645583629607,0.022984807208273558,-0.031193777828104792
1772741645775868700,0.81886865234375,0.33144086258709426,0.06583864595815539,0.02397840308919549
1772741645785883600,0.828883544921875,0.2039882026284933,0.08998906287970021,-0.02473492054492235
1772741645795899600,0.838899658203125,-0.16042320166826246,-0.013634995990246533,-0.08373440466541797
1772741645805914600,0.84891455078125,-0.4268640610784292,-0.01553825406199321,-0.1284106548031792
1772741645815930600,0.8589306640625,-0.5295908605813979,0.08831815225910394,-0.19111662875879554
1772741645825945600,0.868945556640625,-0.4351677790433168,0.16364753400962798,-0.20167174237966537
1772741645835961600,0.878961669921875,-0.1525531989455223,0.10635841573728248,-0.12576580285020172
1772741645845976600,0.8889765625,0.09780337162613868,0.02844784012082964,-0.06566686958782375
1772741645855992600,0.89899267578125,0.23190613712370395,-0.03401921051237732,-0.08048358617592602
1772741645866007600,0.909007568359375,0.25502047072947026,-0.07975163690587506,-0.15399024601131678
1772741645876023600,0.9190234375,0.27653847505450246,-0.062330199445784086,-0.15629961893223226
1772741645886038500,0.92903857421875,0.2899099978029728,-0.0007073993506841361,-0.07871968177594243
1772741645896054500,0.939054443359375,0.23339549889862535,0.07142316809222102,-0.02320058711711317
1772741645906069500,0.949069580078125,0.14771043508946896,0.08973309709094464,-0.03477152671702206
1772741645916085500,0.95908544921875,0.05980594166517257,0.023404073799960314,-0.03390606899410486
1772741645926100500,0.9691005859375,-0.04511398396790027,0.013630904337018728,0.007772460632398724
1772741645936116700,0.97911669921875,-0.11269815841913222,0.023941578210145233,0.01875233900398016
1772741645946131500,0.98913134765625,-0.13694412640333176,0.025932733761053532,0.038360016195662316
1772741645956147700,0.999147705078125,-0.06434475413858891,0.03219279880281538,0.0681205098176375
1772741645966162700,1.00916259765625,0.0014905308187007902,0.03191171683911234,0.0791238055974245
1772741645976178700,1.0191787109375,0.053822775602340694,0.029809465596545487,0.08751118325777352
1772741645986193700,1.029193603515625,0.09396306281089782,0.03732356755370274,0.06918335327617824
1772741645996209700,1.039209716796875,0.06215688870549202,0.053030017789453265,0.043640221620909865
1772741646006224600,1.049224609375,0.029724107134342193,0.08359916091319174,0.007986834035441278
1772741646016240600,1.05924072265625,0.14659633636772632,0.015218009131681174,0.0018042729429900645
1772741646026255600,1.069255615234375,0.19059563709199429,-0.030768538153357804,0.045222193582728505
1772741646036271600,1.079271728515625,0.1768225478053093,-0.03475722419703379,0.09847969998512417
1772741646046286600,1.08928662109375,0.12417290763556957,-0.05383064838154241,0.07977580323275178
1772741646056302600,1.099302490234375,0.07598141591846942,-0.034828809862211346,0.0470773564627394
1772741646066317600,1.109317626953125,0.12327274392545222,-0.035920915947854515,0.003110788964293897
1772741646076333600,1.11933349609375,0.19029636188447474,-0.01530871962243691,-0.0025528993532061574
1772741646086348500,1.1293486328125,0.20521336050927638,-0.009284929288271813,-0.037722448944486675
1772741646096364500,1.139364501953125,0.19479601139128208,-0.05735277635939419,-0.04963058460950851
1772741646106379500,1.149379638671875,0.6366518898963928,-0.24090958258947356,0.03092292499747127
1772741646116395500,1.1593955078125,0.8573428055226803,-0.37694209230691195,-0.18267236981205642
1772741646126410500,1.169410400390625,0.0024620061993598937,-0.2092822904486209,-0.04420647720154375
1772741646136426800,1.1794267578125,-0.2740875747710466,0.0838889559063129,-0.1974121852390468
1772741646146441700,1.189441650390625,-0.4597890100806951,0.1563050074934028,-0.1271557228386402
1772741646156457700,1.199457763671875,-0.3714157301008701,0.1677073490607552,-0.0014619623113423586
1772741646166472700,1.20947265625,-0.1946037036895752,0.15011875660652294,0.011074790113419294
1772741646176488700,1.21948876953125,-0.09580489128530024,0.09508905289983376,0.0518292636975646
1772741646186503700,1.229503662109375,-0.0858645120292902,0.08265225371820852,0.030268662339821457
1772741646196519700,1.239519775390625,-0.0952139396548271,0.07426694015078246,0.04399170193970203
1772741646206534700,1.24953466796875,-0.024983050087094307,0.009666402886528522,0.045820232541114086
1772741646216550700,1.259550537109375,0.10207564211785793,-0.08113709991490468,0.06121336077768355
1772741646226565600,1.269565673828125,0.17810089717805386,-0.18983641622252762,0.06190525203198194
1772741646236580600,1.27958056640625,0.1887818656682968,-0.21791829084148628,0.06638214171770959
1772741646246596600,1.2895966796875,0.1911602852374315,-0.15588899230472741,0.06637384881339967
1772741646256611600,1.299611572265625,0.16212649845480917,-0.04222250031009316,0.10105660126842558
1772741646266627600,1.309627685546875,0.04361351627707481,0.09256932516386732,0.17120770359821616
1772741646276642600,1.319642578125,-0.02882452794611454,0.2318355926381424,0.20456782914735375
1772741646286658600,1.329658447265625,-0.03436228832900524,0.2305964975635521,0.2100147694416344
1772741646296673500,1.339673583984375,0.007778817307949066,0.16635619018012657,0.18433920704573392
1772741646306689500,1.349689453125,0.02340951716005802,-0.0014659991656430064,0.05157550813220441
1772741646316704500,1.35970458984375,0.06079612174630165,-0.00668331368882209,-0.015204291133582591
1772741646326720500,1.369720458984375,0.10459785407185554,0.01980414961185306,0.04643726846091449
1772741646336735500,1.379735595703125,0.152592946434021,0.005153820832911878,0.0927612858057022
1772741646346751700,1.389751708984375,0.2181745488911867,-0.07554320716429501,0.07518485871329904
1772741646356766700,1.3997666015625,0.19895663820207118,-0.09793138191998005,0.05836378003284335
1772741646366782700,1.40978271484375,0.19879121850728987,-0.07322798902448266,0.04644640161544084
1772741646376797700,1.419797607421875,0.1802723959982395,-0.11234899792158975,-0.000583864302560687
1772741646386813700,1.429813720703125,0.13161387129127977,-0.10852923870403319,-0.06436674677468836
1772741646396828700,1.43982861328125,0.0065390463799238204,-0.005773651497997343,-0.07229220601171255
1772741646406844700,1.4498447265625,-0.18296353477835653,0.14708523412952199,-0.07131875786967574
1772741646416859600,1.459859619140625,-0.29534137520194054,0.23376458793934432,-0.04587503146827221
1772741646426875600,1.469875732421875,-0.19501929875314233,0.13711334549039603,-0.04717683478184044
1772741646436890600,1.479890625,-0.06690788262486458,-0.05950966213233769,-0.10139920416101812
1772741646446906600,1.48990673828125,0.0844219120055437,-0.1322268886230886,-0.12861819660663604
1772741646456922400,1.49992236328125,0.20635726984739303,-0.08454400401525199,-0.08864069874435662
1772741646466938400,1.5099384765625,0.23092004869580268,0.01670729784136638,0.011024886557087301
1772741646476953300,1.519953369140625,0.21288345674574374,0.08842579561835154,0.06441752711385489
1772741646486969300,1.52996923828125,0.12324410235285758,0.09625899172835052,0.09590133739709854
1772741646496984600,1.539984619140625,0.006333294674754142,0.05798859004490077,0.1333813193552196
1772741646507000300,1.550000244140625,-0.03814648304283619,0.033653208477888254,0.09490472757518291
1772741646517015600,1.560015625,-0.08061550545990466,-0.0025265776018612083,0.04438939602039754
1772741646527031300,1.57003125,-0.11312018322348594,0.0036328583433292805,0.0016135726764798164
1772741646537046500,1.580046630859375,-0.017787001103162763,-0.009939319810084998,0.016616861345246432
1772741646547062300,1.590062255859375,0.026667057651281356,0.006224135211855173,0.04537095440365374
1772741646557077500,1.600077392578125,0.03740472476482391,0.07544489788897335,0.04608122156485915
1772741646567093200,1.61009326171875,0.04837912324368954,0.09077403924493119,0.07503617095761
1772741646577108500,1.6201083984375,0.06572422579824924,0.08458420816147699,0.08668291574008763
1772741646587124200,1.630124267578125,0.11384849749803543,0.04240445101456716,0.034645708380267023
1772741646597139500,1.640139404296875,0.2260609182268381,-0.06629115723231807,-0.022850787298753856
1772741646607155200,1.6501552734375,0.2623796013206243,-0.15590448213480412,-0.04678359768055379
1772741646617170400,1.66017041015625,0.1863730509608984,-0.1307404494576156,-0.06164258250780403
1772741646627186200,1.670186279296875,0.04933364748954773,-0.06774192229621112,-0.05800722168013453
1772741646637201400,1.680201416015625,0.0006225158125162124,-0.000744589555915445,-0.04297865243963897
1772741646647217200,1.690217041015625,0.017908581656217573,0.04272710709767416,0.01009790790528059
1772741646657232400,1.700232421875,-0.055963879284262656,0.08119984468650072,0.01440532277561724
1772741646667248400,1.710248291015625,-0.16058686779737472,0.1703479814963415,-0.006121478554978966
1772741646677263400,1.720263427734375,-0.17748130397498607,0.09655848613157868,-0.052280733792111275
1772741646687279400,1.730279296875,-0.12785071936547757,-0.007568407693970948,-0.08311097553744912
1772741646697294600,1.740294677734375,-0.06911094562709331,-0.03564239126741886,-0.07947671068832278
1772741646707310300,1.750310302734375,0.0431739558160305,-0.023271770923491565,-0.05871683125421404
1772741646717325600,1.76032568359375,0.19012158983945845,-0.03493564950386062,-0.06588496931791304
1772741646727341300,1.77034130859375,0.3039291708052158,-0.05314947945065796,-0.061557315377146
1772741646737356500,1.7803564453125,0.3507710014790296,-0.002415006986167282,-0.020869842614606022
1772741646747372300,1.790372314453125,0.34989071151316165,0.04576307726008817,0.033760157717391846
1772741646757387500,1.800387451171875,0.2125537863999605,0.06384951796755195,0.07686981612555682
1772741646767403300,1.8104033203125,0.006933014133572578,0.0843600440167822,0.09741415311284363
1772741646777418500,1.82041845703125,-0.16661153491437433,0.08942547418018802,0.10578267994225024
1772741646787434200,1.830434326171875,-0.3153185798257589,0.049191444273572416,0.07573664737716317
1772741646797449500,1.840449462890625,-0.33869594828188415,0.03771843035649508,0.023330314444005486
1772741646807465200,1.85046533203125,-0.1863549307823181,0.04780959799373522,0.009953677129000424
1772741646817480400,1.86048046875,0.018019640815258024,0.027475086098536848,0.0028139614421874284
1772741646827496200,1.87049609375,0.25003566805422306,-0.01653217873647809,0.006817863321304321
1772741646837511400,1.880511474609375,0.4480132320910692,-0.03708473556283861,0.0338199250806123
1772741646847527200,1.890527099609375,0.5545645583182574,-0.034851953275781125,0.06745631028786302
1772741646857542400,1.90054248046875,0.5502291594624519,-0.015622918404452502,0.06480959517136216
1772741646867558400,1.910558349609375,0.40279344966113567,-0.03831217673225328,0.031504414679855104
1772741646877573400,1.920573486328125,0.21309154653847218,-0.05874086971692741,-0.014096476022154091
1772741646887589400,1.93058935546875,-0.040887890705466265,-0.04305416536126286,-0.06791866710260511
1772741646897604400,1.940604248046875,-0.30368425613343714,-0.013513689431827515,-0.1492810454070568
1772741646907620400,1.950620361328125,-0.41941491411626336,0.076084200439509,-0.11246193851046264
1772741646917635300,1.96063525390625,-0.3360316975086927,0.2060520398231223,-0.005191723424196243
1772741646927651300,1.9706513671875,-0.1232867724508047,0.15967916010161862,0.06356251771971583
1772741646937666300,1.980666259765625,0.11782383086979388,0.023806681517791,0.03646006432585418
1772741646947682300,1.990682373046875,0.2933855649590492,-0.07533308981126174,0.00627184681110084
1772741646957697300,2.000697265625,0.37570612077116966,-0.16228150635343044,-0.006931552828848361
1772741646967713300,2.01071337890625,0.3831891700029373,-0.19443621990187093,-0.02840038424991071
1772741646977728300,2.020728271484375,0.30528701515495776,-0.1137500968911685,0.001295373572781682
1772741646987744300,2.030744140625,0.17843641274273395,-0.004189779840037227,0.03867306420020759
1772741646997759200,2.04075927734375,0.11475041477382182,0.04701839281711727,0.07154306814484297
1772741647007775200,2.050775146484375,0.016086042404174803,0.026097221874073148,0.08605733118765056
1772741647017790200,2.060790283203125,-0.07292085930407047,0.005533339936099946,0.07544847808554768
1772741647027806200,2.07080615234375,-0.15369126306474207,-0.010786365093477069,0.02425195933356881
1772741647037821200,2.0808212890625,-0.2114385186344385,-0.0675709861760959,-0.02517681909352541
1772741647047837200,2.090837158203125,-0.2366092002481222,-0.03613627573158592,-0.025215616733953356
1772741647057852200,2.10085205078125,-0.19539047015309333,0.06519161675889044,0.0025682430528104305
1772741647067868400,2.110868408203125,-0.11686404592692852,0.09283844269514083,0.03926818054914474
1772741647077883400,2.12088330078125,0.05321604188084602,0.07428834826499223,0.034853652042523026
1772741647087899400,2.1308994140625,0.18947218602001667,0.036443953441269696,0.034485257121548055
1772741647097914400,2.140914306640625,0.3026262715131044,0.00630289953649044,0.008415215515345334
1772741647107930400,2.150930419921875,0.31709844897985456,-0.03245861013215035,-0.0052021717529743905
1772741647117945300,2.1609453125,0.25388357565402986,-0.023834099247679114,0.011780527229979633
1772741647127960300,2.170960205078125,0.1036713868767023,0.02331087909117341,-0.009824497791379689
1772741647137976300,2.180976318359375,-0.08369944294989108,0.024913711177930235,-0.029638620807975528
1772741647147991300,2.1909912109375,-0.19811726476848124,0.03294865867141634,-0.08549348675981164
1772741647158007300,2.20100732421875,-0.2054822405785322,0.02720883637778461,-0.09990670058093964
1772741647168022300,2.211022216796875,-0.10242693977355956,0.047485462339594955,-0.07021488828100264
1772741647178038300,2.221038330078125,0.07785130144357681,0.06291413681358099,-0.006757584501430392
1772741647188053200,2.23105322265625,0.22017127566635608,0.07713201072569936,0.030871304408088326
1772741647198069200,2.2410693359375,0.27515315817594527,0.07903744248822331,0.0497945429995656
1772741647208084200,2.251084228515625,0.22113865939378738,0.03549319205507636,0.019755232436209916
1772741647218100200,2.261100341796875,0.10967910285890102,0.01491926364712417,0.0030617256581783295
1772741647228115200,2.271115234375,0.06780044755041599,-0.004097754175029695,0.040637861467152835
1772741647238131200,2.281131103515625,0.04905424602627754,-0.01601728801690042,0.08282404835484922
1772741647248146200,2.291146240234375,-0.027041736182570456,-0.026766609035618602,0.07873349110558629
1772741647258162200,2.301162109375,-0.08974106120169162,0.0021994097404181958,0.06600457710959017
1772741647268177200,2.31117724609375,-0.05929097788035869,0.025880254655145107,0.07150259000398218
1772741647278193400,2.321193359375,0.020730653339624403,-0.0011205284625291825,0.04257423635721207
1772741647288208400,2.33120849609375,0.11477087303996085,-0.037063911970518525,0.055229427529871464
1772741647298224400,2.341224365234375,0.18175649707615374,-0.020302235327102243,0.09716200498268007
1772741647308239400,2.3512392578125,0.1186333936870098,0.03966781085859984,0.0910310279469937
1772741647318255400,2.36125537109375,0.07408581143021584,0.0821900247676298,0.05678184460364282
1772741647328270300,2.371270263671875,0.06006488486230373,0.07242880147080868,0.06341938292197882
1772741647338286300,2.381286376953125,-0.056260231882333755,0.07145780101418495,0.04604666170813143
1772741647348301300,2.39130126953125,-0.14095628465414045,0.044314686816371976,-0.0323657807495445
1772741647358317300,2.4013173828125,-0.08546002288162707,-0.013541435955278574,-0.10186309534572065
1772741647368332300,2.411332275390625,0.02457505380809307,-0.0666730874883011,-0.10957162389643489
1772741647378348300,2.421348388671875,0.13818214376568794,-0.09023490913324057,-0.05413206074722111
1772741647388363300,2.43136328125,0.21978315313160418,-0.07043090565185993,-0.029530338127911088
1772741647398379300,2.441379150390625,0.24489362899065018,-0.03741663439832628,0.03433386595211923
1772741647408394200,2.451394287109375,0.1582043565750122,0.020386516077071426,0.07592698231749236
1772741647418410200,2.46141015625,0.027527473872900006,0.09574837532509117,0.05468326488919556
1772741647428425200,2.47142529296875,0.006494038194417953,0.07938947079628705,0.009027575260028243
1772741647438441200,2.481441162109375,0.05092588511705398,0.029314649550616738,0.01543495808430016
1772741647448456200,2.491456298828125,0.120781511631608,0.009618234629556537,0.04778700256943703
1772741647458472000,2.501471923828125,0.1503361074179411,-0.02237893200330436,0.0220619019433856
1772741647468487000,2.51148681640625,0.04983692083656788,-0.032135406059771776,-0.026991028908640146
1772741647478503000,2.5215029296875,-0.027021862438321113,0.02401668927296996,0.007670242366939782
1772741647488518000,2.531517822265625,-0.07762684503793715,0.10681830660030245,0.05039031693562865
1772741647498534000,2.541533935546875,-0.045890813559293746,0.11714359352067112,0.07271744568645953
1772741647508548900,2.551548828125,0.07695172225534916,0.0550427093187347,0.05909779339581728
1772741647518564900,2.56156494140625,0.15092472096085546,0.0013958748051896691,0.05379369563832879
1772741647528579800,2.571579833984375,0.14808978979587553,0.012289499665424227,-0.009337956383451819
1772741647538595800,2.581595947265625,0.051909050935506816,0.016520926690101623,-0.023413243487104773
1772741647548610800,2.59161083984375,0.03057809361517429,0.02989219371024519,-0.011005816530436276
1772741647558626800,2.601626708984375,0.038868952098488806,0.012479103953391312,-0.0009555471591651439
1772741647568641800,2.611641845703125,0.03876373815834522,-0.01703008178863674,-0.005231032521277666
1772741647578658000,2.621657958984375,0.044452889710664745,-0.02579020175151527,0.0002769903104752302
1772741647588673000,2.631673095703125,0.06826397340893745,-0.02552585172690451,-0.033106662244722244
1772741647598689000,2.64168896484375,0.011673486658930778,-0.024860994610004124,-0.05563939657025039
1772741647608704000,2.6517041015625,0.03309270678460598,-0.035090018081665036,-0.05170892525352537
1772741647618720000,2.661719970703125,0.060919455865025514,-0.04250113458838314,-0.021581278819590807
1772741647628735000,2.67173486328125,0.034551673421263696,-0.006022730888240039,0.03648052259199321
1772741647638751000,2.6817509765625,0.0008896423161029815,0.06440236607734114,0.05677395355813205
1772741647648766000,2.691765869140625,0.004410802179574966,0.08780720706228166,0.07619936951808631
1772741647658782000,2.701781982421875,0.01949088241159916,0.07364902744814752,0.07336823774538934
1772741647668797000,2.711796875,0.06076806469559669,0.03957333750817924,0.04792911445386708
1772741647678813000,2.72181298828125,0.08469955990314483,-0.01658712379410863,-0.0024419132594019175
1772741647688828000,2.731827880859375,0.06560615237653256,-0.04851882397532463,-0.048490839989855886
1772741647698844000,2.741843994140625,0.10761807867586612,-0.011469415454193948,-0.044618893927335736
1772741647708859000,2.75185888671875,0.16891279759407044,0.07134783783368766,0.05013787654452025
1772741647718875000,2.761875,0.16619184819757937,0.14196922455634922,0.15101554104946552
1772741647728889900,2.771889892578125,0.12452654337882994,0.16514328899271785,0.1350117701012641
1772741647738905900,2.78190576171875,0.06330021352171898,0.08517689509131014,0.08715681686215102
1772741647748920800,2.7919208984375,0.030281156495213506,0.021754516494646665,0.010573197266831993
1772741647758936800,2.801936767578125,0.05477788437008858,-0.004143273817189037,-0.012044658058881759
1772741647768951800,2.811951904296875,0.17740297804176805,-0.012218662918917834,-0.003933028599992394
1772741647778968000,2.821968017578125,0.3015180180102587,0.008766586236283182,0.04069675204753875
1772741647788983000,2.831983154296875,0.31155308981239793,0.037013131631352,0.057056935217976563
1772741647798999000,2.8419990234375,0.2580979784786701,0.042454336304590105,0.07707293748222291
1772741647809014000,2.852013916015625,0.11997779403328895,0.02729567441102117,0.06716492612585424
1772741647819030000,2.862030029296875,-0.07185352233350277,0.04354629625976086,0.008320815230160952
1772741647829045000,2.872044921875,-0.20889526389241217,0.04345722973681986,-0.04701821015402674
1772741647839061000,2.88206103515625,-0.28241584265530106,0.052107569182291626,-0.05028298410363495
1772741647849076000,2.892075927734375,-0.23833646243214607,0.043941725318133826,-0.031049948910623786
1772741647859092000,2.902092041015625,-0.15377543421685694,0.01343143624216318,-0.019551672688126562
1772741647869107000,2.91210693359375,-0.0471913747638464,-0.009816460615396498,-0.01797485182546079
1772741647879123000,2.922123046875,0.02335340305864811,-0.006126191262714564,-0.0375640069797635
1772741647889138000,2.932137939453125,0.09229249925017356,0.02124653043989092,-0.07566767379418016
1772741647899154000,2.94215380859375,0.20028993263244627,-0.02592982941791415,-0.08727350204437971
1772741647909169000,2.9521689453125,0.33030922820866104,-0.06845390649046748,-0.07227218613699078
1772741647919185000,2.962184814453125,0.34984394976198674,-0.048055078921094535,-0.03678082071281969
1772741647929199900,2.972199951171875,0.30812194631993767,0.001765073443762958,0.04557882500067353
1772741647939216000,2.9822158203125,0.09873276143074035,0.08428403790481388,0.08048354964330792
1772741647949230800,2.99223095703125,-0.17437573917508123,0.07524586818553507,0.04616605030409991
1772741647959247000,3.0022470703125,-0.29084698639214035,0.01814633593484759,-0.014291998594254254
1772741647969261800,3.01226171875,-0.2444382864385843,-0.0249634320711717,-0.044586672158166765
1772741647979278000,3.022278076171875,-0.06476794798672199,-0.01532729645874351,-0.0028002982430160046
1772741647989293000,3.03229296875,0.16211948419213293,-0.004487630275450647,0.02933715364336967
1772741647999309000,3.04230908203125,0.31609540941715236,-0.022452472163550553,0.06394318760037422
1772741648009324000,3.052323974609375,0.31063363687992096,-0.049887664643116295,0.0548489768449217
1772741648019340000,3.062340087890625,0.17970365619957446,-0.017608247002772987,0.002658405554294586
1772741648029355000,3.07235498046875,0.0726145698338747,-0.01359035313092172,-0.0001603781934827566
1772741648039371000,3.08237109375,-0.026357261049747466,-0.06298091843947767,0.0024227701675146817
1772741648049386000,3.092385986328125,-0.09682312841713428,-0.024276509252935646,0.01101597259826958
1772741648059402000,3.102402099609375,-0.10123568416237831,0.002178330419771373,0.0727489368032664
1772741648069417000,3.1124169921875,-0.061681087887287135,0.031003187159448862,0.10561755250841379
1772741648079433000,3.122432861328125,-0.052984571212530134,0.04600227457713336,0.10757628536075353
1772741648089448000,3.132447998046875,-0.0461672924131155,0.05214158104974776,0.06697028033658861
1772741648099464000,3.1424638671875,0.03255962282121181,0.061178873986192046,0.04084880080409348
1772741648109479000,3.15247900390625,0.12418693616092204,0.03814224525913596,0.02866298070885241
1772741648119495000,3.162494873046875,0.21207389392852782,-0.020884053803049026,0.021603636781871317
1772741648129510000,3.172510009765625,0.2917752071529627,-0.026628040815144777,0.025063421846926212
1772741648139526000,3.18252587890625,0.3202864313662052,-0.005544482384622097,0.049541298890858884
1772741648149540900,3.192540771484375,0.22270693162381647,0.03635474078785628,0.053362976070865986
1772741648159557000,3.20255712890625,0.10044131891429424,0.058553603516519066,-0.0029740473747253415
1772741648169572000,3.212572021484375,0.018285598275065422,0.012344590853527187,-0.03475274895131588
1772741648179588000,3.222588134765625,-0.07415887666642665,0.03665858257263899,-0.04752601354569196
1772741648189603000,3.23260302734375,-0.13925824856460092,0.09658628745395689,-0.047991219904646276
1772741648199619000,3.242619140625,-0.13479659298062324,0.05905033752489835,-0.07414324070587754
1772741648209634000,3.252634033203125,-0.020280571484565732,0.008488828740827738,-0.05992452654354274
1772741648219650000,3.262650146484375,0.10107552516460418,-0.04313292968589812,-0.039835385977849365
1772741648229665000,3.2726650390625,0.1960053871810436,-0.051262094801478086,-0.032675212024897336
1772741648239681000,3.282680908203125,0.22110592616796493,-0.020755422454699874,-0.015405878120288251
1772741648249696000,3.292696044921875,0.16774258477091789,0.041993733055517075,-0.02091594677865505
1772741648259712000,3.3027119140625,0.05635433990657329,0.05301376077439636,-0.01198255260810256
1772741648269727000,3.31272705078125,-0.020845219630002975,0.03362516969349235,-0.019204466685652732
1772741648279743000,3.322742919921875,-0.03455518055260181,0.0030512773294001814,0.002339329667761922
1772741648289758000,3.332758056640625,-0.04841477907896041,-0.03127436878364533,0.04006780649423599
1772741648299774000,3.34277392578125,-0.07313830144703387,0.02674169379007071,0.04082118214480579
1772741648309789000,3.352788818359375,-0.03717325409650803,0.0381114482620731,0.011451952862739562
1772741648319805000,3.362804931640625,0.07707330280840397,0.035569800955243404,0.023843963054567575
1772741648329820000,3.37281982421875,0.2066243963509798,0.06498582852110266,0.07394063080586492
1772741648339836000,3.3828359375,0.24214520706534384,0.04712046495210379,0.1029841352649033
1772741648349851000,3.392850830078125,0.16901333535909652,0.05529887603688985,0.12632592095099388
1772741648359867100,3.4028671875,0.0418453375607729,0.058228317084908485,0.06294540873467921
1772741648369882000,3.412882080078125,-0.05334697478413582,0.06528952417541295,0.018507789658382533
1772741648379898000,3.422898193359375,-0.13371464296281338,0.05420205724351108,-0.014683847456052898
1772741648389913000,3.4329130859375,-0.10182020605206489,0.03189597128070891,-0.0562085747603327
1772741648399929000,3.44292919921875,-0.03510521565079689,0.049687739890534426,-0.023912279050424694
1772741648409944000,3.452944091796875,0.06576397328674793,0.06091605833154171,0.02511566349081695
1772741648419960000,3.4629599609375,0.12660802582800387,-0.017192323145642875,0.0012418898198753594
1772741648429975000,3.47297509765625,0.045702597510814666,-0.05424394189016893,0.003987096874788403
1772741648439991000,3.482990966796875,-0.06371113241016864,0.012024528586305677,0.060592635063454504
1772741648450006000,3.493006103515625,-0.08396656945347786,0.06867458177013322,0.05163498323448002
1772741648460021200,3.503021240234375,0.0073322425842285155,0.08215588503601029,0.03307078721374273
1772741648470036200,3.5130361328125,0.10596271268427371,0.07520712534403429,0.05731748585030436
1772741648480052500,3.523052490234375,0.19834990448057652,0.10391001793816686,0.12006437633819877
1772741648490067500,3.5330673828125,0.2615869896382093,0.10516473070699721,0.10528923386950045
1772741648500083500,3.54308349609375,0.19308920747339725,0.022292660225648433,0.031627821863815186
1772741648510098400,3.553098388671875,0.11838789449334144,-0.10311099478127435,-0.08238258819766342
1772741648520114400,3.563114501953125,0.1447802268564701,-0.11968956994274631,-0.16740345247704536
1772741648530129400,3.57312939453125,0.06194353821575641,-0.06203905274579301,-0.11584694130625575
1772741648540145400,3.5831455078125,0.026872224834561347,-0.04021249392824247,-0.09606997196227311
1772741648550160400,3.593160400390625,0.04526888226866722,-0.009518518848437815,-0.05350669539049267
1772741648560176400,3.60317626953125,0.030029812082648277,0.04854079834511503,0.015339242624863981
1772741648570191400,3.61319140625,0.04714636657834053,0.016871384095586837,0.018893062648922203
1772741648580207400,3.623207275390625,0.10092121138572692,-0.04995468373103067,0.027624541039206085
1772741648590222300,3.633222412109375,0.12081775198876857,-0.05897517166314646,0.059338872142694885
1772741648600238300,3.64323828125,0.1114402673125267,0.046276506674941625,0.06834109376575798
1772741648610253300,3.65325341796875,0.09168342744112014,0.09325226592672989,0.055392289941385384
1772741648620269300,3.663269287109375,0.09482815520763396,0.08602673511998728,-0.01740589283108711
1772741648630284300,3.6732841796875,0.15330080244243144,-0.0030757541835308073,-0.05925261863134801
1772741648640300300,3.68330029296875,0.1873059478968382,-0.04254692822517827,-0.0527676405262202
1772741648650315300,3.693315185546875,0.12587503537833689,-0.006999375634361058,-0.01848641807679087
1772741648660331500,3.70333154296875,0.1232914486259222,0.01383324024239555,-0.02737308702878654
1772741648670346200,3.71334619140625,0.19500059405267237,-0.02632429036190733,-0.031011808857321736
1772741648680362500,3.723362548828125,0.18483751195669174,-0.034577392384409905,0.0011146467110142112
1772741648690377500,3.73337744140625,0.10141571690440178,0.013827851681225,-0.03413644368387758
1772741648700393500,3.7433935546875,0.0014274024546146393,0.016400898773316294,-0.037390294380672276
1772741648710408400,3.753408447265625,0.01506838979423046,-0.014795527669601141,-0.07079126339685171
1772741648720424400,3.763424560546875,0.09917056832611561,-0.04278802523836493,-0.04721011599693447
1772741648730439400,3.773439453125,0.1528448753684759,-0.040276846135035155,-0.03706533674262464
1772741648740455400,3.783455322265625,0.07215455110669136,0.02885377230690792,-0.06327416576500981
1772741648750470400,3.793470458984375,-0.03777180451154709,0.06630977060124278,-0.04571158453486859
1772741648760486400,3.803486328125,-0.19589082089066504,0.06037532078465446,-0.05348550647199154
1772741648770501400,3.81350146484375,-0.2893120319098234,0.08773664431041106,-0.04947670922204852
1772741648780517400,3.823517333984375,-0.25569500899016856,0.07398991330768913,0.009749825119972228
1772741648790532400,3.833532470703125,-0.09737316351532936,0.03826683975318446,0.021228008402511475
1772741648800548400,3.84354833984375,0.1035796169400215,-0.024698150464799253,0.05117196883261203
1772741648810563300,3.853563232421875,0.2687731017500162,-0.04680431167501956,0.07148680791296065
1772741648820579300,3.863579345703125,0.3184375886291265,-0.015284863822814077,0.08397716391272843
1772741648830594300,3.87359423828125,0.3138321406602859,0.03408648532861844,0.08447948741167784
1772741648840610300,3.8836103515625,0.25963760913610456,0.07333725808523595,0.06237732652314007
1772741648850625300,3.893625244140625,0.1620212845146656,0.08745187255227937,0.031206162385642527
1772741648860641500,3.9036416015625,0.0593470919817686,0.07529272126825526,0.02154017962422222
1772741648870656500,3.913656494140625,0.02946925559043884,0.0667304802313447,-0.0010041720738634466
1772741648880671200,3.923671142578125,0.0637134704977274,0.00654350335933268,0.008462598321028053
1772741648890687500,3.9336875,0.12820377058684826,-0.014828681020531802,-0.001167545942030847
1772741648900702500,3.943702392578125,0.21285656873881817,-0.006883220175094902,-0.006709069184586405
1772741648910718500,3.953718505859375,0.18639993896782397,0.013908077310584485,-0.0027890096640214323
1772741648920733400,3.9637333984375,0.13613748619556426,0.045203050490841265,0.012957206326536833
1772741648930749400,3.97374951171875,0.0313970087826252,0.08018270353320986,0.04730254352074116
1772741648940765400,3.983765380859375,-0.11929098081290722,0.12762191557828337,0.04929342507701367
1772741648950780400,3.993780517578125,-0.2893804209709167,0.08392817367184907,-0.01041048098579049
1772741648960796400,4.00379638671875,-0.31555297310352326,-0.030570494830608367,-0.09332056365627794
1772741648970811400,4.013811279296875,-0.1944289316445589,-0.09266184401921927,-0.1527449221253395
1772741648980827400,4.023827392578125,-0.009649871876835822,-0.1134304912816733,-0.144329998870939
1772741648990842400,4.03384228515625,0.19392332020998,-0.09509086126442998,-0.11689528131540863
1772741649000858400,4.0438583984375,0.35634383317530155,-0.05798530210927128,-0.0768096103709191
1772741649010873300,4.053873291015625,0.39345688151717184,-0.004929017367400229,0.010256970924511551
1772741649020889300,4.063889404296875,0.3503045530110597,0.04530296720135957,0.05641279209554195
1772741649030904300,4.073904296875,0.17294190697968004,0.06056432228442281,0.038530733120068904
1772741649040920300,4.08392041015625,0.015942250019311904,0.055667197892628605,0.03056917965635657
1772741649050935300,4.093935302734375,-0.0925917744576931,0.014187223045527934,0.008533909991569817
1772741649060950300,4.1039501953125,-0.1494026259601116,-0.043692645927891134,-0.03979351959750056
1772741649070966500,4.113966552734375,-0.22863749071657657,-0.04880878336522728,-0.0866638457134366
1772741649080982500,4.123982421875,-0.20882979744076727,-0.03611494068261236,-0.10898629828914999
1772741649090997500,4.13399755859375,-0.05192074137330055,-0.0038059316216036677,-0.09803827636055648
1772741649101012500,4.144012451171875,0.1924935796678066,0.003778641755878925,-0.029350962973013518
1772741649111028500,4.154028564453125,0.37098727555572986,-0.01688223428316414,0.0537890559958294
1772741649121043500,4.16404345703125,0.38805180760324,-0.012334032926894724,0.1072507432008162
1772741649131059500,4.1740595703125,0.2840489968150854,0.02965334345307201,0.11540219321344047
1772741649141074400,4.184074462890625,0.14052490749955177,0.054282429003342986,0.08493103057146072
1772741649151090400,4.19409033203125,0.017580080354213712,0.024719211519137023,0.03401595910936594
1772741649161106400,4.2041064453125,-0.04709317508637905,-0.04553399947825819,0.04765712911207229
1772741649171121400,4.214121337890625,-0.0495265397131443,-0.08149729326311499,0.05113989319391549
1772741649181137400,4.224137451171875,-0.12627426382899284,-0.04997486800253391,0.06236450357418507
1772741649191152400,4.23415234375,-0.13822656742930411,0.04152841709870845,0.03986267584357411
1772741649201168400,4.24416845703125,-0.0976326912343502,0.06397438645623624,0.01254497226383537
1772741649211183400,4.254183349609375,0.05663198780417442,0.05361296877656132,-0.00846351163648069
1772741649221199400,4.264199462890625,0.19781506695151327,-0.0055638446722179645,0.013070311312191187
1772741649231214300,4.27421435546875,0.2608534146666527,-0.004147803861834109,0.041193887914717196
1772741649241230600,4.284230712890625,0.20046178206801413,0.020831885224394497,0.030969065694138407
1772741649251245300,4.294245361328125,0.12938508932590484,0.02834609677940607,0.07247574588507413
1772741649261261600,4.304261474609375,0.05389817892611026,0.0330779841395095,0.08314001896884292
1772741649271276500,4.314276611328125,-0.032224691778421403,0.03278287365045398,0.07058152963630855
1772741649281291500,4.32429150390625,-0.10915127959251403,0.016525931658782064,0.019833521836809812
1772741649291307500,4.3343076171875,-0.09770692551434039,-0.003967223130539059,-0.027669622289948164
1772741649301323500,4.344323486328125,-0.04681260457932949,0.017772570719011126,-0.053284138680994506
1772741649311338500,4.35433837890625,0.0334796602755785,0.02126658684723079,-0.06783204826507717
1772741649321353500,4.364353515625,0.11599018570184708,0.010724040446989238,-0.06637794046662747
1772741649331369500,4.374369384765625,0.20412498075067995,0.0297066080102697,-0.05893076626583933
1772741649341385500,4.384385498046875,0.23064590792953968,0.02815736927427351,-0.022800628014095128
1772741649351400400,4.394400390625,0.17298165446817873,0.05333769549913704,0.02154503846243024
1772741649361416400,4.40441650390625,0.08420037820935249,0.1071163031661883,0.025414171513356267
1772741649371431400,4.414431396484375,-0.009465747481584548,0.08939173630736767,0.008658267023600638
1772741649381447400,4.424447509765625,-0.1049871456503868,0.016655257126875222,0.012773191529139876
1772741649391462400,4.43446240234375,-0.155851071447134,-0.0053587140215560795,-0.0004070464309304952
1772741649401478400,4.444478515625,-0.21555881343483924,0.009654876845516264,-0.04034527172874659
1772741649411493400,4.454493408203125,-0.17080255686342716,0.07132613745853304,-0.05277702940907329
1772741649421509400,4.46450927734375,-0.037356793969869614,0.08524155782535672,-0.07857658351082354
1772741649431524400,4.4745244140625,0.15745324594676494,0.05385894289426505,-0.1321454208847135
1772741649441540400,4.484540283203125,0.31143560091257094,-0.01371902101188898,-0.10242219053320586
1772741649451555600,4.4945556640625,0.4317728759080171,-0.0437578931838274,-0.0644062020022422
1772741649461571600,4.504571533203125,0.42885435811281203,-0.03323989670295268,-0.013980850285850464
1772741649471586800,4.5145869140625,0.2942231848269701,-0.01090308680832386,0.01972852709237486
1772741649481602600,4.5246025390625,0.07108779865801335,0.058542132274433965,0.01578015479277819
1772741649491617800,4.53461767578125,-0.10811258419454096,0.0949208749923855,0.0045321270043030375
1772741649501633500,4.544633544921875,-0.16552198611199856,0.024202494168654082,-0.012030300739966332
1772741649511648800,4.554648681640625,-0.2136392435491085,-0.01678019868079573,-0.02013608497995883
1772741649521664500,4.56466455078125,-0.19814824442863463,-0.021707937406562267,-0.017025661341845987
1772741649531679700,4.5746796875,-0.14766250429451463,-0.0361915130501613,-0.0429714555138722
1772741649541695500,4.584695556640625,-0.014941548544168471,-0.05802336909733712,-0.032474757549352945
1772741649551710700,4.594710693359375,0.138086866697669,-0.03407868561465293,-0.006442819463834166
1772741649561726700,4.604726806640625,0.2812263406097889,0.013247494510002433,0.019588716762885452
1772741649571741700,4.61474169921875,0.3105915513038635,0.011107523339241742,0.04517711233198642
1772741649581757700,4.6247578125,0.23341654168665407,0.011849939204379916,0.06008362609539181
1772741649591772700,4.634772705078125,0.08005787157714367,0.04148746403381228,0.06419771035071462
1772741649601788700,4.64478857421875,-0.03494213404357433,0.030531331863999363,0.0391503993883729
1772741649611803600,4.6548037109375,-0.07639291932880878,0.02635970873516053,0.023506036337092518
1772741649621819600,4.664819580078125,-0.12204758604466914,0.0019403934780508278,-0.025060681900568305
1772741649631834600,4.674834716796875,-0.07761924625337123,-0.0021892902052029965,-0.04974219175782054
1772741649641850600,4.6848505859375,0.06829553759098053,0.029081498381868003,-0.03290755947604775
1772741649651865600,4.694865478515625,0.19777005876600742,0.06901782398354261,0.0545613190099597
1772741649661881600,4.704881591796875,0.20393734922409057,0.12791885269824416,0.133418546093069
1772741649671896600,4.714896484375,0.10263678313195705,0.15989216353148222,0.1208024448217824
1772741649681912600,4.72491259765625,0.0018348142117261886,0.08239493622258305,0.05235745229013264
1772741649691927600,4.734927490234375,-0.003297287979722023,0.040408765419013795,0.01688552221879363
1772741649701943600,4.744943603515625,0.017055764219164847,0.0330253406368196,0.010255582685023546
1772741649711958500,4.75495849609375,0.018611176967620848,-0.01065594364684075,-0.012798618231341242
1772741649721974500,4.764974609375,0.08675298530161381,-0.06531575459521263,-0.04398088828474283
1772741649731989500,4.774989501953125,0.2064239053428173,-0.06368994349166751,-0.021835838102549313
1772741649742005800,4.785005859375,0.21017361326515674,-0.033352855558134616,0.02632584299817681
1772741649752020500,4.7950205078125,0.12137830848097801,-0.013921302118338644,0.01209719196371734
1772741649762036700,4.80503662109375,-0.02047638631761074,0.012898242680914699,-0.007242445408925414
1772741649772051700,4.8150517578125,-0.1060375314861536,0.038152364794351155,-0.029885800502076742
1772741649782067700,4.825067626953125,-0.09399988768994808,0.03264101749435067,-0.0217149151366204
1772741649792082700,4.835082763671875,0.0449777903676033,0.01696538252197206,0.006235971780121326
1772741649802098700,4.8450986328125,0.1963800657123327,0.0007501607801765203,0.052907706584036346
1772741649812113700,4.85511376953125,0.2145797392696142,-0.01766680878959596,0.07294204822257161
1772741649822129700,4.865129638671875,0.1152478429019451,-0.034411680428683755,0.024666750679537653
1772741649832144600,4.87514453125,0.02431494156718254,-0.02182732600253075,0.007695376808196306
1772741649842160600,4.88516064453125,-0.02468962009847164,-0.016405410551652313,-0.010252148618921637
1772741649852175600,4.895175537109375,-0.03547112635374069,-0.029982429276965556,-0.015282763197273015
1772741649862191600,4.905191650390625,-0.015033903002738951,-0.013764175327867268,-0.03687660923749208
1772741649872206600,4.91520654296875,0.04558452408909797,-0.031979594443552195,-0.03208279908969998
1772741649882222600,4.92522265625,0.10059212556183338,-0.06261760155241936,0.004412190419062972
1772741649892237600,4.935237548828125,0.07759235824644566,-0.030569070058502255,-0.03314429084137082
1772741649902253600,4.945253662109375,0.007786416092514991,-0.01765025951359421,0.0009701602064073085
1772741649912268500,4.9552685546875,-0.0012017770051956176,0.04242087242640555,0.0480906616911292
1772741649922284500,4.965284423828125,0.03071194912791252,0.06438501308374106,0.06398709980733693
1772741649932299500,4.975299560546875,0.16214344958961008,0.011786774307675659,0.043791357062011954
1772741649942315800,4.985315673828125,0.2856885807156563,-0.009114413293264807,0.06181603937856853
1772741649952330800,4.995330810546875,0.33859190338552,-0.00019340368025004862,0.09053184625320136
1772741649962346800,5.0053466796875,0.2353063009560108,0.021740232240967453,0.09813786427751182
1772741649972361700,5.01536181640625,0.08891513177156447,0.035557708658650516,0.07428798293881118
1772741649982377700,5.025377685546875,0.02456102528274059,0.06008669483531266,0.06490041525997221
1772741649992392700,5.035392822265625,-0.05916121402084827,0.06842387667838484,0.057530763274803755
1772741650002408700,5.04540869140625,-0.1509580387085676,0.040929062966071066,0.027466902792081235
1772741650012423700,5.055423583984375,-0.1639952149361372,-0.009594269232079386,-0.03267681946009397
1772741650022439700,5.065439697265625,-0.06008125147521495,-0.010048077414184809,-0.01614537137597799
1772741650032454700,5.07545458984375,0.09047229808568955,0.015466704929433762,0.0163641652258113
1772741650042470700,5.085470703125,0.18603695087432862,-0.0006796162946149706,0.028419198548235
1772741650052485600,5.095485595703125,0.2846662519305944,-0.0020539003225043414,-0.019995397867634893
1772741650062501600,5.105501708984375,0.34636545999646184,-0.017644743088260292,-0.003871142344921827
1772741650072516600,5.1155166015625,0.32799861317872997,-0.017915047929622233,0.019797281479649244
1772741650082532600,5.12553271484375,0.149717098736763,0.00867806770261377,0.010264131317660212
1772741650092547600,5.135547607421875,-0.030340193206071852,0.056395731362886725,0.016157865531370042
1772741650102563600,5.1455634765625,-0.15209434926211832,0.06323843686450273,0.034635734975524246
1772741650112578600,5.15557861328125,-0.17764321653842924,0.09086107820756732,-0.0019506591437384484
1772741650122594600,5.165594482421875,-0.22648002042174337,0.030234431276656686,-0.033660350604727864
1772741650132609500,5.175609619140625,-0.12807342220544815,-0.047920931147411465,-0.04455225843191147
1772741650142625800,5.185625732421875,0.10111761074066161,-0.09244410961531102,-0.07155369913671165
1772741650152640800,5.195640869140625,0.24982816278338432,-0.10046842611692845,-0.06262717309836298
1772741650162656800,5.20565673828125,0.2927268087893724,-0.05616484521646052,-0.011756854093447327
1772741650172671700,5.215671630859375,0.2691471957594156,-0.00839519564062357,0.045400290095992384
1772741650182687700,5.225687744140625,0.17806524134278295,0.017849800673685967,0.08938567189276218
1772741650192702700,5.23570263671875,0.026335049217939374,0.054233183034136885,0.05555350838508456
1772741650202718700,5.24571875,-0.09689736269712447,0.03156882168557495,0.032787294097244735
1772741650212733700,5.255733642578125,-0.15502923367023466,0.027537995266914365,-0.017376776334457097
1772741650222749700,5.265749755859375,-0.13850304628312587,-0.008586370831169187,-0.05237367277257144
1772741650232764700,5.2757646484375,-0.05100070391893387,-0.02397314239218831,-0.0476727285400033
1772741650242780700,5.28578076171875,-0.015711363872885704,0.007973097771033643,-0.03684489892497658
1772741650252795600,5.295795654296875,-0.022427520385384557,0.012328626099415122,-0.03458743885438889
1772741650262811600,5.305811767578125,0.016985621592402456,0.017394896513037383,-0.054203116689436136
1772741650272826600,5.31582666015625,0.08346563419401645,-0.0031931334855034945,-0.05259502390567213
1772741650282842600,5.325842529296875,0.18023147946596144,-0.04759279517158865,-0.03822948515117168
1772741650292857600,5.335857666015625,0.25647943736612794,-0.03915913068410009,0.006905505072139203
1772741650302873600,5.34587353515625,0.20911036794781684,-0.01723806198351085,0.01985971572399139
1772741650312888600,5.355888671875,0.10585749874413013,0.01792447334509343,-0.004327507810294628
1772741650322904800,5.36590478515625,-0.05506079296469688,0.04943411218933761,-0.007040894954837858
1772741650332919600,5.37591943359375,-0.14374386954605578,0.03676248133853078,-0.000400543624907732
1772741650342935800,5.385935791015625,-0.1687269196331501,-0.0025704715425148607,-0.0024185689164325595
1772741650352950800,5.39595068359375,-0.13055354858338833,0.00722878220975399,-0.01706602988485247
1772741650362966800,5.405966796875,0.011881576451659203,-0.007284129126183688,-0.022887173786386845
1772741650372981800,5.415981689453125,0.2232370929777622,-0.002900214953534305,-0.003144727766513824
1772741650382997800,5.425997802734375,0.3866296658456325,-0.03651011401265859,0.04087419097367674
1772741650393012700,5.4360126953125,0.39224049146473405,-0.04369045397080481,0.05854713724311441
1772741650403028700,5.44602880859375,0.27410803303718567,0.027531638591364024,0.07072795236967504
1772741650413043700,5.456043701171875,0.1191127016365528,0.05847765220347791,0.06459091091938317
1772741650423059700,5.466059814453125,-0.07130524080097675,0.043608474775776264,0.050726745815761386
1772741650433074700,5.47607470703125,-0.20245617075562475,0.033789968333765866,0.03504475416783243
1772741650443090700,5.486090576171875,-0.16548983740806578,0.026176241927035153,0.02543254742026329
1772741650453105700,5.496105712890625,-0.058359834510087964,-0.00045150662716478106,0.041729784889705475
1772741650463122700,5.506122802734375,0.09605039047896861,-0.023130590620823205,0.07415113175138831
1772741650473137700,5.5161376953125,0.20606033272743224,-0.047000601432099935,0.096300054391101
1772741650483153700,5.526153564453125,0.23960195232331752,-0.04020443848595023,0.07529350671954453
1772741650493168600,5.536168701171875,0.1960100633561611,-0.04560673592090606,0.021068360861390828
1772741650503184600,5.5461845703125,0.07014554937183856,-0.01634093048069626,0.007401033504121005
1772741650513199600,5.55619970703125,-0.03467266945242881,0.033252463923580944,0.0038198870817199347
1772741650523215600,5.566215576171875,-0.08727788595855236,0.054860448087006804,0.0137009373659268
1772741650533230600,5.576230712890625,-0.06437865640819072,0.04956588534284383,0.030815153774060307
1772741650543246600,5.58624658203125,-0.02813596116006374,0.006136603058874607,0.026063538800179958
1772741650553261600,5.596261474609375,0.020972060880064963,-0.060118259017355735,0.001946969349309802
1772741650563277600,5.606277587890625,0.1472206057459116,-0.07960431912336498,0.0040626463290303946
1772741650573292500,5.61629248046875,0.20796938121914862,-0.06504888381995261,-0.006230564952641725
1772741650583308500,5.62630859375,0.21161445972323417,-0.06020381840895861,-0.025418336231820285
1772741650593323500,5.636323486328125,0.17268997804522512,-0.04089647587072104,-0.05099157076440751
1772741650603339500,5.646339599609375,0.09247136294841765,0.012768076962605119,-0.048520029551722105
1772741650613354500,5.6563544921875,0.030731238350272177,0.04908339905552566,-0.05127959392555058
1772741650623370500,5.66637060546875,0.04068973778486252,0.02630037976335734,-0.010358202809281647
1772741650633385500,5.676385498046875,0.08713818522691726,-0.012698957249149679,0.04229739217720926
1772741650643401500,5.6864013671875,0.12350830624699592,-0.015985541171766815,0.05362005610447377
1772741650653416400,5.69641650390625,0.0844049608707428,-0.02830605702996254,0.036555195263400675
1772741650663432700,5.7064326171875,0.0609375760436058,-0.021107523827999828,0.029961569152027367
1772741650673447700,5.71644775390625,-0.00504676199555397,0.0279297710634768,0.04616700015217066
1772741650683463700,5.726463623046875,-0.10546996073126792,0.06074198040626943,0.010910539462417363
1772741650693478700,5.736478759765625,-0.11295125639736651,0.028295754831656812,-0.012473185669258237
1772741650703494700,5.74649462890625,-0.013648586124181747,0.001955043057911098,-0.012259396788105368
1772741650713509600,5.756509521484375,0.10181669892072677,-0.021123305919021368,-0.013593275740370154
1772741650723525600,5.766525634765625,0.16187164691090583,-0.0565393776172772,-0.013318258191272615
1772741650733540600,5.77654052734375,0.22991993174254893,-0.04596935868822038,0.004492708309367299
1772741650743556600,5.786556640625,0.23567104261517524,-0.016545257413759826,0.0074609104651957745
1772741650753571600,5.796571533203125,0.1939414403885603,-0.0021900573901832104,0.028931422386690973
1772741650763587600,5.806587646484375,0.1319926414757967,0.0015319953402504324,0.03448416114300489
1772741650773602600,5.8166025390625,0.0746925451517105,-0.013568433560058473,0.05046382056325674
1772741650783618600,5.82661865234375,-0.005626023188233375,0.002541756904684007,0.06558401360996068
1772741650793633500,5.836633544921875,-0.05518821873664856,0.011543394005857407,0.06162782333008945
1772741650803649500,5.8466494140625,-0.056601592665910715,-0.02864584691096097,0.02572473529987037
1772741650813664500,5.85666455078125,-0.004203296908736229,-0.037290779528953134,-0.024813246478140354
1772741650823680500,5.866680419921875,0.06944529214799404,-0.07735869562104344,-0.03234327665679156
1772741650833695500,5.876695556640625,0.13015139752328395,-0.05397749124001711,-0.007646167371608317
1772741650843711500,5.88671142578125,0.17026713481247424,0.033479623742960395,0.054638366301544006
1772741650853726500,5.8967265625,0.11069733999073504,0.09446125812400132,0.09696882049813867
1772741650863742500,5.906742431640625,0.03529518526494503,0.08848043014872818,0.09101725514996796
1772741650873757700,5.9167578125,0.00991407577097416,0.024564422816224396,0.06371836586855352
1772741650883773400,5.9267734375,0.012121230426430702,0.0048534313805401325,0.00925060689356178
1772741650893788700,5.93678857421875,0.08570143042206764,-0.021402999643236397,-0.0419668815812096
1772741650903804400,5.946804443359375,0.1562304261535406,-0.04389061618540436,-0.0679646251361817
1772741650913819600,5.956819580078125,0.14837971265316008,-0.026923370499908922,-0.025015271856263278
1772741650923835400,5.96683544921875,0.05674538505077362,0.03752290778439492,-0.036727958014421164
1772741650933850600,5.9768505859375,-0.009338906231522559,0.07366809747479855,-0.034540604037977755
1772741650943866400,5.986866455078125,-0.05227846876978874,0.03941463981512934,-0.013997545692324637
1772741650953881600,5.996881591796875,-0.019137246668338773,0.009030242141149938,-0.04038827062025666
1772741650963897300,6.0068974609375,0.08189911552965641,-0.029617176161147653,-0.06327792862467467
1772741650973912600,6.01691259765625,0.15242577317357062,-0.052807314949482674,-0.026404095866158602
1772741650983928300,6.02692822265625,0.12029226680994033,-0.0270346123220399,-0.006500321804732084
1772741650993943600,6.036943603515625,0.03856324715018272,0.0248723197216168,0.004883753453567624
1772741651003959300,6.046959228515625,-0.04344751206040382,0.06677881288509815,0.0004791618190705776
1772741651013974500,6.056974609375,-0.0473784217685461,0.049995508931763466,-0.0008119009047746658
1772741651023990300,6.066990234375,-0.12967267409563063,0.06794413033742457,-0.001565970675088465
1772741651034005500,6.077005615234375,-0.18777064279913902,0.06687642804067581,0.024319142818264663
1772741651044021500,6.087021484375,-0.20679683030843735,0.05244290208388119,0.0011134411346167324
1772741651054036700,6.09703662109375,-0.3064122197926044,0.06863927299473434,-0.0023986221069470046
1772741651064052500,6.107052490234375,-0.3488011627107859,0.14516805713027714,-0.027563787295296786
1772741651074067700,6.117067626953125,-0.35587738470733166,0.1009568306883797,-0.02585767749715596
1772741651084082700,6.127082763671875,-0.2235994965493679,0.06489888089001178,-0.004963029234856367
1772741651094098700,6.1370986328125,-0.03450958784520626,0.07666150713711976,0.04635386449377984
1772741651104113700,6.14711376953125,0.24561726709008216,0.020823080863431095,0.04356814276538789
1772741651114129700,6.157129638671875,0.513596588113904,-0.07499759251289069,0.022274704443849623
1772741651124144600,6.16714453125,0.6400117217183112,-0.11099014892484992,0.01968936412576586
1772741651134160600,6.17716064453125,0.6494950048565864,-0.09937734294459223,0.05295622190088033
1772741651144175600,6.187175537109375,0.5723334392428397,-0.017758724856749175,0.08888334839381277
1772741651154191600,6.197191650390625,0.4650713343977928,0.03816851221155375,0.061274187586829065
1772741651164206600,6.20720654296875,0.34204701227545736,0.022441073986701667,0.0011016045663505792
1772741651174222600,6.21722265625,0.3368780852049589,-0.0022152283640578386,-0.09054529025666415
1772741651184237600,6.227237548828125,0.30563889733254906,-0.022541648284345864,-0.15479484039247035
1772741651194253600,6.237253662109375,0.20248598137199877,0.01888783848453313,-0.08446823536530136
1772741651204268500,6.2472685546875,0.1350806706190109,0.08073288476187736,0.007998305277526378
1772741651214284500,6.257284423828125,0.1429015735030174,0.09883337226100265,0.03997545203566551
1772741651224299500,6.267299560546875,0.20401041446030138,0.03343081616517156,0.01963920484110713
1772741651234315500,6.2773154296875,0.27885142817199227,-0.024898586674034592,-0.03230754775628447
1772741651244330500,6.28733056640625,0.2633171744316816,-0.08768909710794687,-0.10074775451496243
1772741651254346500,6.297346435546875,0.08224573701024054,-0.13056779630444942,-0.1277268737901002
1772741651264361700,6.30736181640625,-0.10411679255664348,-0.03516286412216723,-0.08299735909514129
1772741651274377500,6.31737744140625,-0.26677579045295713,0.008428586453571914,-0.04194302578158676
1772741651284392700,6.327392822265625,-0.29645547392368315,0.01529036198183894,-0.0610367986343801
1772741651294408400,6.337408447265625,-0.3068178779840469,0.011900463815219699,-0.023283991084247828
1772741651304423700,6.347423583984375,-0.23678864846825598,0.07509096988476813,-0.01945982968620956
1772741651314439400,6.357439453125,-0.16411504192352294,0.0983347385564819,-0.04386741797290742
1772741651324454700,6.36745458984375,-0.06615092677772044,0.10433343098200858,-0.0007690846763551234
1772741651334470400,6.377470458984375,0.021648352706432342,0.1172581963436678,0.03004449819512665
1772741651344485600,6.387485595703125,0.014050737184286117,0.11862480852175503,-0.0001806172639131546
1772741651354501400,6.39750146484375,0.0714858580648899,0.09093816203176974,-0.004900631523132324
1772741651364516600,6.4075166015625,0.20445406657457352,0.01458407687600702,0.00644676498658955
1772741651374532400,6.417532470703125,0.2720417481571436,0.0096949531275779,0.0641395138900727
1772741651384547600,6.427547607421875,0.23783961882591245,-0.011777677685767412,0.06046864335760474
1772741651394563300,6.437563232421875,0.10842588792741298,0.006194543791189789,-0.0023547464326024053
1772741651404578600,6.44757861328125,-0.17209201215207576,0.05218527406100183,-0.07931647862531244
1772741651414594300,6.45759423828125,-0.4926987615138292,0.015318638228252529,-0.04209310177676379
1772741651424609500,6.467609619140625,-0.49903264071047304,0.07159286210332065,-0.04514642493277788
1772741651434625300,6.477625244140625,-0.28483108710348604,0.09916731692310422,-0.0672361647311598
1772741651444640500,6.487640625,-0.002501169165968895,0.03330777430739253,-0.05986855857260525
1772741651454656500,6.497656494140625,0.3051443918138742,-0.03408467696402222,-0.030314035851508377
1772741651464671000,6.5076708984375,0.47631987364292144,-0.08083185162432491,-0.03817921626865864
1772741651474687000,6.51768701171875,0.5559872845977545,-0.0683041592888534,-0.01868687255233526
1772741651484702000,6.527701904296875,0.5787199254095554,-0.03297006678562611,0.026350977439433335
1772741651494718000,6.537718017578125,0.36754385710358617,0.04993782392777502,0.04279255528301
1772741651504733000,6.54773291015625,0.20042729527652262,0.0968826765846461,0.06752952165454626
1772741651514749000,6.5577490234375,0.05446691872477531,0.06256616362612694,0.07525244405679404
1772741651524764000,6.567763916015625,-0.2927279778331518,0.09176365307047962,0.047446737764403224
1772741651534780000,6.57777978515625,-0.48100657015442844,0.14530929223187267,0.05760923533849418
1772741651544795000,6.587794921875,-0.4682780214846134,0.12270436945296823,0.05474727003611624
1772741651554811000,6.597810791015625,-0.25498364585042,0.03955832260213792,-0.014995909079909324
1772741651564825900,6.607825927734375,-0.02984919481873512,0.035831812892295416,-0.0073828037276864045
1772741651574841900,6.617841796875,0.27626141167879104,0.040511495141126216,0.014804916552454233
1772741651584856800,6.62785693359375,0.4399918381989002,-0.053733197622746226,0.11056589563079178
1772741651594872800,6.637872802734375,0.45455637012422084,-0.028117146861739457,0.24163068167194723
1772741651604887800,6.6478876953125,0.28172786039113995,0.05365381224360317,0.29829525657147166
1772741651614903800,6.65790380859375,0.06975508874952793,0.057688328456692396,0.2219861430685967
1772741651624919000,6.6679189453125,-0.14521101948916912,0.08043784733805805,0.11218524046093224
1772741651634934800,6.677934814453125,-0.29775895773768424,0.10316672529019415,0.03759564422704279
1772741651644950000,6.687949951171875,-0.3304080124080181,-0.0022580445924773812,-0.047593598889186975
1772741651654965800,6.6979658203125,-0.1341577105551958,-0.045201004664227364,-0.15775215582810342
1772741651664981000,6.70798095703125,0.15929682798683642,-0.014723996803350745,-0.12917911842502652
1772741651674996700,6.717996826171875,0.4392997642815113,0.009523103692010045,-0.013410539584606885
1772741651685012000,6.728011962890625,0.6262520764350891,-0.024288163158111272,0.033802389423921705
1772741651695027700,6.73802783203125,0.6239128198325634,-0.12809011761192232,0.017736805285885927
1772741651705043000,6.74804296875,0.4175578880727291,-0.1819275793267414,-0.0909413038369268
1772741651715058700,6.75805859375,0.24942484267950057,-0.11694821707904338,-0.12308525852933526
1772741651725074000,6.768073974609375,0.09809563257098197,-0.020812815197743473,-0.12084010995104909
1772741651735089700,6.778089599609375,-0.05022036719620228,0.07796104542836546,-0.1404630943097174
1772741651745105000,6.78810498046875,-0.09344050024151801,0.12328753963578491,-0.03869432618394494
1772741651755120600,6.79812060546875,-0.08845102139115334,0.13270919224731623,0.05355820638202131
1772741651765136000,6.808135986328125,-0.0230880301207304,0.060178537837229665,-0.004945128251984715
1772741651775151600,6.818151611328125,0.11389350568354129,-0.008723989203572273,0.04000694315247237
1772741651785166800,6.828166748046875,0.2509025140166283,-0.03440773490592837,0.08045790374539792
1772741651795182800,6.838182861328125,0.15391922660171986,0.02661715409494936,0.12117891345135867
1772741651805197800,6.84819775390625,-0.07540215472579002,0.08905936254784465,0.09075506054982542
1772741651815213800,6.8582138671875,-0.3008563392311334,0.07893836602792144,0.05558620507828891
