time,seconds_elapsed,z,y,x
1772741645024706800,0.067706787109375,-0.15176118910312653,0.14670805633068085,0.3332485854625702
1772741645034721800,0.0777216796875,-0.14759813249111176,0.11358178406953812,0.3120916187763214
1772741645044737800,0.08773779296875,-0.1416923850774765,0.08789729326963425,0.23751895129680634
1772741645054752800,0.097752685546875,-0.13195401430130005,0.051782697439193726,0.13651590049266815
1772741645064768800,0.107768798828125,-0.11887206882238388,-0.015500081703066826,0.03087453544139862
1772741645074783700,0.11778369140625,-0.10228004306554794,-0.08067109435796738,-0.04529906436800957
1772741645084799700,0.1277998046875,-0.09225498884916306,-0.13600300252437592,-0.0831792801618576
1772741645094814700,0.137814697265625,-0.0972401574254036,-0.14715978503227234,-0.09446734935045242
1772741645104830700,0.147830810546875,-0.10977110266685486,-0.10206671059131622,-0.08501751720905304
1772741645114845700,0.157845703125,-0.117185078561306,-0.04420847073197365,-0.06307972967624664
1772741645124861700,0.16786181640625,-0.11765642464160919,-0.006020464934408665,-0.04208694025874138
1772741645134876700,0.177876708984375,-0.11269602179527283,0.002969567198306322,-0.03606553003191948
1772741645144893000,0.187892822265625,-0.11138154566287994,0.001664853421971202,-0.04507237300276756
1772741645154908000,0.197907958984375,-0.10872344672679901,0.012726825661957264,-0.06244150921702385
1772741645164924000,0.207923828125,-0.08505148440599442,0.02426370419561863,-0.08156955242156982
1772741645174939000,0.21793896484375,-0.04476851597428322,0.021094011142849922,-0.0876665934920311
1772741645184955000,0.227954833984375,-0.02053939923644066,0.023846888914704323,-0.07238379865884781
1772741645194969900,0.237969970703125,-0.013048194348812103,0.03268485516309738,-0.05892685428261757
1772741645204985900,0.24798583984375,-0.003034441266208887,0.05483381822705269,-0.04708109423518181
1772741645215000800,0.258000732421875,0.015305418521165848,0.07731862366199493,-0.04083624854683876
1772741645225016800,0.268016845703125,0.03159100189805031,0.08281610906124115,-0.03878970816731453
1772741645235031800,0.27803173828125,0.038910169154405594,0.07864107191562653,-0.041401203721761703
1772741645245047800,0.2880478515625,0.03908265009522438,0.08206251263618469,-0.034471295773983
1772741645255062800,0.298062744140625,0.03859476000070572,0.08738856762647629,-0.0176148172467947
1772741645265078800,0.308078857421875,0.031700458377599716,0.08818638324737549,-0.0005706989322789013
1772741645275093800,0.31809375,0.027367759495973587,0.07064706832170486,0.006328219547867775
1772741645285109800,0.32810986328125,0.020494701340794563,0.051070064306259155,0.0064519308507442474
1772741645295124700,0.338124755859375,0.01885126531124115,0.02708164043724537,-0.0022366319317370653
1772741645305140700,0.348140625,0.019436392933130264,-0.015708571299910545,-0.02248287945985794
1772741645315155700,0.35815576171875,0.020709384232759476,-0.05261678993701935,-0.03939954563975334
1772741645325172000,0.368171875,0.025918055325746536,-0.049559447914361954,-0.03263162449002266
1772741645335186700,0.378186767578125,0.02485012635588646,-0.006737949326634407,0.00532907247543335
1772741645345203000,0.388202880859375,0.029336927458643913,0.05808829143643379,0.045601461082696915
1772741645355218000,0.398218017578125,0.03263738751411438,0.0763983204960823,0.08631320297718048
1772741645365233000,0.40823291015625,0.02849738299846649,0.07799191027879715,0.09859643876552582
1772741645375249000,0.418248779296875,0.029662780463695526,0.0710943192243576,0.08598291128873825
1772741645385263900,0.428263916015625,0.030108477920293808,0.05189019441604614,0.056825511157512665
1772741645395280000,0.43827978515625,0.02686847746372223,0.030727382749319077,0.02237432636320591
1772741645405294800,0.448294921875,0.020819639787077904,0.005268349312245846,-0.000677449454087764
1772741645415310800,0.458310791015625,0.019100302830338478,0.009746454656124115,0.004927439149469137
1772741645425325800,0.468325927734375,0.018815789371728897,0.03335653617978096,0.01978290267288685
1772741645435341800,0.478341796875,0.019307941198349,0.04010471701622009,0.01731521636247635
1772741645445356800,0.488356689453125,0.022191019728779793,0.020125120878219604,-0.003199939616024494
1772741645455372500,0.49837255859375,0.02849685400724411,-0.013620592653751373,-0.029642466455698013
1772741645465387500,0.508387451171875,0.029839053750038147,-0.042750146239995956,-0.05163656920194626
1772741645475403500,0.518403564453125,0.02607813850045204,-0.050260793417692184,-0.06376780569553375
1772741645485418500,0.52841845703125,0.009543875232338905,-0.058596350252628326,-0.0631176307797432
1772741645495434500,0.5384345703125,-0.008021003566682339,-0.05177786201238632,-0.06640902906656265
1772741645505449500,0.548449462890625,-0.01384628564119339,-0.04589885473251343,-0.07443203032016754
1772741645515465500,0.558465576171875,-0.014737378805875778,-0.04873006418347359,-0.08089658617973328
1772741645525480400,0.56848046875,-0.006203190423548222,-0.05112273991107941,-0.08582804352045059
1772741645535496400,0.578496337890625,0.004431876353919506,-0.04670535400509834,-0.08573003858327866
1772741645545511400,0.588511474609375,0.02017098292708397,-0.029229799285531044,-0.07725246995687485
1772741645555527700,0.598527587890625,0.033991724252700806,-0.017497243359684944,-0.03323547542095184
1772741645565542700,0.608542724609375,0.028907209634780884,0.007082709111273289,0.01866789534687996
1772741645575558700,0.61855859375,0.018443383276462555,0.024108298122882843,0.0535166896879673
1772741645585573600,0.62857373046875,0.014880732633173466,0.03616737946867943,0.06682805716991425
1772741645595589600,0.638589599609375,0.013704945333302021,0.04338374361395836,0.07226250320672989
1772741645605604600,0.6486044921875,0.012288818135857582,0.0442066416144371,0.0702783614397049
1772741645615620600,0.65862060546875,0.009537240490317345,0.05248401314020157,0.06584978848695755
1772741645625635600,0.668635498046875,0.00730880256742239,0.05008012056350708,0.0571446567773819
1772741645635651600,0.678651611328125,0.009714435786008835,0.032842546701431274,0.045155104249715805
1772741645645666600,0.68866650390625,0.013096679002046585,0.027789326384663582,0.03985318914055824
1772741645655682600,0.6986826171875,0.016334816813468933,0.032269030809402466,0.04049474373459816
1772741645665697500,0.708697509765625,0.010373538359999657,0.034029893577098846,0.04050801321864128
1772741645675713500,0.718713623046875,0.001859412994235754,0.018025627359747887,0.03816176950931549
1772741645685728500,0.728728515625,-0.0030175764113664627,0.00864974781870842,0.04209713637828827
1772741645695744500,0.73874462890625,-0.005884735845029354,0.008095543831586838,0.05120142176747322
1772741645705759500,0.748759521484375,-0.009099672548472881,0.002895317506045103,0.053633853793144226
1772741645715775500,0.758775390625,-0.003071341197937727,-0.0005641288589686155,0.045137569308280945
1772741645725790500,0.76879052734375,0.011590128764510155,-0.0007472163997590542,0.02905350551009178
1772741645735806700,0.778806640625,0.018814485520124435,-0.0016782577149569988,0.0043220603838562965
1772741645745821400,0.788821533203125,0.018472325056791306,-0.00532088428735733,-0.029862526804208755
1772741645755837700,0.798837646484375,0.013475969433784485,-0.014527698047459126,-0.06461784243583679
1772741645765852700,0.808852783203125,0.006327040959149599,-0.03528409078717232,-0.09835419058799744
1772741645775868700,0.81886865234375,0.0025549400597810745,-0.06919386237859726,-0.11590149253606796
1772741645785883600,0.828883544921875,0.0044925631955266,-0.06731542199850082,-0.12216278165578842
1772741645795899600,0.838899658203125,0.0019247429445385933,-0.05370800197124481,-0.09147331118583679
1772741645805914600,0.84891455078125,-0.01299137994647026,-0.012645180337131023,-0.03398881107568741
1772741645815930600,0.8589306640625,-0.027506407350301743,0.03757297992706299,0.031024808064103127
1772741645825945600,0.868945556640625,-0.03813067451119423,0.058245204389095306,0.07458578050136566
1772741645835961600,0.878961669921875,-0.03573489561676979,0.051246412098407745,0.08242932707071304
1772741645845976600,0.8889765625,-0.032694097608327866,0.03872611001133919,0.06931484490633011
1772741645855992600,0.89899267578125,-0.036732252687215805,0.026843082159757614,0.04794563353061676
1772741645866007600,0.909007568359375,-0.04484470933675766,0.01937049813568592,0.025350667536258698
1772741645876023600,0.9190234375,-0.051439233124256134,0.010788729414343834,0.006477375980466604
1772741645886038500,0.92903857421875,-0.05187051370739937,0.013577301055192947,-0.014619756489992142
1772741645896054500,0.939054443359375,-0.05152643099427223,0.019741719588637352,-0.025277459993958473
1772741645906069500,0.949069580078125,-0.053422994911670685,0.02488664723932743,-0.029589466750621796
1772741645916085500,0.95908544921875,-0.055775098502635956,0.026245923712849617,-0.02329162321984768
1772741645926100500,0.9691005859375,-0.054137542843818665,0.029712112620472908,-0.005823265295475721
1772741645936116700,0.97911669921875,-0.055176444351673126,0.036316219717264175,0.018161697313189507
1772741645946131500,0.98913134765625,-0.05179029703140259,0.042616456747055054,0.03801950067281723
1772741645956147700,0.999147705078125,-0.04982461780309677,0.0344565287232399,0.04506542533636093
1772741645966162700,1.00916259765625,-0.050355616956949234,0.03387049585580826,0.04464134946465492
1772741645976178700,1.0191787109375,-0.04602345451712608,0.02599845640361309,0.034312013536691666
1772741645986193700,1.029193603515625,-0.04129297286272049,0.017084697261452675,0.027135666459798813
1772741645996209700,1.039209716796875,-0.03540126234292984,0.040789760649204254,0.028954870998859406
1772741646006224600,1.049224609375,-0.03347496688365936,0.054030075669288635,0.02786232903599739
1772741646016240600,1.05924072265625,-0.0378878228366375,0.03708251565694809,0.016140159219503403
1772741646026255600,1.069255615234375,-0.03603299334645271,0.012457032687962055,0.003889058716595173
1772741646036271600,1.079271728515625,-0.03312481939792633,-0.013494405895471573,-0.0049821967259049416
1772741646046286600,1.08928662109375,-0.032685693353414536,-0.02576853707432747,-0.007947234436869621
1772741646056302600,1.099302490234375,-0.035026878118515015,-0.025142695754766464,-0.008629802614450455
1772741646066317600,1.109317626953125,-0.037906140089035034,-0.020383968949317932,-0.013286114670336246
1772741646076333600,1.11933349609375,-0.036884818226099014,-0.024120382964611053,-0.024640236049890518
1772741646086348500,1.1293486328125,-0.03528733551502228,-0.02219592034816742,-0.03659777343273163
1772741646096364500,1.139364501953125,-0.03492008522152901,-0.03995281457901001,-0.05523643642663956
1772741646106379500,1.149379638671875,-0.0426873117685318,-0.17195723950862885,-0.08701147884130478
1772741646116395500,1.1593955078125,-0.06773487478494644,-0.16842667758464813,-0.10137151181697845
1772741646126410500,1.169410400390625,-0.08225789666175842,-0.14974673092365265,-0.10296807438135147
1772741646136426800,1.1794267578125,-0.07879377156496048,-0.07440276443958282,-0.07342996448278427
1772741646146441700,1.189441650390625,-0.0684720054268837,-0.03322158008813858,-0.03554361313581467
1772741646156457700,1.199457763671875,-0.05121632292866707,-0.01925143599510193,-0.006420345976948738
1772741646166472700,1.20947265625,-0.03652133047580719,-0.0005379409994930029,0.009814228862524033
1772741646176488700,1.21948876953125,-0.027750473469495773,-0.00025537959299981594,0.01604709029197693
1772741646186503700,1.229503662109375,-0.017681829631328583,0.008206956088542938,0.030115123838186264
1772741646196519700,1.239519775390625,-0.007859558798372746,0.03071838989853859,0.04807335138320923
1772741646206534700,1.24953466796875,-0.001988825621083379,0.035123806446790695,0.056951310485601425
1772741646216550700,1.259550537109375,0.0006655468605458736,0.021105462685227394,0.05462530627846718
1772741646226565600,1.269565673828125,-0.004268344957381487,-0.014508772641420364,0.05174928903579712
1772741646236580600,1.27958056640625,-0.02149287238717079,-0.05540267750620842,0.04652576521039009
1772741646246596600,1.2895966796875,-0.03898942470550537,-0.07741430401802063,0.03336944058537483
1772741646256611600,1.299611572265625,-0.044612687081098557,-0.08604294806718826,0.02047494612634182
1772741646266627600,1.309627685546875,-0.02490917593240738,-0.06270613521337509,0.000903949374333024
1772741646276642600,1.319642578125,0.01029009185731411,-0.029698379337787628,-0.013048617169260979
1772741646286658600,1.329658447265625,0.04580467939376831,-0.010923119261860847,-0.015460879541933537
1772741646296673500,1.339673583984375,0.05893139913678169,0.0025524755474179983,-0.004917158745229244
1772741646306689500,1.349689453125,0.05272336304187775,0.01943323202431202,0.0006627091206610203
1772741646316704500,1.35970458984375,0.04827268794178963,0.018993277102708817,0.0031210731249302626
1772741646326720500,1.369720458984375,0.045160308480262756,0.010659745894372463,0.000959147117100656
1772741646336735500,1.379735595703125,0.03711250424385071,-0.02496136538684368,-0.006062809843569994
1772741646346751700,1.389751708984375,0.026912745088338852,-0.04454471543431282,-0.017487293109297752
1772741646356766700,1.3997666015625,0.026470661163330078,-0.05176854133605957,-0.033819928765296936
1772741646366782700,1.40978271484375,0.030284248292446136,-0.0625130906701088,-0.05088496208190918
1772741646376797700,1.419797607421875,0.028005648404359818,-0.06893157958984375,-0.06391261518001556
1772741646386813700,1.429813720703125,0.019196562469005585,-0.06786119192838669,-0.06895604729652405
1772741646396828700,1.43982861328125,0.01639225333929062,-0.05546471104025841,-0.05830793455243111
1772741646406844700,1.4498447265625,0.023663125932216644,-0.00993654690682888,-0.03705768659710884
1772741646416859600,1.459859619140625,0.03369845077395439,0.025103460997343063,-0.012454073876142502
1772741646426875600,1.469875732421875,0.040285542607307434,0.037624455988407135,0.00975737627595663
1772741646436890600,1.479890625,0.03991136699914932,0.04582619294524193,0.017941003665328026
1772741646446906600,1.48990673828125,0.03791743144392967,0.044848404824733734,0.012211058288812637
1772741646456922400,1.49992236328125,0.03456690534949303,0.03401333466172218,0.001319528673775494
1772741646466938400,1.5099384765625,0.030736839398741722,0.02259652130305767,-0.011441608890891075
1772741646476953300,1.519953369140625,0.028273945674300194,0.012704743072390556,-0.02332356944680214
1772741646486969300,1.52996923828125,0.027140086516737938,0.005834142677485943,-0.0246945358812809
1772741646496984600,1.539984619140625,0.028459416702389717,0.001204236876219511,-0.020925097167491913
1772741646507000300,1.550000244140625,0.03019988350570202,0.0006664376705884933,-0.009732968173921108
1772741646517015600,1.560015625,0.03135969489812851,0.007396512199193239,0.008623668923974037
1772741646527031300,1.57003125,0.03260791674256325,0.01509758923202753,0.02353123016655445
1772741646537046500,1.580046630859375,0.03641730174422264,0.014828342944383621,0.028625590726733208
1772741646547062300,1.590062255859375,0.03553774952888489,0.009113612584769726,0.030707329511642456
1772741646557077500,1.600077392578125,0.03513002023100853,0.001953970408067107,0.02874458022415638
1772741646567093200,1.61009326171875,0.03509468585252762,-0.01022606436163187,0.02642698399722576
1772741646577108500,1.6201083984375,0.04045403376221657,-0.013869534246623516,0.020425017923116684
1772741646587124200,1.630124267578125,0.04282534122467041,-0.017514728009700775,0.0088998107239604
1772741646597139500,1.640139404296875,0.04030013084411621,-0.03437839820981026,-0.011517579667270184
1772741646607155200,1.6501552734375,0.03816773369908333,-0.05196642875671387,-0.030590621754527092
1772741646617170400,1.66017041015625,0.031063754111528397,-0.054772600531578064,-0.03507937863469124
1772741646627186200,1.670186279296875,0.021611101925373077,-0.046481553465127945,-0.031111927703022957
1772741646637201400,1.680201416015625,0.006310709286481142,-0.04428550973534584,-0.0248151496052742
1772741646647217200,1.690217041015625,-0.008223732933402061,-0.047348760068416595,-0.01575389690697193
1772741646657232400,1.700232421875,-0.009265029802918434,-0.016471272334456444,-0.009264040738344193
1772741646667248400,1.710248291015625,-0.008468206971883774,0.0058617014437913895,0.01131103653460741
1772741646677263400,1.720263427734375,-0.011918598785996437,0.021613767370581627,0.034109026193618774
1772741646687279400,1.730279296875,-0.01788153499364853,0.018123898655176163,0.04488491639494896
1772741646697294600,1.740294677734375,-0.01367161050438881,0.013574685901403427,0.04873079061508179
1772741646707310300,1.750310302734375,-0.009894926100969315,0.011800547130405903,0.041922684758901596
1772741646717325600,1.76032568359375,-0.0071609243750572205,0.009558431804180145,0.020869864150881767
1772741646727341300,1.77034130859375,-0.007785819936543703,0.009184461086988449,-0.004490409046411514
1772741646737356500,1.7803564453125,-0.0071780867874622345,0.0040695942007005215,-0.03148394450545311
1772741646747372300,1.790372314453125,-0.00947467889636755,-0.0106272641569376,-0.05042695254087448
1772741646757387500,1.800387451171875,-0.018147796392440796,-0.0239353459328413,-0.05714717507362366
1772741646767403300,1.8104033203125,-0.021321125328540802,-0.03000986948609352,-0.03929579630494118
1772741646777418500,1.82041845703125,-0.019714707508683205,-0.02886870503425598,-0.004865914583206177
1772741646787434200,1.830434326171875,-0.019520001485943794,-0.01657698303461075,0.03976133465766907
1772741646797449500,1.840449462890625,-0.016109824180603027,0.004523507785052061,0.07851245999336243
1772741646807465200,1.85046533203125,-0.00831404235213995,0.02017899416387081,0.09669607132673264
1772741646817480400,1.86048046875,0.0015018363483250141,0.02990805357694626,0.09623295068740845
1772741646827496200,1.87049609375,0.010028630495071411,0.02041885443031788,0.06524757295846939
1772741646837511400,1.880511474609375,0.01453949324786663,-0.0016843164339661598,0.01200033351778984
1772741646847527200,1.890527099609375,0.017962511628866196,-0.029429616406559944,-0.04292654991149902
1772741646857542400,1.90054248046875,0.011804484762251377,-0.051877669990062714,-0.08785142004489899
1772741646867558400,1.910558349609375,0.006956762168556452,-0.06121750921010971,-0.10971366614103317
1772741646877573400,1.920573486328125,-0.0008239292073994875,-0.05859136953949928,-0.11558780074119568
1772741646887589400,1.93058935546875,-0.010150887072086334,-0.04216375946998596,-0.08983496576547623
1772741646897604400,1.940604248046875,-0.024281352758407593,0.002764566335827112,-0.04325547814369202
1772741646907620400,1.950620361328125,-0.034421876072883606,0.03497098386287689,0.0034435722045600414
1772741646917635300,1.96063525390625,-0.034894589334726334,0.04547236114740372,0.030314069241285324
1772741646927651300,1.9706513671875,-0.03362055495381355,0.04562931880354881,0.03184179589152336
1772741646937666300,1.980666259765625,-0.029830344021320343,0.03444244712591171,0.013849478214979172
1772741646947682300,1.990682373046875,-0.027759555727243423,0.021660111844539642,-0.015504272654652596
1772741646957697300,2.000697265625,-0.028676748275756836,0.00823192112147808,-0.04496628791093826
1772741646967713300,2.01071337890625,-0.03628211468458176,-0.0032133350614458323,-0.0660642459988594
1772741646977728300,2.020728271484375,-0.0436585359275341,-0.0018987988587468863,-0.08056489378213882
1772741646987744300,2.030744140625,-0.05011575669050217,-0.0016810402739793062,-0.08265523612499237
1772741646997759200,2.04075927734375,-0.053833261132240295,0.004524657502770424,-0.08389812707901001
1772741647007775200,2.050775146484375,-0.05214691907167435,0.012340404093265533,-0.08203379809856415
1772741647017790200,2.060790283203125,-0.04535346478223801,0.024152856320142746,-0.06618878990411758
1772741647027806200,2.07080615234375,-0.04271148890256882,0.03631583973765373,-0.04129243642091751
1772741647037821200,2.0808212890625,-0.04694964364171028,0.03564045950770378,-0.011414964683353901
1772741647047837200,2.090837158203125,-0.04627920687198639,0.04030691459774971,0.016847621649503708
1772741647057852200,2.10085205078125,-0.04260510951280594,0.04223690927028656,0.03786901757121086
1772741647067868400,2.110868408203125,-0.03631730005145073,0.0420786514878273,0.04578808322548866
1772741647077883400,2.12088330078125,-0.029081493616104126,0.03280872106552124,0.039245761930942535
1772741647087899400,2.1308994140625,-0.024124369025230408,0.009912777692079544,0.02021706849336624
1772741647097914400,2.140914306640625,-0.020922183990478516,-0.008953321725130081,-0.007552777417004108
1772741647107930400,2.150930419921875,-0.024371124804019928,-0.03256269916892052,-0.02884497493505478
1772741647117945300,2.1609453125,-0.028259076178073883,-0.04141265153884888,-0.0441347174346447
1772741647127960300,2.170960205078125,-0.028220370411872864,-0.042084950953722,-0.0430455356836319
1772741647137976300,2.180976318359375,-0.03411075100302696,-0.022092869505286217,-0.023104317486286163
1772741647147991300,2.1909912109375,-0.03759987652301788,0.0017895239870995283,0.003096039639785886
1772741647158007300,2.20100732421875,-0.04235415160655975,0.018866777420043945,0.02308839000761509
1772741647168022300,2.211022216796875,-0.04203777015209198,0.030377771705389023,0.029153192415833473
1772741647178038300,2.221038330078125,-0.041161589324474335,0.024838130921125412,0.02191658318042755
1772741647188053200,2.23105322265625,-0.035025786608457565,0.014542516320943832,0.0037032165564596653
1772741647198069200,2.2410693359375,-0.03208805248141289,0.009483842179179192,-0.01572374440729618
1772741647208084200,2.251084228515625,-0.02983241342008114,0.011403417214751244,-0.021342243999242783
1772741647218100200,2.261100341796875,-0.027716532349586487,0.01691935583949089,-0.021969152614474297
1772741647228115200,2.271115234375,-0.025539308786392212,0.011605510488152504,-0.024109411984682083
1772741647238131200,2.281131103515625,-0.024825315922498703,0.0009587248787283897,-0.024762418121099472
1772741647248146200,2.291146240234375,-0.02090555801987648,-0.00022658566012978554,-0.01495766919106245
1772741647258162200,2.301162109375,-0.017920687794685364,0.007296045310795307,0.0001903912052512169
1772741647268177200,2.31117724609375,-0.015186918899416924,0.011375869624316692,0.010695664212107658
1772741647278193400,2.321193359375,-0.012114164419472218,0.01193699799478054,0.013721548020839691
1772741647288208400,2.33120849609375,-0.008508184924721718,-0.0011902251280844212,0.005255652591586113
1772741647298224400,2.341224365234375,-0.0028066232334822416,-0.013683113269507885,-0.004960233345627785
1772741647308239400,2.3512392578125,-0.003395418170839548,-0.015943994745612144,-0.009795047342777252
1772741647318255400,2.36125537109375,-0.0024425392039120197,-0.008840012364089489,-0.011907466687262058
1772741647328270300,2.371270263671875,-0.0024422137066721916,-0.01183870155364275,-0.012174820527434349
1772741647338286300,2.381286376953125,0.0020550661720335484,0.00368539709597826,0.003182297805324197
1772741647348301300,2.39130126953125,0.0007649422623217106,0.02292601764202118,0.0257289856672287
1772741647358317300,2.4013173828125,-0.0009551933035254478,0.02954903244972229,0.03712305426597595
1772741647368332300,2.411332275390625,-0.0030739749781787395,0.036927729845047,0.03911711648106575
1772741647378348300,2.421348388671875,-0.003265189938247204,0.02905782125890255,0.027214916422963142
1772741647388363300,2.43136328125,-0.006581328809261322,0.011796419508755207,0.005545197054743767
1772741647398379300,2.441379150390625,-0.009313466027379036,-0.014810689724981785,-0.01730605587363243
1772741647408394200,2.451394287109375,-0.0062967268750071526,-0.022351577877998352,-0.024736754596233368
1772741647418410200,2.46141015625,-0.007005926221609116,-0.01274449098855257,-0.021517792716622353
1772741647428425200,2.47142529296875,-0.006671342998743057,0.0032444889657199383,-0.012283083982765675
1772741647438441200,2.481441162109375,0.0022049727849662304,0.005486071575433016,-0.010558687150478363
1772741647448456200,2.491456298828125,0.0040635038167238235,0.00042243022471666336,-0.017348332330584526
1772741647458472000,2.501471923828125,0.00216200714930892,-0.002442598342895508,-0.02033400349318981
1772741647468487000,2.51148681640625,-0.004560729023069143,-0.006743399426341057,-0.01829247921705246
1772741647478503000,2.5215029296875,-0.009507284499704838,-0.009160750545561314,-0.005473620258271694
1772741647488518000,2.531517822265625,-0.016563212499022484,-0.0026266095228493214,0.00563446618616581
1772741647498534000,2.541533935546875,-0.013617489486932755,-0.000800479669123888,0.007291750982403755
1772741647508548900,2.551548828125,-0.006327706389129162,-0.004635897930711508,-0.002157296985387802
1772741647518564900,2.56156494140625,0.003285772632807493,-0.013158813118934631,-0.017084848135709763
1772741647528579800,2.571579833984375,0.00527157261967659,-0.011821434833109379,-0.019226618111133575
1772741647538595800,2.581595947265625,0.0037527717649936676,-0.006718019023537636,-0.01302518043667078
1772741647548610800,2.59161083984375,-0.0009639817290008068,-0.008409002795815468,-0.008009538054466248
1772741647558626800,2.601626708984375,-0.004909987561404705,-0.013418941758573055,-0.004164465703070164
1772741647568641800,2.611641845703125,-0.01144334301352501,-0.01793690025806427,-0.0030021786224097013
1772741647578658000,2.621657958984375,-0.01548415794968605,-0.022720202803611755,-0.0028506447561085224
1772741647588673000,2.631673095703125,-0.023547057062387466,-0.013074567541480064,0.002064639236778021
1772741647598689000,2.64168896484375,-0.031063564121723175,-0.0006706283893436193,0.004583457019180059
1772741647608704000,2.6517041015625,-0.034759052097797394,0.0016146964626386762,0.003662381786853075
1772741647618720000,2.661719970703125,-0.0366821214556694,-0.006257341243326664,0.0029774168506264687
1772741647628735000,2.67173486328125,-0.030894923955202103,-0.007107484620064497,0.005319078918546438
1772741647638751000,2.6817509765625,-0.02637047879397869,0.0010785399936139584,0.012497896328568459
1772741647648766000,2.691765869140625,-0.02095653861761093,0.006536955013871193,0.01828361302614212
1772741647658782000,2.701781982421875,-0.01276678591966629,0.010196937248110771,0.01924181915819645
1772741647668797000,2.711796875,-0.0064538512378931046,0.009905148297548294,0.019307415932416916
1772741647678813000,2.72181298828125,-0.010955393314361572,0.017839238047599792,0.018037887290120125
1772741647688828000,2.731827880859375,-0.01669630967080593,0.029743598774075508,0.018574541434645653
1772741647698844000,2.741843994140625,-0.026244807988405228,0.0347929485142231,0.015398189425468445
1772741647708859000,2.75185888671875,-0.02903263457119465,0.02340591885149479,0.006512413267046213
1772741647718875000,2.761875,-0.02357049100100994,0.01550325471907854,-0.006498193833976984
1772741647728889900,2.771889892578125,-0.019599422812461853,0.018448080867528915,-0.008963090367615223
1772741647738905900,2.78190576171875,-0.015017454512417316,0.025829296559095383,-0.004033312667161226
1772741647748920800,2.7919208984375,-0.014243007637560368,0.0384734570980072,-0.00008677435107529163
1772741647758936800,2.801936767578125,-0.01085626520216465,0.04164368286728859,-0.002225026488304138
1772741647768951800,2.811951904296875,-0.008135255426168442,0.03541377931833267,-0.019823700189590454
1772741647778968000,2.821968017578125,-0.005092859733849764,0.019547464326024055,-0.04800793156027794
1772741647788983000,2.831983154296875,-0.0024547609500586987,-0.0004479968920350075,-0.0760740265250206
1772741647798999000,2.8419990234375,0.0033874153159558773,-0.01596597023308277,-0.0939217358827591
1772741647809014000,2.852013916015625,0.004236816894263029,-0.02407042682170868,-0.09417762607336044
1772741647819030000,2.862030029296875,0.004563586320728064,-0.019486593082547188,-0.07363533228635788
1772741647829045000,2.872044921875,0.0004956373013556004,-0.005182067863643169,-0.033802829682826996
1772741647839061000,2.88206103515625,-0.00621765898540616,0.004841004963964224,0.0014086886076256633
1772741647849076000,2.892075927734375,-0.010125907137989998,0.005986133124679327,0.02417762205004692
1772741647859092000,2.902092041015625,-0.009135743603110313,0.009612027555704117,0.03643561899662018
1772741647869107000,2.91210693359375,-0.012296563014388084,0.007973836734890938,0.04078686237335205
1772741647879123000,2.922123046875,-0.01701168902218342,0.013425860553979874,0.041660912334918976
1772741647889138000,2.932137939453125,-0.017991285771131516,0.022462032735347748,0.03805829957127571
1772741647899154000,2.94215380859375,-0.022396687418222427,0.02458616904914379,0.02095920778810978
1772741647909169000,2.9521689453125,-0.028655530884861946,0.009064796380698681,-0.007078496273607016
1772741647919185000,2.962184814453125,-0.030944785103201866,-0.00730672013014555,-0.035241689532995224
1772741647929199900,2.972199951171875,-0.030117962509393692,-0.026537032797932625,-0.055359140038490295
1772741647939216000,2.9822158203125,-0.02769102156162262,-0.02013479359447956,-0.0462828204035759
1772741647949230800,2.99223095703125,-0.025609171018004417,0.0028139622882008553,-0.016165636479854584
1772741647959247000,3.0022470703125,-0.035167258232831955,0.025659624487161636,0.021357236430048943
1772741647969261800,3.01226171875,-0.04017361253499985,0.03855017200112343,0.043921470642089844
1772741647979278000,3.022278076171875,-0.041186414659023285,0.039362967014312744,0.04420696198940277
1772741647989293000,3.03229296875,-0.0365079790353775,0.027905533090233803,0.02612893655896187
1772741647999309000,3.04230908203125,-0.03202508017420769,0.007237273268401623,-0.004128835164010525
1772741648009324000,3.052323974609375,-0.022887449711561203,-0.007454809732735157,-0.027780089527368546
1772741648019340000,3.062340087890625,-0.01619865372776985,-0.003833709517493844,-0.03177802637219429
1772741648029355000,3.07235498046875,-0.0139519227668643,0.0020858587231487036,-0.02406558021903038
1772741648039371000,3.08237109375,-0.01304671447724104,0.00032604183070361614,-0.01064245030283928
1772741648049386000,3.092385986328125,-0.007681630551815033,0.006879208609461784,0.009399929083883762
1772741648059402000,3.102402099609375,-0.004795829299837351,-0.0016929744742810726,0.025145869702100754
1772741648069417000,3.1124169921875,-0.0033291648142039776,-0.015355479903519154,0.03345920518040657
1772741648079433000,3.122432861328125,-0.00282476213760674,-0.020336391404271126,0.04223591834306717
1772741648089448000,3.132447998046875,-0.0038178255781531334,-0.007351181469857693,0.05156642571091652
1772741648099464000,3.1424638671875,-0.002301421482115984,0.001716881524771452,0.0545923076570034
1772741648109479000,3.15247900390625,0.0022032265551388264,0.010522691532969475,0.04443858936429024
1772741648119495000,3.162494873046875,0.01069578155875206,0.011265447363257408,0.028340313583612442
1772741648129510000,3.172510009765625,0.010934073477983475,0.0009869455825537443,0.0030889916233718395
1772741648139526000,3.18252587890625,0.015868378803133965,-0.012120334431529045,-0.021055225282907486
1772741648149540900,3.192540771484375,0.01802077703177929,-0.009304406121373177,-0.0334039144217968
1772741648159557000,3.20255712890625,0.017255118116736412,-0.007361630443483591,-0.03445906192064285
1772741648169572000,3.212572021484375,0.010481953620910645,-0.009039361961185932,-0.0287079606205225
1772741648179588000,3.222588134765625,0.0009204060770571232,-0.004872048273682594,-0.01261874008923769
1772741648189603000,3.23260302734375,-0.0034443321637809277,0.005244300700724125,0.010110384784638882
1772741648199619000,3.242619140625,-0.00777596328407526,0.013364545069634914,0.027592971920967102
1772741648209634000,3.252634033203125,-0.006611394230276346,0.013311672955751419,0.03290875628590584
1772741648219650000,3.262650146484375,-0.0028462170157581568,0.0052119349129498005,0.02208460122346878
1772741648229665000,3.2726650390625,-0.001809920184314251,-0.0013514081947505474,0.006911017931997776
1772741648239681000,3.282680908203125,-0.002205932280048728,-0.00842050276696682,-0.007926784455776215
1772741648249696000,3.292696044921875,0.0010390114039182663,-0.006133175455033779,-0.01431949157267809
1772741648259712000,3.3027119140625,0.0015492727980017662,0.0008384468965232372,-0.009733527898788452
1772741648269727000,3.31272705078125,0.0030581592582166195,0.00861752312630415,0.00044556334614753723
1772741648279743000,3.322742919921875,0.0005819518119096756,0.004421979188919067,0.012421266175806522
1772741648289758000,3.332758056640625,0.0016501457430422306,-0.0005828994326293468,0.023901088163256645
1772741648299774000,3.34277392578125,0.002075186464935541,0.008084092289209366,0.03796284645795822
1772741648309789000,3.352788818359375,0.003825121559202671,0.014678455889225006,0.04510503634810448
1772741648319805000,3.362804931640625,0.001664232462644577,0.01259692944586277,0.039623185992240906
1772741648329820000,3.37281982421875,0.0022922339849174023,-0.0029861358925700188,0.015231965109705925
1772741648339836000,3.3828359375,0.007145844865590334,-0.027596406638622284,-0.008142332546412945
1772741648349851000,3.392850830078125,0.014390651136636734,-0.03659101203083992,-0.01853346824645996
1772741648359867100,3.4028671875,0.02032896876335144,-0.03420189023017883,-0.008999616838991642
1772741648369882000,3.412882080078125,0.027784960344433784,-0.023004913702607155,0.012034252285957336
1772741648379898000,3.422898193359375,0.03263883665204048,-0.0033715576864778996,0.03329240158200264
1772741648389913000,3.4329130859375,0.03424990177154541,0.01360907219350338,0.05411279946565628
1772741648399929000,3.44292919921875,0.037164732813835144,0.01812472753226757,0.061422642320394516
1772741648409944000,3.452944091796875,0.03507610410451889,0.020191246643662453,0.058023832738399506
1772741648419960000,3.4629599609375,0.03126538544893265,0.006734294816851616,0.04897867143154144
1772741648429975000,3.47297509765625,0.03178567811846733,0.006731472443789244,0.057244133204221725
1772741648439991000,3.482990966796875,0.032941222190856934,0.02080627903342247,0.0729551836848259
1772741648450006000,3.493006103515625,0.036598071455955505,0.03441716730594635,0.0855432078242302
1772741648460021200,3.503021240234375,0.04096272587776184,0.04143699258565903,0.0891435369849205
1772741648470036200,3.5130361328125,0.0430058091878891,0.037145428359508514,0.0787910744547844
1772741648480052500,3.523052490234375,0.05090208351612091,0.023191530257463455,0.0575110949575901
1772741648490067500,3.5330673828125,0.061314575374126434,0.018524091690778732,0.0393342599272728
1772741648500083500,3.54308349609375,0.059324391186237335,0.015769582241773605,0.026734579354524612
1772741648510098400,3.553098388671875,0.04856492578983307,0.00532078230753541,0.015406951308250427
1772741648520114400,3.563114501953125,0.043171226978302,0.0021217933390289545,0.013484148308634758
1772741648530129400,3.57312939453125,0.042165495455265045,0.006050439551472664,0.016550706699490547
1772741648540145400,3.5831455078125,0.04248880222439766,0.010827351361513138,0.023452023044228554
1772741648550160400,3.593160400390625,0.03933073952794075,0.013303373008966446,0.0333620086312294
1772741648560176400,3.60317626953125,0.034913886338472366,0.01680889166891575,0.04010806232690811
1772741648570191400,3.61319140625,0.034951258450746536,0.021080218255519867,0.03740330785512924
1772741648580207400,3.623207275390625,0.033312879502773285,0.020598985254764557,0.028153084218502045
1772741648590222300,3.633222412109375,0.034136511385440826,0.010696923360228539,0.014312966726720333
1772741648600238300,3.64323828125,0.03301585465669632,-0.0005354906897991896,0.004399350378662348
1772741648610253300,3.65325341796875,0.03137466311454773,-0.0014456706121563911,0.0003444473259150982
1772741648620269300,3.663269287109375,0.025409448891878128,0.00238928128965199,-0.007377654779702425
1772741648630284300,3.6732841796875,0.025903496891260147,-0.008821699768304825,-0.018027201294898987
1772741648640300300,3.68330029296875,0.032806940376758575,-0.01041773147881031,-0.024341555312275887
1772741648650315300,3.693315185546875,0.04151352494955063,0.002630493836477399,-0.024217337369918823
1772741648660331500,3.70333154296875,0.036973100155591965,0.0034723191056400537,-0.03335783630609512
1772741648670346200,3.71334619140625,0.03201459348201752,-0.015234621241688728,-0.05102086439728737
1772741648680362500,3.723362548828125,0.02558811940252781,-0.035138025879859924,-0.0639268085360527
1772741648690377500,3.73337744140625,0.02235492318868637,-0.033483460545539856,-0.0650445967912674
1772741648700393500,3.7433935546875,0.012861551716923714,-0.02256157249212265,-0.058961667120456696
1772741648710408400,3.753408447265625,0.007603700738400221,-0.01983622834086418,-0.05605758726596832
1772741648720424400,3.763424560546875,0.0016800318844616413,-0.024795569479465485,-0.062396708875894547
1772741648730439400,3.773439453125,-0.001039260532706976,-0.03010398894548416,-0.06935448944568634
1772741648740455400,3.783455322265625,0.001662782859057188,-0.017250243574380875,-0.06438369303941727
1772741648750470400,3.793470458984375,-0.0026322752237319946,-0.012246271595358849,-0.04227446764707565
1772741648760486400,3.803486328125,-0.010708844289183617,0.0035185774322599173,-0.008688277564942837
1772741648770501400,3.81350146484375,-0.018219608813524246,0.021656785160303116,0.02231084555387497
1772741648780517400,3.823517333984375,-0.022417282685637474,0.024963365867733955,0.046292610466480255
1772741648790532400,3.833532470703125,-0.019255638122558594,0.02888910099864006,0.05163115635514259
1772741648800548400,3.84354833984375,-0.01676345057785511,0.021021591499447823,0.04010472819209099
1772741648810563300,3.853563232421875,-0.009568951092660427,0.002338042017072439,0.01277920976281166
1772741648820579300,3.863579345703125,-0.005736662074923515,-0.006550258491188288,-0.014162659645080566
1772741648830594300,3.87359423828125,-0.005971408449113369,-0.009434496983885765,-0.034594517201185226
1772741648840610300,3.8836103515625,-0.009424995630979538,-0.01121162436902523,-0.04863656684756279
1772741648850625300,3.893625244140625,-0.014162460342049599,-0.007134208921343088,-0.050664644688367844
1772741648860641500,3.9036416015625,-0.012251375243067741,-0.0009263809770345688,-0.04756765440106392
1772741648870656500,3.913656494140625,-0.008721861056983471,0.010029194876551628,-0.046151481568813324
1772741648880671200,3.923671142578125,-0.006422221660614014,0.024446483701467514,-0.04577091708779335
1772741648890687500,3.9336875,-0.003895382396876812,0.021671904250979424,-0.05351819097995758
1772741648900702500,3.943702392578125,-0.0037065641954541206,0.0213555209338665,-0.06672853976488113
1772741648910718500,3.953718505859375,-0.004053899552673101,0.009748900309205055,-0.07868669182062149
1772741648920733400,3.9637333984375,-0.009435615502297878,-0.013889051973819733,-0.09094735234975815
1772741648930749400,3.97374951171875,-0.009603187441825867,-0.03380979225039482,-0.08663120120763779
1772741648940765400,3.983765380859375,-0.007552021183073521,-0.029445402324199677,-0.05906028673052788
1772741648950780400,3.993780517578125,-0.007226821966469288,-0.008694189600646496,-0.018841855227947235
1772741648960796400,4.00379638671875,-0.008395949378609657,0.011306682601571083,0.018448790535330772
1772741648970811400,4.013811279296875,-0.012253506109118462,0.025191785767674446,0.03730913624167442
1772741648980827400,4.023827392578125,-0.0127834752202034,0.024593638256192207,0.0353437215089798
1772741648990842400,4.03384228515625,-0.019319286569952965,0.017879605293273926,0.012526881881058216
1772741649000858400,4.0438583984375,-0.024072231724858284,0.005521739833056927,-0.021266235038638115
1772741649010873300,4.053873291015625,-0.028867902234196663,-0.009791499003767967,-0.05882379040122032
1772741649020889300,4.063889404296875,-0.027984265238046646,-0.027086865156888962,-0.08333125710487366
1772741649030904300,4.073904296875,-0.02521653100848198,-0.03654687851667404,-0.08621161431074142
1772741649040920300,4.08392041015625,-0.018449705094099045,-0.025549622252583504,-0.0712989792227745
1772741649050935300,4.093935302734375,-0.023790763691067696,-0.015683049336075783,-0.052915897220373154
1772741649060950300,4.1039501953125,-0.03290276974439621,-0.014023100025951862,-0.028437720611691475
1772741649070966500,4.113966552734375,-0.03667972981929779,0.009869938716292381,0.0037705390714108944
1772741649080982500,4.123982421875,-0.04472806304693222,0.03550472855567932,0.028234072029590607
1772741649090997500,4.13399755859375,-0.04963503032922745,0.05029979720711708,0.03144560009241104
1772741649101012500,4.144012451171875,-0.05038098245859146,0.04014569893479347,0.008885431103408337
1772741649111028500,4.154028564453125,-0.045518580824136734,0.016902640461921692,-0.03154582157731056
1772741649121043500,4.16404345703125,-0.038721393793821335,-0.0067728618159890175,-0.05831192061305046
1772741649131059500,4.1740595703125,-0.031721390783786774,-0.011363934725522995,-0.07046719640493393
1772741649141074400,4.184074462890625,-0.022299394011497498,-0.004476733505725861,-0.06999235600233078
1772741649151090400,4.19409033203125,-0.0198320634663105,0.005433780141174793,-0.058976639062166214
1772741649161106400,4.2041064453125,-0.01887066289782524,0.003036402864381671,-0.04855915158987045
1772741649171121400,4.214121337890625,-0.018282903358340263,-0.003488874528557062,-0.04199392721056938
1772741649181137400,4.224137451171875,-0.018695160746574402,0.0032558473758399487,-0.021975476294755936
1772741649191152400,4.23415234375,-0.02190341241657734,0.0188611913472414,-0.0003947727964259684
1772741649201168400,4.24416845703125,-0.02436790056526661,0.035005807876586914,0.011698108166456223
1772741649211183400,4.254183349609375,-0.02392599545419216,0.04365725815296173,0.006211914122104645
1772741649221199400,4.264199462890625,-0.02073206566274166,0.031157977879047394,-0.011567615903913975
1772741649231214300,4.27421435546875,-0.016279349103569984,0.013347381725907326,-0.030273308977484703
1772741649241230600,4.284230712890625,-0.01089523546397686,0.003975451923906803,-0.03657728061079979
1772741649251245300,4.294245361328125,-0.002197262132540345,-0.002874532015994191,-0.04011886566877365
1772741649261261600,4.304261474609375,0.0025833784602582455,-0.0118270143866539,-0.04023631289601326
1772741649271276500,4.314276611328125,0.006259575951844454,-0.012913727201521397,-0.03362010791897774
1772741649281291500,4.32429150390625,0.0074380249716341496,-0.004188411869108677,-0.02153627946972847
1772741649291307500,4.3343076171875,0.005423371214419603,-0.0006332406774163246,-0.007856500335037708
1772741649301323500,4.344323486328125,0.0045325434766709805,0.008067838847637177,0.0033942898735404015
1772741649311338500,4.35433837890625,0.004836886189877987,0.011629810556769371,0.00495271198451519
1772741649321353500,4.364353515625,0.004791346378624439,0.007149841636419296,-0.00317179411649704
1772741649331369500,4.374369384765625,0.004182310309261084,0.0032244715839624405,-0.0158554594963789
1772741649341385500,4.384385498046875,0.0035751094110310078,-0.013484466820955276,-0.026175474748015404
1772741649351400400,4.394400390625,0.0009468067437410355,-0.01299006026238203,-0.03362422436475754
1772741649361416400,4.40441650390625,0.001015249639749527,-0.00793245155364275,-0.030302997678518295
1772741649371431400,4.414431396484375,-0.0029289512895047665,0.00026739039458334446,-0.0219271183013916
1772741649381447400,4.424447509765625,-0.007022496312856674,0.002122015692293644,-0.007887199521064758
1772741649391462400,4.43446240234375,-0.011746798641979694,0.0020140837877988815,0.013774116523563862
1772741649401478400,4.444478515625,-0.0166318342089653,0.0101255401968956,0.04140680655837059
1772741649411493400,4.454493408203125,-0.02127668261528015,0.021599359810352325,0.0596889853477478
1772741649421509400,4.46450927734375,-0.024366747587919235,0.029109209775924683,0.06495245546102524
1772741649431524400,4.4745244140625,-0.026500234380364418,0.03518906235694885,0.048122189939022064
1772741649441540400,4.484540283203125,-0.03035835549235344,0.020934225991368294,0.014967166818678379
1772741649451555600,4.4945556640625,-0.03086228482425213,0.0008749999105930328,-0.02701759524643421
1772741649461571600,4.504571533203125,-0.025988435372710228,-0.01262136735022068,-0.0608258917927742
1772741649471586800,4.5145869140625,-0.022663122043013573,-0.028058728203177452,-0.07373513281345367
1772741649481602600,4.5246025390625,-0.018726971000432968,-0.03021482191979885,-0.06373415887355804
1772741649491617800,4.53461767578125,-0.017036544159054756,-0.023476431146264076,-0.03969774767756462
1772741649501633500,4.544633544921875,-0.015895113348960876,-0.018705910071730614,-0.01077608484774828
1772741649511648800,4.554648681640625,-0.01803806982934475,-0.010676026344299316,0.017093529924750328
1772741649521664500,4.56466455078125,-0.018788281828165054,-0.005750244949012995,0.04358772188425064
1772741649531679700,4.5746796875,-0.019201133400201797,0.0008540726266801357,0.06099068373441696
1772741649541695500,4.584695556640625,-0.02240092121064663,0.006571346893906593,0.062094833701848984
1772741649551710700,4.594710693359375,-0.02648966945707798,0.0014423899119719863,0.04283987730741501
1772741649561726700,4.604726806640625,-0.026710977777838707,-0.01273681316524744,0.013311280868947506
1772741649571741700,4.61474169921875,-0.027612963691353798,-0.02574968710541725,-0.01437157392501831
1772741649581757700,4.6247578125,-0.0245567187666893,-0.030951904132962227,-0.02749057114124298
1772741649591772700,4.634772705078125,-0.021663730964064598,-0.027792608365416527,-0.02233547531068325
1772741649601788700,4.64478857421875,-0.013441486284136772,-0.02486046962440014,-0.010675622150301933
1772741649611803600,4.6548037109375,-0.01004367507994175,-0.022139567881822586,0.00823674350976944
1772741649621819600,4.664819580078125,-0.007838578894734383,-0.008012030273675919,0.030048830434679985
1772741649631834600,4.674834716796875,-0.011856043711304665,0.0026521708350628614,0.040437888354063034
1772741649641850600,4.6848505859375,-0.02031823992729187,-0.002000903943553567,0.03408811613917351
1772741649651865600,4.694865478515625,-0.021756760776042938,-0.01659630984067917,0.01143853459507227
1772741649661881600,4.704881591796875,-0.014621352776885033,-0.025660645216703415,-0.0009592795977368951
1772741649671896600,4.714896484375,-0.007982920855283737,-0.019643107429146767,-0.0018097821157425642
1772741649681912600,4.72491259765625,-0.003024913603439927,-0.01628486067056656,0.006534433923661709
1772741649691927600,4.734927490234375,0.004008968360722065,-0.012045939452946186,0.013633860275149345
1772741649701943600,4.744943603515625,0.008748861961066723,-0.008646147325634956,0.01956125907599926
1772741649711958500,4.75495849609375,0.007033073343336582,-0.0013097249902784824,0.022461047396063805
1772741649721974500,4.764974609375,0.006129463203251362,-0.004845337476581335,0.013862499967217445
1772741649731989500,4.774989501953125,0.009831905364990234,-0.013581573031842709,-0.002343233907595277
1772741649742005800,4.785005859375,0.012660982087254524,-0.025064855813980103,-0.013670191168785095
1772741649752020500,4.7950205078125,0.008750401437282562,-0.024290120229125023,-0.014536019414663315
1772741649762036700,4.80503662109375,-0.0010830548126250505,-0.012632929719984531,0.0005750228883698583
1772741649772051700,4.8150517578125,-0.00714713241904974,0.008644097484648228,0.021976955235004425
1772741649782067700,4.825067626953125,-0.011102458462119102,0.02204112894833088,0.033540401607751846
1772741649792082700,4.835082763671875,-0.012986291199922562,0.018832726404070854,0.027489084750413895
1772741649802098700,4.8450986328125,-0.00846024788916111,-0.0012634873855859041,0.0047653960064053535
1772741649812113700,4.85511376953125,-0.0061476766131818295,-0.013461347669363022,-0.0058122193440794945
1772741649822129700,4.865129638671875,-0.004966298583894968,-0.014886138960719109,-0.006529142148792744
1772741649832144600,4.87514453125,-0.010630221106112003,-0.014049465768039227,-0.0002404369879513979
1772741649842160600,4.88516064453125,-0.015318183228373528,-0.01145634613931179,0.005394545383751392
1772741649852175600,4.895175537109375,-0.017375148832798004,-0.0031475063879042864,0.013613605871796608
1772741649862191600,4.905191650390625,-0.017196452245116234,0.011058594100177288,0.019374821335077286
1772741649872206600,4.91520654296875,-0.02219647914171219,0.011731314472854137,0.018251027911901474
1772741649882222600,4.92522265625,-0.02412194386124611,-0.001841220073401928,0.011253572069108486
1772741649892237600,4.935237548828125,-0.026116324588656425,0.000632633687928319,0.014685066416859627
1772741649902253600,4.945253662109375,-0.02872355841100216,0.0010624679271131754,0.02607620507478714
1772741649912268500,4.9552685546875,-0.02477690391242504,0.007626410573720932,0.03198103979229927
1772741649922284500,4.965284423828125,-0.018052155151963234,0.015888335183262825,0.03137943148612976
1772741649932299500,4.975299560546875,-0.016045935451984406,0.01830173470079899,0.015565857291221619
1772741649942315800,4.985315673828125,-0.010785127989947796,0.010278429836034775,-0.010414610616862774
1772741649952330800,4.995330810546875,-0.00597001425921917,-0.002443961100652814,-0.035832829773426056
1772741649962346800,5.0053466796875,-0.004418722819536924,-0.004178477451205254,-0.047263119369745255
1772741649972361700,5.01536181640625,-0.006342560984194279,0.00000868597999215126,-0.04714498668909073
1772741649982377700,5.025377685546875,-0.0071657439693808556,0.002305396134033799,-0.038762420415878296
1772741649992392700,5.035392822265625,-0.0026490241289138794,0.009958242997527122,-0.019346091896295547
1772741650002408700,5.04540869140625,-0.0004596393555402756,0.02583680860698223,0.007510820869356394
1772741650012423700,5.055423583984375,-0.005121384281665087,0.03961979225277901,0.028507504612207413
1772741650022439700,5.065439697265625,-0.006384521722793579,0.036246366798877716,0.03298614174127579
1772741650032454700,5.07545458984375,-0.006029284559190273,0.031367845833301544,0.025315018370747566
1772741650042470700,5.085470703125,-0.0032361613120883703,0.029813893139362335,0.008474252186715603
1772741650052485600,5.095485595703125,0.00039502931758761406,0.03039751574397087,-0.01566452905535698
1772741650062501600,5.105501708984375,0.004228649195283651,0.023244531825184822,-0.044040776789188385
1772741650072516600,5.1155166015625,0.005458468105643988,0.010374384000897408,-0.0656745657324791
1772741650082532600,5.12553271484375,0.006515210028737783,0.008280074223876,-0.06902801990509033
1772741650092547600,5.135547607421875,0.00432609161362052,0.013285751454532146,-0.05564537271857262
1772741650102563600,5.1455634765625,0.0035814717411994934,0.013141142204403877,-0.030551737174391747
1772741650112578600,5.15557861328125,0.008763182908296585,0.02249099314212799,0.0010919126216322184
1772741650122594600,5.165594482421875,0.009166119620203972,0.03861057385802269,0.02644840069115162
1772741650132609500,5.175609619140625,0.010834354907274246,0.04819994792342186,0.03706526383757591
1772741650142625800,5.185625732421875,0.009454304352402687,0.04115588963031769,0.02645150013267994
1772741650152640800,5.195640869140625,0.005811572540551424,0.029156172648072243,0.005613318644464016
1772741650162656800,5.20565673828125,0.006474699359387159,0.014134611934423447,-0.019337037578225136
1772741650172671700,5.215671630859375,0.007452255114912987,-0.002944424981251359,-0.039654724299907684
1772741650182687700,5.225687744140625,0.005169393494725227,-0.017162509262561798,-0.049956366419792175
1772741650192702700,5.23570263671875,0.008108608424663544,-0.016632843762636185,-0.042654331773519516
1772741650202718700,5.24571875,0.01133795827627182,-0.011209582909941673,-0.02438371628522873
1772741650212733700,5.255733642578125,0.01121397316455841,0.004230675753206015,-0.002806181786581874
1772741650222749700,5.265749755859375,0.007758521009236574,0.011060086078941822,0.011216426268219948
1772741650232764700,5.2757646484375,0.002488865051418543,0.005642119795084,0.018576044589281082
1772741650242780700,5.28578076171875,-0.0006808293983340263,0.005411489866673946,0.024786803871393204
1772741650252795600,5.295795654296875,-0.0022037425078451633,0.011432847939431667,0.030282163992524147
1772741650262811600,5.305811767578125,-0.005199532024562359,0.011729524470865726,0.03432537615299225
1772741650272826600,5.31582666015625,-0.003940597642213106,0.008562511764466763,0.027434490621089935
1772741650282842600,5.325842529296875,-0.005239953752607107,-0.0035388923715800047,0.011458718217909336
1772741650292857600,5.335857666015625,-0.00454682158306241,-0.021117260679602623,-0.0061574759893119335
1772741650302873600,5.34587353515625,-0.005830198992043734,-0.03876709192991257,-0.01896834746003151
1772741650312888600,5.355888671875,-0.008574586361646652,-0.03635931760072708,-0.014220478013157845
1772741650322904800,5.36590478515625,-0.011639351025223732,-0.026910953223705292,0.0033020563423633575
1772741650332919600,5.37591943359375,-0.014849880710244179,-0.024249309673905373,0.022779183462262154
1772741650342935800,5.385935791015625,-0.014770785346627235,-0.015892576426267624,0.044331613928079605
1772741650352950800,5.39595068359375,-0.015011831186711788,0.0026165153831243515,0.05764167010784149
1772741650362966800,5.405966796875,-0.016514651477336884,0.012039577588438988,0.05648159608244896
1772741650372981800,5.415981689453125,-0.013393044471740723,-0.0010769730433821678,0.029507841914892197
1772741650382997800,5.425997802734375,-0.011725371703505516,-0.016968853771686554,-0.007704506628215313
1772741650393012700,5.4360126953125,-0.009193831123411655,-0.02713070996105671,-0.034879960119724274
1772741650403028700,5.44602880859375,-0.006544784642755985,-0.035760946571826935,-0.05034360662102699
1772741650413043700,5.456043701171875,-0.004555343184620142,-0.03774043172597885,-0.047505732625722885
1772741650423059700,5.466059814453125,-0.0049159349873661995,-0.03317577391862869,-0.02875201590359211
1772741650433074700,5.47607470703125,-0.003016007598489523,-0.017512263730168343,-0.0015364699065685272
1772741650443090700,5.486090576171875,-0.003310286905616522,0.002336010104045272,0.023213084787130356
1772741650453105700,5.496105712890625,0.0023149019107222557,0.005619731266051531,0.030920017510652542
1772741650463122700,5.506122802734375,0.006746136117726564,-0.0018664144445210695,0.023827753961086273
1772741650473137700,5.5161376953125,0.008531489409506321,-0.01437356136739254,0.00916423462331295
1772741650483153700,5.526153564453125,0.007814300246536732,-0.024566009640693665,-0.010351675562560558
1772741650493168600,5.536168701171875,0.001098367851227522,-0.020893607288599014,-0.018111467361450195
1772741650503184600,5.5461845703125,-0.00310303526930511,-0.012395195662975311,-0.015272539108991623
1772741650513199600,5.55619970703125,-0.00574352964758873,0.0005974059458822012,-0.0021663904190063477
1772741650523215600,5.566215576171875,-0.0052865310572087765,0.012379762716591358,0.011667931452393532
1772741650533230600,5.576230712890625,-0.0014861102681607008,0.014890510588884354,0.020168907940387726
1772741650543246600,5.58624658203125,0.003808786626905203,0.014439903199672699,0.02458283305168152
1772741650553261600,5.596261474609375,0.011465553194284439,0.011130220256745815,0.02069256827235222
1772741650563277600,5.606277587890625,0.012830955907702446,-0.0000020596198737621307,0.008859878405928612
1772741650573292500,5.61629248046875,0.014627257362008095,-0.004398925229907036,-0.005642380565404892
1772741650583308500,5.62630859375,0.005283290985971689,-0.010220861993730068,-0.017758430913090706
1772741650593323500,5.636323486328125,-0.0031587225385010242,-0.01545774471014738,-0.023518862202763557
1772741650603339500,5.646339599609375,-0.011339953169226646,-0.007692234590649605,-0.022108718752861023
1772741650613354500,5.6563544921875,-0.015714846551418304,-0.0000061211176216602325,-0.01700299233198166
1772741650623370500,5.66637060546875,-0.015292469412088394,-0.0012351702898740768,-0.017051992937922478
1772741650633385500,5.676385498046875,-0.009162405505776405,-0.0049905069172382355,-0.022518116980791092
1772741650643401500,5.6864013671875,-0.00017077429220080376,-0.007940223440527916,-0.027108874171972275
1772741650653416400,5.69641650390625,0.0014182436279952526,-0.01871979422867298,-0.029219094663858414
1772741650663432700,5.7064326171875,-0.0011394561734050512,-0.02947150729596615,-0.031199153512716293
1772741650673447700,5.71644775390625,-0.0008632256649434566,-0.02944379299879074,-0.017548279836773872
1772741650683463700,5.726463623046875,-0.003612673142924905,-0.013863503001630306,0.003935173153877258
1772741650693478700,5.736478759765625,-0.005863369908183813,-0.001394360326230526,0.017830736935138702
1772741650703494700,5.74649462890625,-0.006592543330043554,0.0015313886106014252,0.02317836321890354
1772741650713509600,5.756509521484375,-0.006554430350661278,0.0015376689843833447,0.016371730715036392
1772741650723525600,5.766525634765625,-0.00981653667986393,0.0003496326971799135,0.0002825085539370775
1772741650733540600,5.77654052734375,-0.005286943167448044,-0.0008523319847881794,-0.017681410536170006
1772741650743556600,5.786556640625,-0.0069578103721141815,0.002538671251386404,-0.031171653419733047
1772741650753571600,5.796571533203125,-0.005754535086452961,0.002116324845701456,-0.038068413734436035
1772741650763587600,5.806587646484375,-0.002406142884865403,0.004597325809299946,-0.040707606822252274
1772741650773602600,5.8166025390625,-0.0015450248029083014,0.0009097089059650898,-0.03505632281303406
1772741650783618600,5.82661865234375,0.003003121819347143,0.005858394782990217,-0.026173880323767662
1772741650793633500,5.836633544921875,0.009021541103720665,0.011192928068339825,-0.014531086198985577
1772741650803649500,5.8466494140625,0.010536346584558487,0.023246662691235542,0.0006316209910437465
1772741650813664500,5.85666455078125,0.006449933163821697,0.0276712067425251,0.0036923643201589584
1772741650823680500,5.866680419921875,-0.000560572138056159,0.024024007841944695,0.001679547131061554
1772741650833695500,5.876695556640625,-0.006700608413666487,0.01529650017619133,-0.01067358162254095
1772741650843711500,5.88671142578125,-0.00946896430104971,0.013593141920864582,-0.02230094186961651
1772741650853726500,5.8967265625,-0.007920898497104645,0.01841253601014614,-0.028247684240341187
1772741650863742500,5.906742431640625,0.0012467671185731888,0.02206799015402794,-0.02488943748176098
1772741650873757700,5.9167578125,0.00801785383373499,0.026764728128910065,-0.0182951707392931
1772741650883773400,5.9267734375,0.013732997700572014,0.03172300383448601,-0.015975823625922203
1772741650893788700,5.93678857421875,0.010850274004042149,0.030667541548609734,-0.019422557204961777
1772741650903804400,5.946804443359375,0.0062754955142736435,0.018204214051365852,-0.027717504650354385
1772741650913819600,5.956819580078125,0.0013094996102154255,0.006647427100688219,-0.03212770074605942
1772741650923835400,5.96683544921875,-0.004930020775645971,0.018827660009264946,-0.02498483471572399
1772741650933850600,5.9768505859375,-0.010517391376197338,0.030397718772292137,-0.0149351442232728
1772741650943866400,5.986866455078125,-0.013362713158130646,0.03802021965384483,-0.005713682156056166
1772741650953881600,5.996881591796875,-0.012330770492553711,0.04053093492984772,-0.0033809361048042774
1772741650963897300,6.0068974609375,-0.016810208559036255,0.02881701849400997,-0.009030831977725029
1772741650973912600,6.01691259765625,-0.018948130309581757,0.007926122285425663,-0.019226955249905586
1772741650983928300,6.02692822265625,-0.017494311556220055,-0.00620620884001255,-0.025900304317474365
1772741650993943600,6.036943603515625,-0.01763291284441948,-0.01177707128226757,-0.022659292444586754
1772741651003959300,6.046959228515625,-0.019791673868894577,-0.01707383245229721,-0.014359550550580025
1772741651013974500,6.056974609375,-0.021854940801858902,-0.030227234587073326,-0.0023876475170254707
1772741651023990300,6.066990234375,-0.01920323260128498,-0.02820243127644062,0.015781236812472343
1772741651034005500,6.077005615234375,-0.013569166883826256,-0.02615719847381115,0.03966868668794632
1772741651044021500,6.087021484375,-0.013936683535575867,-0.014707737602293491,0.07064390927553177
1772741651054036700,6.09703662109375,-0.016128553077578545,-0.008748821914196014,0.11168304085731506
1772741651064052500,6.107052490234375,-0.016960259526968002,0.002107820939272642,0.15021446347236633
1772741651074067700,6.117067626953125,-0.019534943625330925,-0.0031401733867824078,0.1848164051771164
1772741651084082700,6.127082763671875,-0.019720032811164856,-0.013408791273832321,0.20887593924999237
1772741651094098700,6.1370986328125,-0.015816403552889824,-0.028840338811278343,0.21231843531131744
1772741651104113700,6.14711376953125,-0.009692730382084846,-0.05825681611895561,0.1814635843038559
1772741651114129700,6.157129638671875,-0.006511553656309843,-0.07540877908468246,0.1290615350008011
1772741651124144600,6.16714453125,-0.004457990173250437,-0.09243489801883698,0.06383458524942398
1772741651134160600,6.17716064453125,-0.0032631810754537582,-0.1189148798584938,0.005133750848472118
1772741651144175600,6.187175537109375,0.0023025590926408768,-0.13032867014408112,-0.038240354508161545
1772741651154191600,6.197191650390625,0.0019222008995711803,-0.1268138587474823,-0.06971335411071777
1772741651164206600,6.20720654296875,-0.001392369158565998,-0.1179623082280159,-0.09197897464036942
1772741651174222600,6.21722265625,-0.017126381397247314,-0.11578922718763351,-0.1136816143989563
1772741651184237600,6.227237548828125,-0.03329336643218994,-0.0975407138466835,-0.12646371126174927
1772741651194253600,6.237253662109375,-0.03956422582268715,-0.08397572487592697,-0.12915705144405365
1772741651204268500,6.2472685546875,-0.03866274282336235,-0.05804985389113426,-0.12862682342529297
1772741651214284500,6.257284423828125,-0.03663474693894386,-0.03970785066485405,-0.13825789093971252
1772741651224299500,6.267299560546875,-0.0314362570643425,-0.033720534294843674,-0.15386614203453064
1772741651234315500,6.2773154296875,-0.020737983286380768,-0.021063966676592827,-0.17104573547840118
1772741651244330500,6.28733056640625,-0.021451976150274277,-0.01168883964419365,-0.17077037692070007
1772741651254346500,6.297346435546875,-0.03115813434123993,0.0019633350893855095,-0.15494215488433838
1772741651264361700,6.30736181640625,-0.05077550932765007,-0.003008786588907242,-0.12923811376094818
1772741651274377500,6.31737744140625,-0.06405071914196014,-0.01881377212703228,-0.09136153012514114
1772741651284392700,6.327392822265625,-0.07711618393659592,-0.01833094097673893,-0.05161385238170624
1772741651294408400,6.337408447265625,-0.0880810096859932,0.011740908958017826,-0.019963810220360756
1772741651304423700,6.347423583984375,-0.09580231457948685,0.044680483639240265,-0.004179254174232483
1772741651314439400,6.357439453125,-0.09206773340702057,0.07526809722185135,-0.01337739173322916
1772741651324454700,6.36745458984375,-0.08573313802480698,0.05903958901762962,-0.018438996747136116
1772741651334470400,6.377470458984375,-0.0819367840886116,0.03900827839970589,-0.01452935952693224
1772741651344485600,6.387485595703125,-0.08532219380140305,0.03102971240878105,-0.010612915270030499
1772741651354501400,6.39750146484375,-0.0903848186135292,0.020506851375102997,-0.015050597488880157
1772741651364516600,6.4075166015625,-0.08989586681127548,-0.0033191193360835314,-0.03594362735748291
1772741651374532400,6.417532470703125,-0.0815303772687912,-0.030726358294487,-0.0571012943983078
1772741651384547600,6.427547607421875,-0.07851088047027588,-0.0728442519903183,-0.07304484397172928
1772741651394563300,6.437563232421875,-0.07466140389442444,-0.10681482404470444,-0.06994867324829102
1772741651404578600,6.44757861328125,-0.0764387920498848,-0.08299897611141205,-0.03936440125107765
1772741651414594300,6.45759423828125,-0.08597563952207565,-0.05055741220712662,0.018460754305124283
1772741651424609500,6.467609619140625,-0.09774574637413025,-0.030921395868062973,0.06790314614772797
1772741651434625300,6.477625244140625,-0.09842895716428757,-0.023688312619924545,0.08983980864286423
1772741651444640500,6.487640625,-0.08730946481227875,-0.023563411086797714,0.07920287549495697
1772741651454656500,6.497656494140625,-0.0687359869480133,-0.026393000036478043,0.051176611334085464
1772741651464671000,6.5076708984375,-0.04992740973830223,-0.01933828741312027,0.011508826166391373
1772741651474687000,6.51768701171875,-0.04050008952617645,-0.028040951117873192,-0.03940896689891815
1772741651484702000,6.527701904296875,-0.03638497367501259,-0.053453102707862854,-0.08368747681379318
1772741651494718000,6.537718017578125,-0.03672914206981659,-0.06707189232110977,-0.1041167601943016
1772741651504733000,6.54773291015625,-0.04834185540676117,-0.09728012979030609,-0.104106105864048
1772741651514749000,6.5577490234375,-0.05390647053718567,-0.0872756689786911,-0.09452614933252335
1772741651524764000,6.567763916015625,-0.04985899478197098,-0.04635859280824661,-0.05612017214298248
1772741651534780000,6.57777978515625,-0.0452951118350029,-0.004714044276624918,-0.0012117914156988263
1772741651544795000,6.587794921875,-0.040873732417821884,0.010595403611660004,0.048039376735687256
1772741651554811000,6.597810791015625,-0.03971333056688309,0.038254719227552414,0.0719786062836647
1772741651564825900,6.607825927734375,-0.02986416220664978,0.0762295350432396,0.0721391960978508
1772741651574841900,6.617841796875,-0.021789103746414185,0.09486120194196701,0.04959355294704437
1772741651584856800,6.62785693359375,-0.015537599101662636,0.06292830407619476,0.00761654507368803
1772741651594872800,6.637872802734375,-0.007158853113651276,0.011891596019268036,-0.0339268334209919
1772741651604887800,6.6478876953125,-0.0032860843930393457,-0.02647044137120247,-0.05326005071401596
1772741651614903800,6.65790380859375,-0.002066500950604677,-0.03837154060602188,-0.04753337427973747
1772741651624919000,6.6679189453125,-0.00383563875220716,-0.013439292088150978,-0.017138713970780373
1772741651634934800,6.677934814453125,0.0030435724183917046,0.028200563043355942,0.03178355470299721
1772741651644950000,6.687949951171875,0.0041780793108046055,0.04991517588496208,0.06885208934545517
1772741651654965800,6.6979658203125,0.003258751705288887,0.0671226903796196,0.07968953251838684
1772741651664981000,6.70798095703125,0.006130437832325697,0.08173811435699463,0.058051884174346924
1772741651674996700,6.717996826171875,0.01326075755059719,0.07785800099372864,0.009582743048667908
1772741651685012000,6.728011962890625,0.024178652092814445,0.04964261129498482,-0.05495443940162659
1772741651695027700,6.73802783203125,0.026920614764094353,0.03940260037779808,-0.10525397211313248
1772741651705043000,6.74804296875,0.018710089847445488,0.0475875586271286,-0.13302861154079437
1772741651715058700,6.75805859375,-0.0019461580086499453,0.04882262274622917,-0.14387790858745575
1772741651725074000,6.768073974609375,-0.015014022588729858,0.07007411867380142,-0.1280030757188797
1772741651735089700,6.778089599609375,-0.0334777906537056,0.08647147566080093,-0.09575039893388748
1772741651745105000,6.78810498046875,-0.04464549198746681,0.059351176023483276,-0.07659401744604111
1772741651755120600,6.79812060546875,-0.04722874239087105,0.031037721782922745,-0.07066284865140915
1772741651765136000,6.808135986328125,-0.04664231464266777,-0.0016467219684273005,-0.08068884909152985
1772741651775151600,6.818151611328125,-0.04397216811776161,-0.039310164749622345,-0.10623627156019211
1772741651785166800,6.828166748046875,-0.03373684361577034,-0.07375655323266983,-0.12940655648708344
1772741651795182800,6.838182861328125,-0.02073129639029503,-0.08822260051965714,-0.12311191111803055
1772741651805197800,6.84819775390625,-0.012956729158759117,-0.0801745280623436,-0.09333670139312744
1772741651815213800,6.8582138671875,-0.00364445592276752,-0.0692872405052185,-0.045559871941804886
