time,seconds_elapsed,z,y,x
1772741586088210200,0.074210205078125,0.3601648527681827,-0.08673490165565162,0.012874240750819443
1772741586098226400,0.084226318359375,0.050281741994619364,-0.04549684580564499,-0.040745705755800006
1772741586108241200,0.0942412109375,-0.1899935795456171,0.11091156726330519,-0.032250045415386557
1772741586118257400,0.10425732421875,-0.26391689389050005,0.255392957303673,0.051630087863653897
1772741586128273200,0.114273193359375,-0.24883681365847587,0.2960335952498019,0.12355199925824999
1772741586138289200,0.1242890625,-0.158277421811223,0.14188165587075055,0.0925209742438048
1772741586148304100,0.13430419921875,-0.1447498317182064,-0.07647248737104237,-0.012850348418578504
1772741586158320000,0.144320068359375,-0.16603052015602587,-0.0701559611679986,-0.010338584793359041
1772741586168336100,0.154336181640625,-0.10563538042604922,-0.005604395878314972,0.04539375075735152
1772741586178352000,0.16435205078125,0.07528700391352176,-0.07596256508752704,0.093294588964805
1772741586188367000,0.1743671875,0.22261223907768726,-0.1383702136836946,0.1430978267274797
1772741586198383000,0.184383056640625,0.25675474717617036,-0.14106621130201966,0.08142799088656902
1772741586208399400,0.1943994140625,0.17369301760792732,-0.06259064048025757,0.06220701145753264
1772741586218415400,0.204415283203125,0.10374445211291312,0.03697448012139648,0.09294745602756738
1772741586228430300,0.214430419921875,0.059575640040636056,0.04079867805205285,0.13294599667787552
1772741586238446300,0.2244462890625,-0.09769874220788478,-0.022806546298228203,0.20007161370664833
1772741586248462000,0.234462158203125,-0.4463923528909683,0.09768204680141061,0.1607291258122772
1772741586258478000,0.24447802734375,-0.8305781327158213,0.22466497035641222,0.04138100798465311
1772741586268493000,0.2544931640625,-0.7538888607889414,0.0975533241215162,-0.11081161402016877
1772741586278509000,0.264509033203125,-0.3885293619871139,-0.007953187494166195,-0.07991422532275319
1772741586288525000,0.274525146484375,0.03528934004604816,-0.005112940833251923,0.0015503712471574545
1772741586298541300,0.284541259765625,0.36615620213747024,0.007811714930552989,0.05545761026255786
1772741586308556000,0.29455615234375,0.589711275023222,0.11609086959734559,0.18551058891266584
1772741586318572300,0.304572265625,0.6380284389466047,0.12481231978395953,0.16489084860160946
1772741586328588300,0.31458837890625,0.6196230136841535,-0.025428492299653587,0.023024755626171827
1772741586338603300,0.324603271484375,0.6443517967492342,-0.10028936148928477,-0.010548647347465157
1772741586348619300,0.334619384765625,0.6871048968046903,-0.1552967620326206,-0.07531140770241618
1772741586358635300,0.34463525390625,0.6821732856214046,-0.11081924933735281,-0.11878734213970601
1772741586368651300,0.3546513671875,0.6223311035990715,-0.023524247847218065,-0.10379450179971754
1772741586378666200,0.364666259765625,0.4382710057556629,0.05925400687083602,-0.17991444940604268
1772741586388682200,0.37468212890625,0.19240765495002268,0.15147603470068424,-0.17281148553304373
1772741586398697200,0.384697265625,0.06710428197979927,0.1348908836679533,-0.14141849533841014
1772741586408713200,0.394713134765625,-0.1203635784804821,0.031085202887095507,-0.13880524410009384
1772741586418728200,0.404728271484375,-0.32464345753192897,0.04067165413890034,-0.20008644594959912
1772741586428744200,0.414744140625,-0.24884675053060054,-0.04746535113332793,-0.17912768294252454
1772741586438760200,0.42476025390625,-0.15076806909441948,-0.11047556873252615,-0.101926296775043
1772741586448776200,0.434776123046875,-0.23699147756397723,-0.026904227408021685,-0.09070946784242988
1772741586458791200,0.444791259765625,-0.2328407876253128,0.07697086534723639,-0.06830320944078266
1772741586468807200,0.45480712890625,-0.04252396747469902,0.0869045774004422,0.016180442689359188
1772741586478823200,0.4648232421875,0.25654490381777284,-0.03560545679051429,0.05390570464543998
1772741586488839200,0.474839111328125,0.4487076440960169,-0.1177793341409415,0.05654248288981616
1772741586498854100,0.484854248046875,0.37032092060148714,-0.14088046120526268,0.044165085745230315
1772741586508870100,0.4948701171875,0.19074527469575403,-0.09293108941465615,0.021456775657087562
1772741586518886100,0.50488623046875,0.005718962168693542,-0.054941459167655554,0.044172976790741086
1772741586528902400,0.51490234375,-0.13973346486091612,0.01793669350584969,0.059902753103151914
1772741586538917400,0.52491748046875,-0.2735574134171009,0.06274267097050323,0.06939473100453615
1772741586548933400,0.534933349609375,-0.26490532040596004,0.038037725438736375,0.027540698680654167
1772741586558949000,0.54494921875,-0.20140344683229922,0.02285694304490462,-0.006117240771278738
1772741586568965000,0.554965087890625,-0.06900923881828784,0.028721085837949065,0.002109612565115094
1772741586578980000,0.56497998046875,0.00047404725253581996,-0.005190956239216029,0.06437799882106483
1772741586588996000,0.57499609375,0.048074587339162825,-0.04577398224659264,0.0440266271226108
1772741586599012000,0.58501220703125,0.12289105113148689,-0.040580925381835546,0.0534589107260108
1772741586609027000,0.595027099609375,0.19218378306627273,0.011912866639066487,0.10021364763826131
1772741586619043000,0.60504296875,0.192446233394742,0.11519832293810323,0.1433780319083482
1772741586629059000,0.61505908203125,0.22387948253452777,0.14634990559229627,0.1348226772699505
1772741586639075300,0.625075439453125,0.1967594204187393,0.08794069724883884,0.05490794049054384
1772741586649090300,0.63509033203125,0.18309212959408758,-0.02340518804481253,-0.07279496790207922
1772741586659106300,0.645106201171875,0.19767244361042977,-0.04365306283617392,-0.10575221173875034
1772741586669122300,0.655122314453125,0.1178887127995491,-0.002786927304789424,-0.04564692180082202
1772741586679138300,0.66513818359375,0.0191840084195137,0.045104631617665286,-0.013545125749707222
1772741586689153300,0.6751533203125,-0.02111468422114849,0.08297233425173908,-0.05237995638288557
1772741586699169300,0.685169189453125,-0.012118307816982268,0.005635412071086466,-0.10176518792919814
1772741586709185000,0.69518505859375,-0.052422261154651636,-0.13790053207902236,-0.23844423365555703
1772741586719201000,0.705200927734375,-0.03614566461443901,-0.1839549935011193,-0.31096761807464063
1772741586729216000,0.715216064453125,0.11416413931846618,-0.17222992278542368,-0.24286307301111518
1772741586739232300,0.725232177734375,0.22285306209623812,-0.10589309978047386,-0.09608421968333422
1772741586749248300,0.735248291015625,0.17497487411201,0.045944425176363435,-0.007675137737765908
1772741586759264300,0.74526416015625,0.0520581040173769,0.09204752977946773,0.02090432940609753
1772741586769279200,0.755279296875,-0.02230067913532257,0.041261199263576416,0.005074526785314083
1772741586779295200,0.765295166015625,-0.04369359577596187,-0.008621606541331856,-0.007178586392477154
1772741586789311200,0.775311279296875,-0.021791560569405555,-0.01084651604918763,-0.0178817667145282
1772741586799326200,0.785326171875,0.016595160970091817,0.01945394793469459,-0.018923530852422116
1772741586809342200,0.79534228515625,0.06762859811484813,0.056537496187444775,0.07938530607782304
1772741586819358200,0.805358154296875,-0.01239887832403183,0.06737398403296246,0.13600282696522772
1772741586829374200,0.815374267578125,-0.06640460927784443,0.12528729861825705,0.11948927986398339
1772741586839389200,0.82538916015625,-0.015172434690594672,0.11761893768114969,0.14240670265816152
1772741586849405200,0.8354052734375,-0.004511924466490745,0.08553047603564336,0.11941270749643444
1772741586859421200,0.845421142578125,0.030009353816509245,0.07632882285034284,0.03724449270181358
1772741586869437200,0.855437255859375,0.04319792121350765,0.10544851608444004,-0.002992094488069415
1772741586879452200,0.8654521484375,0.023648002091050148,0.06792177237514406,-0.02604337279498577
1772741586889468200,0.87546826171875,0.08005611801147461,0.010073010926041752,-0.06577127981036901
1772741586899484200,0.885484130859375,0.06231821674704551,-0.062170917230844495,-0.09456650859676301
1772741586909500200,0.895500244140625,0.08057108179628848,-0.11325537217678501,-0.1302434597209096
1772741586919515100,0.90551513671875,0.11074468626379966,-0.10510481721330434,-0.15083791946023703
1772741586929531100,0.91553125,0.07115384963154793,-0.09123140935730188,-0.14043182238861918
1772741586939547400,0.92554736328125,0.025679215657711026,-0.0918617614164017,-0.16279204969145356
1772741586949563400,0.9355634765625,0.08102583982646465,-0.08404469445729627,-0.13378062087111176
1772741586959578400,0.945578369140625,0.12910977951586244,-0.019095197624899446,-0.06360979092754424
1772741586969594400,0.955594482421875,0.09187748870849609,-0.0012281900880858302,-0.0690744860742241
1772741586979610000,0.965610107421875,0.18477263002693653,-0.008165862130466849,-0.04205890724621713
1772741586989625000,0.975625,0.1964806034773588,-0.13382853339975698,-0.03584098257943988
1772741586999641000,0.98564111328125,0.04305763595998287,-0.20367137349797412,-0.03925656317658722
1772741587009657000,0.995656982421875,-0.18120353936851025,-0.04769026419669389,0.027602438805252313
1772741587019673000,1.005673095703125,-0.3017939123421907,0.10604841820634901,0.11236863420382141
1772741587029688000,1.01568798828125,-0.23048224180042742,0.13342282040938735,0.14106800140030681
1772741587039704000,1.0257041015625,-0.0571948823839426,0.00753642338681966,0.12343947879448533
1772741587049720300,1.03572021484375,0.05467442399561405,-0.0682218147676438,0.11808233567550777
1772741587059736300,1.045736328125,0.05081482595801353,-0.05297814147174358,0.14326229657419026
1772741587069751300,1.055751220703125,0.029153029248118398,-0.060094238820951426,0.1552306014612317
1772741587079767300,1.065767333984375,-0.05301029017567634,0.011110628611780702,0.11682970526590943
1772741587089783300,1.075783203125,-0.1739683274179697,0.11845782705754972,0.06615494536571204
1772741587099799000,1.085799072265625,-0.3074824793726206,0.18870149390846488,0.13444018075838685
1772741587109814300,1.095814208984375,-0.3588426642537117,0.1344006524655968,0.055181788995862006
1772741587119830000,1.105830078125,-0.2121656638652086,0.061220539437141265,0.04006532227620482
1772741587129846000,1.115845947265625,0.06163549517989158,-0.05113463706348557,0.06724142542816698
1772741587139861000,1.125861083984375,0.24738661485016344,-0.07024307776244823,0.06090506201349198
1772741587149877200,1.135877197265625,0.2820546081274748,-0.07127762214168906,0.036700522018224
1772741587159893200,1.145893310546875,0.30018121644854545,-0.08087848551133647,-0.09862389422878623
1772741587169909200,1.1559091796875,0.3649433192163706,-0.015360513741755857,-0.2034589180573821
1772741587179924200,1.16592431640625,0.5534960523039102,-0.03701741964740213,-0.2257213110089302
1772741587189940200,1.175940185546875,0.6085159287363291,0.027774359022767748,-0.137580524610728
1772741587199956200,1.185956298828125,0.6509370203584433,0.1592273977461271,0.0011843144137412308
1772741587209972200,1.19597216796875,0.6539274343460798,-0.02473243632689118,0.007205036007985472
1772741587219987200,1.2059873046875,0.5049544319748878,-0.24011611239053307,-0.13574592959471046
1772741587230003200,1.216003173828125,0.2530266665637493,-0.2806246666559018,-0.34533107544742525
1772741587240019200,1.226019287109375,0.09851765737533569,-0.2191919092401862,-0.3531714136842638
1772741587250035200,1.23603515625,0.03553893089294433,0.01409380000787787,-0.20260178977139293
1772741587260050200,1.24605029296875,-0.1956575966566801,0.2181332305001095,-0.07838555445075035
1772741587270066200,1.256066162109375,-0.3314537220686674,0.32388982615303247,-0.09017316900864243
1772741587280082200,1.266082275390625,-0.21454875960946082,0.21485084782857447,-0.13861447076834738
1772741587290097200,1.27609716796875,0.09754852008223533,-0.00818180861826986,-0.16004874233268201
1772741587300113200,1.286113037109375,0.4006470852822065,-0.21708828802444038,-0.1435003431137651
1772741587310129200,1.296129150390625,0.48028819275200363,-0.30679102650973944,-0.12857830298766493
1772741587320145200,1.306145263671875,0.42483226298987864,-0.22469196796119212,-0.12270436945296823
1772741587330160000,1.31616015625,0.30859833166003225,-0.039267733024572954,-0.09174005299918353
1772741587340176100,1.326176025390625,0.24976035824418066,0.10799206308741122,-0.0036062808636575937
1772741587350192400,1.3361923828125,0.10191256051063537,0.27520359145523976,0.13990509510077534
1772741587360208400,1.34620849609375,-0.027141104903817177,0.332327290032804,0.1954476802330464
1772741587370223400,1.356223388671875,-0.04350713329315185,0.15969748120959848,0.1363423611178994
1772741587380239400,1.3662392578125,-0.14931027150154114,-0.035947036769799885,0.01676218810006976
1772741587390255000,1.376255126953125,-0.32217677515745163,-0.08226886215750127,-0.0970318757969886
1772741587400271400,1.386271240234375,-0.3577110298752785,-0.07324011785369366,-0.18603373600393533
1772741587410286300,1.396286376953125,-0.17822189320921897,-0.06754716690909117,-0.10568440719954669
1772741587420302300,1.40630224609375,0.04873158994317055,0.025170060559175908,0.02883446481823921
1772741587430318300,1.416318359375,0.03787058871090412,0.09650527637330815,0.06320215997472405
1772741587440333300,1.426333251953125,-0.14642974762916564,0.15788272340521214,0.061671954732760784
1772741587450349300,1.436349365234375,-0.1786614536702633,0.1313611569055356,0.03701813660003245
1772741587460365600,1.446365478515625,-0.20415420684516428,0.020850242864992468,0.013783610680699348
1772741587470381600,1.456381591796875,-0.23771745375096798,-0.058572363015916194,-0.04843392217084765
1772741587480396500,1.466396484375,-0.06841127292513847,-0.060625733615458005,-0.035404417793080206
1772741587490412500,1.47641259765625,0.2223094567388296,-0.040130752195231614,0.0761027772758156
1772741587500428500,1.486428466796875,0.3557937980771065,-0.016873740449454635,0.17242270541116594
1772741587510444300,1.4964443359375,0.22596213402748105,-0.010444456320628523,0.09024820700623094
1772741587520459500,1.50645947265625,0.07128069088160992,-0.030518490648735314,-0.03722578800134361
1772741587530475300,1.516475341796875,0.012767127114534378,-0.06866369504993781,-0.0156309921130538
1772741587540491300,1.5264912109375,-0.02363397356569767,-0.04087245567431673,0.06544277850836515
1772741587550507500,1.536507568359375,-0.010745850419998168,-0.004259429276455193,0.02607888249978423
1772741587560522500,1.5465224609375,0.02604512636065483,0.010111315376125276,-0.04668079489320516
1772741587570538500,1.55653857421875,0.15515665944218635,-0.010242047350015491,-0.06519421057477592
1772741587580554500,1.566554443359375,0.34384967778325076,-0.07318902698727324,-0.051103579771518706
1772741587590569500,1.576569580078125,0.366785147690773,-0.061196994164772325,-0.02420680501759052
1772741587600585500,1.58658544921875,0.2711468451440334,0.022858550480101256,-0.023640914763137698
1772741587610601500,1.5966015625,0.19692367106974124,0.06864464328959584,-0.013804580403491853
1772741587620617500,1.606617431640625,0.10178981091380118,0.10682499206941574,0.008740355816483497
1772741587630632400,1.616632568359375,-0.07928221102952956,0.08295779426973313,-0.0260861159581691
1772741587640648400,1.6266484375,-0.15250935980379582,0.03525079813394695,-0.0613810820274055
1772741587650664400,1.63666455078125,-0.15496084460914133,0.05954456904893741,-0.056214785305410624
1772741587660680400,1.646680419921875,-0.14693652810752392,0.04047088913610205,-0.04232515696696937
1772741587670695400,1.6566953125,-0.07378244456946849,0.01644935929123312,-0.06345094710402191
1772741587680711400,1.66671142578125,-0.07028232749402523,-0.07716224146718159,-0.10000679995454848
1772741587690727400,1.6767275390625,-0.01965630210638046,-0.10656307146390899,-0.07291055710576475
1772741587700742400,1.686742431640625,-0.00810498052239418,-0.0065029704195447265,0.003272518864646554
1772741587710758400,1.69675830078125,0.05036474410295486,0.05985014613308012,0.06680113431476056
1772741587720774400,1.7067744140625,0.12382336354553698,0.1551754189415835,0.09000570348724722
1772741587730790400,1.716790283203125,0.15403613097965715,0.1411349839556031,0.13611293627619742
1772741587740805400,1.726805419921875,0.1752279720902443,0.03066347034368664,0.11991188919022679
1772741587750821400,1.7368212890625,0.0767839644730091,-0.07701932586515321,0.041267829933762545
1772741587760837600,1.746837646484375,-0.016533786171674728,-0.11897080894783138,-0.030477263589203357
1772741587770853600,1.756853515625,-0.1034054294168949,-0.11793105410393327,-0.11465732966288923
1772741587780868600,1.76686865234375,-0.14802315430045127,-0.04144541499037295,-0.17998320379331706
1772741587790884600,1.776884521484375,-0.07323650112450122,0.05749472384704277,-0.11079480901584028
1772741587800900400,1.786900390625,0.01261456690132618,0.13130471401056273,-0.03732113813459873
1772741587810916400,1.796916259765625,0.030512627163529395,0.11132584715262055,-0.023829203876852986
1772741587820931300,1.806931396484375,-0.06757365305721759,0.034854419227503236,-0.08324643848538399
1772741587830947300,1.816947265625,-0.0014876082092523575,-0.016254841366130857,-0.06176138658188283
1772741587840963300,1.82696337890625,0.1220189444720745,0.005406882278528064,0.032035891208052635
1772741587850978300,1.836978271484375,0.14685527956485747,0.04579613927947357,0.05593691821210086
1772741587860994300,1.846994384765625,0.1936228759586811,-0.034796021837461735,0.024593539312854407
1772741587871010600,1.857010498046875,0.27486206627488136,-0.12135920192170888,-0.03589899637699127
1772741587881026600,1.867026611328125,0.3238385708898306,-0.1384894013502635,-0.039349136830866334
1772741587891041500,1.87704150390625,0.3456827384293079,-0.10222787353750318,0.02232121046669781
1772741587901057500,1.8870576171875,0.16366963624358177,-0.003149732735194266,0.040522856785357
1772741587911073500,1.897073486328125,-0.14823708931207655,0.20311898204591125,-0.03307853212878108
1772741587921089500,1.907089599609375,-0.35302316431999203,0.2825495155049488,-0.03878412335924804
1772741587931104500,1.9171044921875,-0.23608371506929396,0.1602272955036722,-0.06936323988772929
1772741587941120500,1.92712060546875,0.015719547179341316,0.02004230574928224,-0.03578596445657313
1772741587951136300,1.93713623046875,0.17470540952086447,-0.045302620141487566,-0.03394245548173785
1772741587961151500,1.9471513671875,0.30718671129643915,-0.08113640579516068,-0.08862455132715404
1772741587971167200,1.957167236328125,0.43644729745984073,-0.10980820913128554,-0.08670008607059716
1772741587981183500,1.96718359375,0.523751486903429,-0.07382717876033858,-0.036078590727597476
1772741587991199500,1.977199462890625,0.4460048148781061,0.06955478040445595,0.03736643858104944
1772741588001214500,1.98721435546875,0.17975450960397718,0.13195371597120537,0.014349939326569437
1772741588011230500,1.99723046875,-0.05913491053581237,0.1535745048172772,-0.04236373541168868
1772741588021246500,2.00724658203125,-0.18797288737297058,0.1452159696589224,0.011250073615089059
1772741588031262500,2.017262451171875,-0.22116847001016138,0.18709491722835228,0.07906308838613331
1772741588041277400,2.02727734375,-0.1617506508797407,0.1966210713939741,0.11295476352870464
1772741588051293400,2.03729345703125,-0.007432195827364921,0.1743932200328447,0.14237316571474073
1772741588061309400,2.047309326171875,0.22979601310193537,0.08081784136528149,0.1573166139550507
1772741588071324400,2.057324462890625,0.3609422668814659,-0.007670114502776414,0.1550428238041699
1772741588081340700,2.067340576171875,0.26721885804533957,-0.024005729487538336,0.16677651621773837
1772741588091356400,2.0773564453125,0.1369505561441183,0.010572302217688411,0.14753420173972845
1772741588101372400,2.087372314453125,0.012269114464521407,0.008780103304982185,0.058535921729356045
1772741588111387400,2.097387451171875,-0.05969195989668369,0.017814491898287085,-0.02613733468875289
1772741588121403400,2.1074033203125,-0.04914250883162021,-0.021760982768051326,-0.04536715501137078
1772741588131419400,2.11741943359375,-0.02581716282367706,-0.07944107311936095,-0.09214395762495696
1772741588141435400,2.127435302734375,0.041214638441801066,-0.14418814271483568,-0.12071604517996311
1772741588151450400,2.137450439453125,0.06766542299389838,-0.24392187961535527,-0.15119740042239427
1772741588161466400,2.14746630859375,-0.05724982744157314,-0.30817426102906464,-0.2994266717541963
1772741588171482600,2.157482666015625,-0.14557108497321605,-0.2056417602554895,-0.34888913325518367
1772741588181498600,2.16749853515625,-0.1346376030266285,-0.02838936966555193,-0.17928769580982623
1772741588191513600,2.177513671875,-0.03547580252885818,0.049588225038815284,-0.08434278235472738
1772741588201529600,2.187529541015625,0.04889233346283436,0.005236804674938321,-0.13148008884377776
1772741588211545300,2.19754541015625,0.12060498602092265,-0.04584978742916137,-0.10246785630583763
1772741588221560600,2.207560546875,0.1881634415090084,-0.08713265053527429,-0.07632818352952599
1772741588231576300,2.217576416015625,0.18968729007542132,-0.0896575659030117,-0.06787168615572155
1772741588241592300,2.22759228515625,0.2188333050608635,-0.06582054404588415,-0.01615589276999235
1772741588251608300,2.2376083984375,0.1862029550909996,-0.03230287158116698,-0.02491875267922878
1772741588261623300,2.247623291015625,0.11263269196748733,0.046438601901475335,-0.03181443047709763
1772741588271639300,2.257639404296875,0.04219721973836422,0.07012085332199931,-0.00756349405683577
1772741588281655600,2.267655517578125,0.10800737025439738,0.07327581022158265,0.022225787268206475
1772741588291671600,2.277671630859375,0.2245756481051445,-0.0125978349622339,0.03865370191261172
1772741588301686500,2.2876865234375,0.20283260285258292,-0.09263968698633834,0.007078633149340748
1772741588311702500,2.29770263671875,0.03145195384025574,-0.06321885538119823,-0.01755216943398118
1772741588321718500,2.307718505859375,-0.07483575301468372,0.021202545167692006,-0.039246845500171185
1772741588331733500,2.3177333984375,-0.08562544257640838,0.07452727158740162,-0.03264993145316839
1772741588341749500,2.32774951171875,0.021298224094510078,0.10670260779876262,0.021926731256395576
1772741588351765500,2.337765625,0.14423252984583376,0.035484606889821586,0.015557123159244656
1772741588361781200,2.34778125,0.2795931864500046,-0.08863730121087282,0.005711582579836249
1772741588371796500,2.35779638671875,0.26975042234957214,-0.13804657121989874,-0.009405907053127884
1772741588381812200,2.367812255859375,0.12583879502117634,-0.1099368404796347,-0.050205096561834216
1772741588391828500,2.377828369140625,0.001146247425675392,0.0033564708210527894,-0.05988061433658003
1772741588401845500,2.387845458984375,0.05269990905225277,0.020618680865131318,-0.02195442298091948
1772741588411860500,2.397860595703125,0.1773801816880703,-0.06474851263388991,-0.007497296952828764
1772741588421876500,2.40787646484375,0.07712941690981388,-0.08969824497327208,-0.06633453971631825
1772741588431892500,2.417892578125,-0.12039864979386329,-0.058499608306959265,-0.06761727300323546
1772741588441907500,2.427907470703125,-0.14810264927744865,0.011388057313673197,-0.048920828904956574
1772741588451923500,2.43792333984375,-0.11458674864470958,0.045278855673409994,0.02398004705701023
1772741588461939500,2.447939453125,-0.11344108574092387,0.07432243319768458,0.07472684928011149
1772741588471955500,2.45795556640625,-0.17449205903112888,0.10114281824715435,0.050057139458507295
1772741588481970400,2.467970458984375,-0.10358195502758026,0.08414419104270636,0.05040149591676891
1772741588491986400,2.477986328125,0.06650456252098083,0.007773337415233254,0.026158560139872132
1772741588502002400,2.48800244140625,0.21934593075811862,-0.06351433119643479,0.019971213274449107
1772741588512018400,2.498018310546875,0.2220516825854778,-0.045099407453276216,0.05145871335212141
1772741588522033400,2.508033447265625,0.08013210585713386,-0.020071203050203622,0.032162367131933566
1772741588532049400,2.51804931640625,-0.013688333612680435,0.016238419954292475,0.0026122283250093457
1772741588542065400,2.5280654296875,-0.03789104697704315,0.07383695123568176,0.03229801274295896
1772741588552080400,2.538080322265625,0.03427168743610382,0.11628321383167058,0.044022864262945945
1772741588562096600,2.5480966796875,0.1107476088732481,0.08116334860101342,0.08272756571043283
1772741588572112600,2.558112548828125,0.1477344004869461,-0.05859536029901355,0.049402109615877265
1772741588582128600,2.568128662109375,0.1225549510449171,-0.09902648368030786,-0.033900917894952
1772741588592143600,2.5781435546875,0.08197685694098472,-0.10220807285849004,-0.0510765456341207
1772741588602159600,2.58815966796875,0.08960486760139465,-0.0595792567698285,-0.07264814330991357
1772741588612175400,2.59817529296875,0.03667231883704662,-0.014354469371214509,-0.0955837958805263
1772741588622191400,2.60819140625,-0.02724631884396076,0.055850482037663456,-0.0765280534831807
1772741588632206300,2.618206298828125,-0.07521627676486968,0.040615320841781793,-0.052167848002165555
1772741588642222300,2.628222412109375,-0.0548942042261362,-0.034895372292399404,-0.049931430719606575
1772741588652238300,2.63823828125,-0.026415713238716124,-0.10144450460746884,-0.05901599686387926
1772741588662253300,2.64825341796875,0.053091538718342775,-0.1253640536488965,-0.08363324584588408
1772741588672269600,2.65826953125,0.17374796266555786,-0.11535492000561207,-0.06248838568218052
1772741588682285600,2.66828564453125,0.20325521217882633,-0.04286631463896483,0.008507168115116655
1772741588692301600,2.678301513671875,0.15769640705287455,0.0278541485439986,0.010546893781796097
1772741588702316500,2.688316650390625,0.028321839120984075,0.07382986390776931,-0.001058167283423245
1772741588712332500,2.69833251953125,-0.01845335605740547,0.10526899479907005,-0.010622772029601038
1772741588722348500,2.7083486328125,-0.06624854193329811,0.04422160170543939,-0.042859592637233435
1772741588732364500,2.718364501953125,-0.05394786328673362,-0.03362776350937784,-0.09483137007802725
1772741588742379500,2.728379638671875,-0.029691373908519742,-0.050555992358736694,-0.128713839000836
1772741588752395300,2.738395263671875,0.04346621676087379,-0.07282331721372902,-0.16458214797861873
1772741588762411500,2.74841162109375,0.21071780314445496,-0.07309110130444169,-0.11474877080600708
1772741588772426500,2.758426513671875,0.3093938659518957,-0.08297105561010538,-0.02810143783595413
1772741588782442500,2.7684423828125,0.18293313964009283,-0.0021657631991431115,-0.02458689037635922
1772741588792458500,2.77845849609375,0.0420627797037363,0.1016562476620078,-0.049054611352458595
1772741588802474500,2.788474609375,0.08366203354895115,0.07940949067100882,-0.02214921490065753
1772741588812489500,2.798489501953125,0.20044716902077198,-0.02514160164967179,-0.00510265690125525
1772741588822505500,2.80850537109375,0.2240256130069494,-0.08551679457016288,-0.014662074015662073
1772741588832521500,2.818521484375,0.15276479586958885,-0.08081435250025241,0.0034819968968629834
1772741588842537500,2.828537353515625,0.022926117557287216,0.011439824033528567,0.008471914138644933
1772741588852552400,2.838552490234375,-0.23542145176827906,0.035817272910289466,-0.0709795890431851
1772741588862568400,2.848568359375,-0.2794014632701874,0.10394256850089877,-0.0749645670261234
1772741588872584700,2.858584716796875,-0.051693946880102155,-0.005606733965873718,-0.042311347637325525
1772741588882599700,2.868599609375,0.16231880615651606,-0.1342812273370102,-0.0334769568618387
1772741588892615700,2.87861572265625,0.2313900042951107,-0.1954537081150338,-0.027939854066073893
1772741588902631400,2.88863134765625,0.20337153203487396,-0.15497527499329297,-0.061150999598577616
1772741588912647400,2.8986474609375,0.10135901828110218,0.02970087238922715,0.025353856160864233
1772741588922662400,2.908662353515625,0.030756957313418386,0.16178342063818127,0.06635273296013475
1772741588932678400,2.918678466796875,0.0050970308780670165,0.1372522790370509,0.09964768431857228
1772741588942694400,2.9286943359375,0.0519008676290512,0.020223726730793715,0.031665158199518914
1772741588952710400,2.93871044921875,0.10560966146290302,-0.07406834883876144,-0.010777779928222299
1772741588962725400,2.948725341796875,0.15397475618124007,-0.14098784883618354,-0.020874518789723514
1772741588972741600,2.95874169921875,0.10197685791850089,-0.13488131212200968,-0.07461202726140617
1772741588982757600,2.968757568359375,0.057632104757428165,-0.0341851416638121,-0.012811258517205715
1772741588992772600,2.978772705078125,0.016406944921612737,0.0917635434726253,0.1012713765302673
1772741589002788600,2.98878857421875,-0.03771744397580623,0.14244692507069556,0.10225556526202707
1772741589012804600,2.9988046875,0.003770750710368156,0.09067837858442217,0.09018412879407406
1772741589022820400,3.0088203125,0.10547755951583385,-0.03116217711344361,0.08578731860723346
1772741589032835600,3.018835693359375,0.1727086827456951,-0.09514036296196281,-0.013935330643691122
1772741589042851300,3.028851318359375,0.2529045014888048,-0.12147639856059103,-0.013963424227014184
1772741589052867300,3.038867431640625,0.3126765408843756,-0.1278645652277395,0.039148024768196045
1772741589062883300,3.04888330078125,0.1743342381209135,-0.07578516269400716,0.058456719013303515
1772741589072898300,3.058898193359375,-0.030425533401966093,0.005254997918754816,0.1017285091806203
1772741589082914600,3.06891455078125,-0.13568448173105715,0.05851809381172061,0.08407835926488041
1772741589092930600,3.0789306640625,-0.16745207739174364,0.0773658560141921,0.08560761465877294
1772741589102945500,3.088945556640625,-0.16889117028415201,0.031286899471655485,0.05024170224517584
1772741589112961500,3.09896142578125,-0.210415605327487,0.009770794842764734,0.014436521631479262
1772741589122977500,3.1089775390625,-0.1910784521728754,-0.02585358584392816,-0.05741707376725971
1772741589132993500,3.11899365234375,-0.10778642098009586,-0.07717135635539889,-0.08926102259978652
1772741589143008500,3.129008544921875,0.0072486559540033335,-0.04112411061413586,-0.037038083409518
1772741589153024500,3.1390244140625,0.09967150358557701,0.019717019317671655,-0.036885523196309805
1772741589163040500,3.14904052734375,0.24436755928993223,0.01906640992183238,-0.04377725547142326
1772741589173056500,3.159056396484375,0.3451408866375685,-0.024434476293623445,-0.05419080519713461
1772741589183071500,3.169071533203125,0.34249592508673665,-0.018956739002279937,-0.07600209338031709
1772741589193087500,3.17908740234375,0.2296685873299837,0.007563859383016824,-0.07053644838556647
1772741589203103500,3.189103515625,0.12372750195562839,-0.003251256880909204,-0.10209471214450895
1772741589213118500,3.199118408203125,0.05017652805447578,-0.011650251913815735,-0.10874452542252838
1772741589223134500,3.209134521484375,0.03864040403962135,0.004115472494810819,-0.072208838577196
1772741589233150500,3.219150390625,0.060526072633266446,0.016198197541758417,-0.0741692519299686
1772741589243166500,3.22916650390625,0.11176058530807495,-0.02063497441280633,-0.0974747241936624
1772741589253181400,3.239181396484375,0.1833060646057129,-0.049052857786789535,-0.04828559974133968
1772741589263197400,3.249197509765625,0.1764373478800058,-0.023934417816996574,-0.03208981335237622
1772741589273213400,3.25921337890625,0.1391851833283901,-0.05710402576271444,-0.04341982033587992
1772741589283228400,3.269228515625,0.1061029979377985,-0.02925133852344006,0.0033369624029844997
1772741589293244700,3.27924462890625,-0.004423661661148071,0.04154916762579232,0.046522827852517365
1772741589303260700,3.2892607421875,-0.09703355629742146,0.11490600719433278,0.0604913666460663
1772741589313276400,3.2992763671875,-0.07927811937630176,0.12499258998800068,0.0744575673520565
1772741589323291600,3.309291748046875,-0.02801321156322956,0.025727146452665328,0.06704970224834979
1772741589333307400,3.319307373046875,0.009657470661401749,-0.034320933405309915,0.012499489154294132
1772741589343323400,3.329323486328125,0.05977496200501919,-0.10003423595074563,0.003459931195527315
1772741589353339400,3.33933935546875,0.0818295574247837,-0.15913089683540166,-0.01485924055557698
1772741589363354400,3.349354248046875,0.005884966385364532,-0.07449523248132318,0.010940788470208644
1772741589373370400,3.359370361328125,-0.09331599707901478,0.024334705713577567,0.02285049503780901
1772741589383386400,3.369386474609375,-0.14441957685053347,0.14409991644211112,0.03579370937161147
1772741589393401300,3.3794013671875,-0.10106441924870013,0.2365565932780504,0.04940466689914465
1772741589403416300,3.389416259765625,-0.06135317110717296,0.1945248662997037,0.05343249764312059
1772741589413432300,3.399432373046875,0.0749058956414461,0.0577659968027845,0.029095417309366167
1772741589423448300,3.4094482421875,0.27601182083189485,-0.097297833256796,-0.031031098079681393
1772741589433463300,3.41946337890625,0.4321656746178865,-0.1799205503532663,-0.029027430107071994
1772741589443479300,3.429479248046875,0.45126668092906475,-0.15798998317196963,-0.01654730324037373
1772741589453495300,3.439495361328125,0.3351432242363691,-0.04671436836924404,0.02700531316231936
1772741589463511300,3.44951123046875,0.1364671565413475,0.07040646533034742,0.020196473397687077
1772741589473526300,3.4595263671875,0.015628361764550208,0.1345026880679652,-0.003053725014813244
1772741589483542300,3.469542236328125,-0.033283260920643806,0.11651888575106858,-0.026627638956345616
1772741589493558500,3.47955859375,0.037862405404448504,0.017170111313834786,-0.07542034796960652
1772741589503573500,3.489573486328125,0.07683423335552216,-0.09515278405211865,-0.11481281248554587
1772741589513589500,3.499589599609375,-0.004024433210492134,-0.12964257121831177,-0.13652959078568963
1772741589523605200,3.509605224609375,-0.1621340972393751,-0.133172133583948,-0.16995383107960224
1772741589533621200,3.519621337890625,-0.283596576872468,-0.022072496402636168,-0.1697923203749582
1772741589543636200,3.52963623046875,-0.2419511457979679,0.07092946629114448,-0.09144852270670234
1772741589553652200,3.53965234375,-0.08598667710423469,0.035001499547995626,-0.06663341306503862
1772741589563668200,3.549668212890625,0.11389876638054847,-0.0008464242288842797,-0.0341642084736377
1772741589573683200,3.55968310546875,0.21305355261564254,-0.0145947444004938,0.03667578943576664
1772741589583699200,3.56969921875,0.2492009707957506,-0.0004975377259775996,0.04757182544879615
1772741589593715500,3.579715576171875,0.2545575293928385,-0.028465485375374553,0.0642563452027738
1772741589603731500,3.5897314453125,0.32257892621755596,-0.012078669926337897,0.0996659871602431
1772741589613746400,3.599746337890625,0.2540852357059717,-0.058303245484642684,0.0777972331687808
1772741589623762400,3.609762451171875,0.10729542259275912,-0.02920373652204871,0.030871450538560746
1772741589633778400,3.6197783203125,-0.003936754927039147,0.02893931343220174,-0.005655578076280653
1772741589643794200,3.629794189453125,-0.009579729250073433,0.07074830103795975,0.021285328080318865
1772741589653809400,3.639809326171875,-0.04352349990606308,0.06486665912084282,0.03813756908401847
1772741589663825200,3.6498251953125,-0.1466232243746519,0.11165935342330485,-0.003918853944167495
1772741589673841200,3.659841064453125,-0.09807926595807075,0.07456186797674745,-0.013884038847871124
1772741589683856100,3.669856201171875,0.06855623435378075,-0.002231229650788009,-0.03264401316903531
1772741589693872000,3.6798720703125,0.16013152524530885,-0.0794910314746201,-0.04782601940557361
1772741589703888400,3.689888427734375,0.16804887424111364,-0.10013137618228793,-0.02893781559485942
1772741589713904400,3.699904296875,0.11732990987300872,-0.06634593789316713,-0.04864851476959884
1772741589723919400,3.70991943359375,0.056423898011446,-0.02962747835945338,-0.05578472332507371
1772741589733935400,3.719935302734375,0.02410626725256443,-0.0011844240115955471,-0.042645949886552986
1772741589743951400,3.729951416015625,0.10430793121457099,0.011480521370097994,-0.03958100935798138
1772741589753966300,3.73996630859375,0.14784487512409686,-0.006819324626028537,-0.06708437170293181
1772741589763982300,3.749982421875,0.22557050436139106,0.005266359562985599,-0.062291365272738035
1772741589773998300,3.759998291015625,0.21426468197107315,-0.011294351148232818,-0.0007705825136974454
1772741589784014300,3.770014404296875,0.05701368059813976,-0.021454547167383133,0.001076908516511321
1772741589794029300,3.780029296875,-0.08580547531843184,0.008380984452180563,-0.002948876400850713
1772741589804045300,3.79004541015625,-0.12912789969444274,0.05131853769645094,0.010206628976762295
1772741589814061300,3.800061279296875,-0.07715981204807758,0.029415552641823887,-0.00745561323557049
1772741589824077300,3.810077392578125,0.0062993924051523206,0.0360429714249447,-0.02668367999251932
1772741589834092300,3.82009228515625,0.09156126236617565,0.051821957173943514,-0.03091656832192093
1772741589844108300,3.8301083984375,0.07833645461201667,0.04717709051016718,-0.03913143895957619
1772741589854124300,3.840124267578125,0.014131401205062866,0.08150697440691292,-0.058588930558227
1772741589864139300,3.85013916015625,-0.014843348866701125,0.03327423736397177,-0.07486972834952176
1772741589874155300,3.8601552734375,-0.003956044149398804,-0.016462364903278646,-0.07501271701678633
1772741589884171300,3.870171142578125,0.08263269050121307,-0.058205995655246076,-0.08037957781217991
1772741589894187300,3.880187255859375,0.09805822317004204,-0.11365553220920264,-0.09373484354559332
1772741589904202200,3.8902021484375,0.1354430741906166,-0.08513703800495713,-0.10818185003846884
1772741589914218500,3.900218505859375,0.13356909701228142,-0.06687956984583288,-0.10243841101564466
1772741589924234500,3.910234375,0.10427227537930012,0.018303170464374123,-0.0719881084986031
1772741589934249500,3.92024951171875,0.06731880151331425,0.061223699508607385,-0.016171455665305257
1772741589944265500,3.930265380859375,-0.012209493231773375,0.09659563980419188,-0.005872727958299219
1772741589954281200,3.94028125,0.05312777907550335,0.0797854113113135,0.04127170239128172
1772741589964297200,3.950297119140625,0.11981120529472827,-0.0015034268328920006,0.06542257597055286
1772741589974312200,3.960312255859375,0.057713353300094604,-0.0005261427659541368,0.05263170265424996
1772741589984328200,3.970328125,-0.025306290692090987,0.029804515426792202,0.046684338557161385
1772741589994344200,3.98034423828125,0.03408288686573505,0.06030508682634681,0.023462270260602235
1772741590004359200,3.990359130859375,0.16337737529873847,0.03372358856666833,0.023228972961381076
1772741590014375200,4.000375244140625,0.33784780701994893,-0.016502295054867864,0.036315322092920536
1772741590024391400,4.010391357421875,0.42462592676281924,-0.09017755292281508,0.0007615224244073033
1772741590034407400,4.020407470703125,0.28552374554276466,-0.045889352254569526,0.0016902181092649697
1772741590044422400,4.03042236328125,0.05091828633248806,0.09855031753592193,-0.020972097412683067
1772741590054438400,4.0404384765625,-0.23678864846825598,0.1907861181627959,0.025684805148281156
1772741590064454400,4.050454345703125,-0.43937575212717056,0.28778931585457174,0.0007001110933721065
1772741590074470400,4.060470458984375,-0.4185808013796806,0.24108674752097575,0.001692373533733189
1772741590084485400,4.0704853515625,-0.18844518105983732,0.09952869758140295,0.024183424142003057
1772741590094501400,4.08050146484375,-0.04298457072377205,-0.00684350921921432,-0.03301215236168355
1772741590104517000,4.09051708984375,0.046027591681480406,-0.11321546029150485,-0.11000851747635751
1772741590114532400,4.100532470703125,0.16855740828514099,-0.12307422567866742,-0.15159699419923126
1772741590124548400,4.11054833984375,0.33061493315696716,-0.06533599366564304,-0.09702018535919486
1772741590134564400,4.120564453125,0.49215983233153815,-0.005452237523905933,0.0041100656673312185
1772741590144580400,4.130580322265625,0.41372576256394383,0.019871881085820494,0.011016922446340323
1772741590154595300,4.14059521484375,0.12930910148024558,0.0021473872922360897,-0.05121098566874861
1772741590164611300,4.150611328125,0.017189619731903076,0.02166055460087955,-0.10263320293538272
1772741590174627300,4.16062744140625,0.020602058523893355,-0.009764145906269549,-0.09326941799093037
1772741590184642300,4.170642333984375,0.10840776774883269,-0.02563723967950791,-0.02090710588507354
1772741590194658300,4.180658203125,0.16677169391214847,-0.044871772709861396,0.042911030563525854
1772741590204674300,4.19067431640625,0.13450257847011088,-0.019036197446659207,0.052756826871261
1772741590214690300,4.200690185546875,0.027872341787815093,0.054870859883166846,0.04166121316552162
1772741590224705300,4.210705322265625,-0.04981237091720104,0.08069054345749319,0.010767002805881202
1772741590234721500,4.220721435546875,-0.07134148115813732,0.03919201004039496,-0.005264605997316539
1772741590244737300,4.2307373046875,-0.08916998331546783,0.08765877503491938,0.01615110699702054
1772741590254752500,4.24075244140625,-0.13661620962321758,0.1269747037159279,0.017928638063557444
1772741590264768300,4.250768310546875,-0.1366717392027378,0.13022318411786107,0.053583596551604565
1772741590274784300,4.2607841796875,-0.105736502712965,0.08176851141992957,0.09323909591790289
1772741590284800300,4.27080029296875,-0.12417173859179019,0.03546056842710823,0.02531480279210955
1772741590294815200,4.280815185546875,-0.14398352352082727,0.028933687409013507,-0.022785503510199485
1772741590304831200,4.290831298828125,-0.015278233152627944,0.03373717870060354,-0.010512918446958064
1772741590314847200,4.30084716796875,0.139935124912858,0.03532916059978306,0.01262665919791907
1772741590324862200,4.3108623046875,0.23526538442373274,0.040177550479024646,0.02132949601560831
1772741590334878200,4.320878173828125,0.282402983173728,0.09528243831377475,0.053175417609512804
1772741590344894500,4.33089453125,0.2611649648338556,0.10944427118971943,0.04791892185341567
1772741590354910500,4.340910400390625,0.16237024408280848,0.12606551644913852,0.01333279817327857
1772741590364925400,4.350925537109375,0.030108722537755966,0.12128182583656161,-0.024207316474243998
1772741590374941400,4.36094140625,-0.005385784691572189,0.12266681392155587,-0.051546793494373556
1772741590384957400,4.37095751953125,0.05699906755089759,0.0360882353387773,-0.089949479787983
1772741590394973200,4.38097314453125,0.08406593817472457,-0.0009555106265470384,-0.16030954869333652
1772741590404989400,4.390989501953125,0.14509060797989368,0.036397520483657714,-0.14332768996059894
1772741590415005700,4.401005615234375,0.25496026497483254,0.126211245062761,-0.11860383879896252
1772741590425021700,4.411021728515625,0.3055640785306692,0.16587302803937345,-0.05909308068808168
1772741590435036700,4.42103662109375,0.30784897459745403,0.16924509828835724,-0.08680676131546497
1772741590445052700,4.431052734375,0.21287468891739844,0.1654851247003302,-0.11721494172383098
1772741590455068700,4.441068603515625,0.15210311709046362,0.10968659204561262,-0.1635138976925984
1772741590465084700,4.451084716796875,0.13657880022227764,0.015144085378944874,-0.23527659993749112
1772741590475099600,4.461099609375,0.15023673869669438,-0.038898653117008505,-0.22097334929686038
1772741590485115600,4.47111572265625,0.2001753663420677,0.019037110762111842,-0.16188311815299092
1772741590495131400,4.48113134765625,0.17564473619759083,0.025308299986086785,-0.10985277892537415
1772741590505146600,4.491146728515625,0.09418518112897872,0.08553290545474737,-0.08771521792989223
1772741590515162400,4.501162353515625,0.006738952866196632,0.14424805620852857,-0.09203180248737335
1772741590525178600,4.5111787109375,-0.1362976451933384,0.09590634236577898,-0.11286080163493752
1772741590535194600,4.521194580078125,-0.2580249132424593,0.047746889754757285,-0.13995309896096586
1772741590545209600,4.531209716796875,-0.2663409061670303,0.0409076913844794,-0.12649280195049942
1772741590555225600,4.5412255859375,-0.2366220597296953,0.025758637569472193,-0.04556022989805788
1772741590565241600,4.55124169921875,-0.1159843404829502,0.04162818767875433,0.0021994828056544065
1772741590575256600,4.561256591796875,-0.0296235693693161,-0.019161979250796136,0.07386500828638673
1772741590585272600,4.5712724609375,0.016113514932990073,-0.053690271796472365,0.06554784631803631
1772741590595288600,4.58128857421875,0.029492051944136618,-0.0909033829793334,0.020667853769101203
1772741590605304600,4.5913046875,0.03491407699286937,-0.06766940504927188,0.024884960007481277
1772741590615319600,4.601319580078125,0.06920271556377411,-0.007106799797900021,0.03909428528696298
1772741590625335600,4.61133544921875,0.13515899655222893,-0.015125124950148163,0.06743618081528693
1772741590635351600,4.6213515625,0.2015957545340061,0.01384863874092698,0.06095668260287493
1772741590645366800,4.63136669921875,0.19674772998094558,0.08485040308330208,0.06017561522778123
1772741590655382500,4.641382568359375,0.25753508389890195,0.15881284386217592,0.14032346664331852
1772741590665398500,4.6513984375,0.19207038581967353,0.11423954264223575,0.1435514887791127
1772741590675414500,4.66141455078125,-0.04501636881232261,0.08567768422029912,0.015514781854860485
1772741590685429500,4.671429443359375,-0.08534428754746913,0.04276110069882125,-0.041639037866331635
1772741590695445500,4.681445556640625,0.16868366501331328,-0.05069825037363916,-0.0357303983444348
1772741590705461500,4.69146142578125,0.42759412891864773,-0.09291669556312263,0.034589302017912264
1772741590715476500,4.7014765625,0.5284919594287872,-0.058713177992403505,0.07553345295526087
1772741590725492500,4.711492431640625,0.449973718509078,-0.038745471849292515,0.0670970850540325
1772741590735508700,4.7215087890625,0.2812847927987575,0.015400544358044862,0.07860924367140978
1772741590745524700,4.731524658203125,-0.0013099135547876358,0.09354253584388643,0.07194792261868715
1772741590755539700,4.741539794921875,-0.23802140513360498,0.1904013931615278,0.05063749662972986
1772741590765555700,4.7515556640625,-0.33703239898383613,0.137488681608811,-0.0017595935510471461
1772741590775571700,4.76157177734375,-0.2619336111187935,0.051322446686588225,-0.05164400679115206
1772741590785586700,4.771586669921875,-0.08406535365283489,-0.06303633842114359,-0.10019676956869661
1772741590795602700,4.781602783203125,0.0710240857720375,-0.10621471468396484,-0.10059753238931297
1772741590805618400,4.791618408203125,0.15746259829699993,-0.046662893910333514,-0.0911080387059599
1772741590815634400,4.801634521484375,0.11483750853538513,-0.018590499505773187,-0.05579425833839923
1772741590825649400,4.8116494140625,0.06159633221328258,0.031902218358404934,-0.06470883821062744
1772741590835665400,4.82166552734375,0.05629413415193557,0.02426978725120425,-0.12318780558835714
1772741590845681700,4.831681640625,0.08986556436419486,-0.07686601673327385,-0.12568291033972054
1772741590855696600,4.841696533203125,0.14653320800364017,-0.06833674638420344,-0.13681750434897838
1772741590865712600,4.851712646484375,0.1242190848648548,-0.08755787194371223,-0.13935688663348555
1772741590875728600,4.861728759765625,0.011655366480350494,-0.07651943178530782,-0.12156020438652484
1772741590885744600,4.87174462890625,-0.16271218938827514,-0.022964586404152214,-0.1608669268477708
1772741590895759600,4.881759521484375,-0.28514439083635806,0.010459471226669848,-0.20405651862435042
1772741590905775600,4.891775634765625,-0.23059505452513693,0.006191328920796513,-0.14534549605641514
1772741590915791600,4.90179150390625,-0.033707039290666575,-0.05180661347433924,-0.06510645922608674
1772741590925806600,4.911806640625,0.14771803387403487,-0.11924958935659379,-0.04616130106374621
1772741590935822600,4.921822509765625,0.3235369575947523,-0.1687404732344672,0.01395739634502679
1772741590945838300,4.93183837890625,0.39489480536580085,-0.12541538197733462,0.05834836326800286
1772741590955854600,4.9418544921875,0.2907353427112102,-0.05791019104644656,0.08011672562491148
1772741590965869600,4.95186962890625,0.09604980595707893,-0.009646510875970125,0.10501648134272545
1772741590975885600,4.961885498046875,-0.18605214844346046,0.07599792866185306,0.04944372026789933
1772741590985901600,4.971901611328125,-0.3817003927499056,0.1488935073941946,-0.03474102198090404
1772741590995916500,4.98191650390625,-0.34377661254703995,0.1244114290991798,-0.02220258905570954
1772741591005932500,4.9919326171875,-0.08511340140104293,0.08607369780056177,0.0799737004250288
1772741591015948500,5.001948486328125,0.18115970022678374,0.09501114709172398,0.12180329242739826
1772741591025964500,5.011964599609375,0.3845248025208711,0.028290274938941,0.18342048476561904
1772741591035979500,5.0219794921875,0.46828094409406185,0.026155893258750437,0.20414576781038193
1772741591045995500,5.03199560546875,0.30451193912923336,0.05815262150019407,0.1318982777232304
1772741591056011800,5.04201171875,0.14479191729426383,0.04251618602704257,0.04496376184225082
1772741591066026800,5.05202685546875,0.13847323566675185,0.030205205182172356,-0.007286576811596751
1772741591076042800,5.062042724609375,0.14919979686439036,0.01035053095947951,-0.0021445012154057623
1772741591086058500,5.07205859375,0.14940905570089816,-0.019211261752620338,0.014384827976860104
1772741591096074500,5.082074462890625,0.11997077977061271,-0.034058629207313056,0.024010369130037724
1772741591106089500,5.09208935546875,-0.009830489140748976,-0.08461396397892386,-0.05895206478219479
1772741591116105500,5.10210546875,-0.12168518247306347,-0.10393321615066378,-0.13540383815877138
1772741591126121500,5.11212158203125,-0.10798340485692023,-0.12628803662601856,-0.14360544745605439
1772741591136136400,5.122136474609375,-0.013123100945353508,-0.14605375392362474,-0.12978048185165972
1772741591146152400,5.13215234375,0.07813421003818512,-0.13408128431811928,-0.10938702457714826
1772741591156168400,5.14216845703125,0.11877484798431395,-0.12582728724647313,-0.08245210976991801
1772741591166184700,5.152184814453125,0.08964052343666552,-0.10489559490941465,-0.09090645171925425
1772741591176199700,5.16219970703125,0.07583236283659935,-0.08113390331082046,-0.04881777038928121
1772741591186215700,5.172215576171875,-0.10465046104192734,0.008096066563576459,-0.03443378266263753
1772741591196231700,5.182231689453125,-0.22404548675119876,0.05529664754718542,-0.044759252246096726
1772741591206246700,5.19224658203125,-0.1957891140818596,-0.042749300663173194,0.024763233323954043
1772741591216262700,5.2022626953125,-0.11987433365881442,-0.021253325506858527,-0.01402388570997864
1772741591226278700,5.212278564453125,-0.0060369420766830445,-0.04241071635857224,-0.008657572903856634
1772741591236293600,5.222293701171875,0.14264379934966565,-0.03337072000838816,0.01019734969176352
1772741591246309600,5.2323095703125,0.31886955030560493,-0.05917235646937042,0.06623210225515067
1772741591256325400,5.242325439453125,0.42064416365027424,-0.04208612404670566,0.10625767704285681
1772741591266341600,5.252341552734375,0.39157998172938824,0.011318243480473757,0.1192875832794234
1772741591276356400,5.2623564453125,0.29161972433030603,0.08880951597262174,0.17584858820661903
1772741591286372600,5.27237255859375,0.16628770978748797,0.20028160319551824,0.22573617978449909
1772741591296388600,5.282388671875,0.05381283873021602,0.23668602834399788,0.19766729251127688
1772741591306403600,5.292403564453125,-0.0794856246471405,0.06998100645989179,0.13146898292787373
1772741591316419600,5.302419677734375,-0.26848200984895226,0.0219545691113919,-0.0021952450219541787
1772741591326435600,5.312435546875,-0.39390520980656146,0.05647873347122222,-0.032450463358312844
1772741591336451600,5.32245166015625,-0.3640530923783779,0.051515119714476164,-0.054248709396831685
1772741591346466600,5.332466552734375,-0.16886369775533674,0.023144984472356734,-0.12029953680094331
1772741591356482600,5.342482666015625,0.09274433467090129,-0.030562786448188124,-0.08546378574129193
1772741591366498600,5.35249853515625,0.2330319262832403,-0.04956022278703749,-0.06599047551900147
1772741591376513500,5.362513427734375,0.26723814726769923,-0.06497928918246179,-0.09706650871895253
1772741591386529800,5.37252978515625,0.2094651727348566,-0.08660806040558963,-0.1293046079682186
1772741591396545500,5.382545654296875,0.156447868296504,-0.09092084557078778,-0.16109207737315445
1772741591406561000,5.39256103515625,0.12122341018021106,-0.08587970959842205,-0.1640006217636168
1772741591416576300,5.402576171875,0.03830839560627937,-0.020148542602732775,-0.09939429407939314
1772741591426592000,5.412592041015625,-0.07632979096472263,0.05363868773970753,-0.11098134456388652
1772741591436608000,5.42260791015625,-0.06959902140498161,0.007046484445407986,-0.13883867144566028
1772741591446623000,5.432623046875,0.025915947023034094,-0.05076419174931943,-0.08710731516461818
1772741591456639000,5.442638916015625,0.1351858845591545,-0.024497860386036335,-0.08788268345128744
1772741591466655000,5.452655029296875,0.19590368037223815,-0.012446991782076656,-0.05053962574582547
1772741591476671000,5.4626708984375,0.30740006178617474,0.022540917631983754,0.010635193119756877
1772741591486686000,5.47268603515625,0.4086865993529558,0.032768479798920454,0.1037510279841721
1772741591496702000,5.482701904296875,0.4335562521934509,0.05575034613143652,0.18076558634266257
1772741591506718200,5.49271826171875,0.35139351729154583,0.06786277219690381,0.15392470649443565
1772741591516733200,5.502733154296875,0.1335702660560608,-0.0122454413279891,0.0692844024978578
1772741591526749200,5.512749267578125,-0.09813421101570129,-0.1188270530955866,-0.0005575608175247907
1772741591536765200,5.52276513671875,-0.25261048697829247,-0.07774616056866944,-0.05166541490536183
1772741591546780200,5.5327802734375,-0.3329471754968166,-0.002858348573185503,-0.009992072910629212
1772741591556796200,5.542796142578125,-0.31926760971248147,0.03187986039612442,-0.006996361693367361
1772741591566812200,5.552812255859375,-0.28283903650343417,0.04164411590024829,-0.00734725749026984
1772741591576828000,5.562827880859375,-0.1668529424548149,0.07390486537273973,0.014625687528029084
1772741591586843100,5.572843017578125,-0.0005588029265403748,0.0576465351415798,0.03339249344877898
1772741591596859000,5.58285888671875,0.168822196701169,-0.008555098910070955,0.03071823273822665
1772741591606875100,5.592875244140625,0.35738019048571584,-0.03459934848789126,0.021744214296340943
1772741591616889900,5.602889892578125,0.5099532631754875,-0.0917276684416458,0.06229549345858395
1772741591626906000,5.612906005859375,0.48254094011485577,-0.1116927807688713,0.054795821885578334
1772741591636922000,5.622922119140625,0.30994857722520824,-0.035584961991757154,0.017377762715145944
1772741591646938000,5.632938232421875,0.07191197452247142,-0.012018208443373441,0.0006423530241474509
1772741591656953000,5.642953125,-0.15489362459182737,0.07984393656551837,-0.05782145331706851
1772741591666969000,5.652968994140625,-0.18604805679023265,0.11538429223056881,-0.017021313960291443
1772741591676985000,5.662985107421875,-0.0626852964937687,0.03518043631147593,0.001715973605029285
1772741591687000000,5.673,-0.006005377894639968,-0.01532729645874351,-0.03496522265821695
1772741591697016000,5.68301611328125,0.05891922195851802,-0.06479370348248631,-0.02702507730871439
1772741591707032000,5.693031982421875,0.09747077867090702,-0.04661452472396194,-0.03738379157464951
1772741591717047000,5.703047119140625,0.09663725045621395,-0.0013937193807214497,-0.023033779182843862
1772741591727063300,5.713063232421875,0.09952011241614818,0.03430211910698563,-0.021501820375211537
1772741591737079000,5.7230791015625,0.13695289423167706,0.03041767888907343,-0.02299143787845969
1772741591747095000,5.733094970703125,0.2628828746676445,-0.054876376308500764,-0.005397584727220237
1772741591757110000,5.743110107421875,0.34491467666625975,-0.10708294888585805,0.0068783613368868825
1772741591767126000,5.7531259765625,0.2174959189772606,-0.045955841619521376,-0.008502090081200004
1772741591777142000,5.76314208984375,0.15066870037317276,0.030119645790569482,-0.004098484827391803
1772741591787157000,5.773156982421875,0.15831366216838358,0.005567205673083663,-0.02357753067072481
1772741591797173000,5.783173095703125,0.13618249438107013,-0.02969363893084228,-0.006621975423023104
1772741591807189000,5.79318896484375,-0.1570756448060274,0.026240137476101516,-0.02847133059427142
1772741591817205000,5.803205078125,-0.5733557680279017,0.09192943809144198,-0.2016186970181763
1772741591827220000,5.813219970703125,-0.6476087527185678,0.08109189079999923,-0.24614677085690198
1772741591837236200,5.823236328125,-0.3012894699513912,-0.013120543662086129,-0.13630604769550264
1772741591847252200,5.833252197265625,0.06115910983979702,-0.06713712480347603,-0.061501237808354196
1772741591857267200,5.84326708984375,0.3121434569209814,-0.10053272352479398,-0.021898455009981988
1772741591867283200,5.853283203125,0.4636836794316768,-0.11339951162151991,-0.017128464129194616
1772741591877299000,5.863298828125,0.4156535157561302,-0.1108684953065589,-0.04372705965414643
1772741591887314200,5.873314208984375,0.2172632792651653,0.006173610601015389,-0.0256945593573153
1772741591897330000,5.883329833984375,0.09906067821085453,0.1257103828685358,-0.00005381254646927118
1772741591907346000,5.893345947265625,0.05686579656004905,0.1370557700842619,0.02487688629887998
1772741591917362000,5.90336181640625,0.0038689503878355023,0.10503284795563668,0.01846307373382151
1772741591927377000,5.913376953125,-0.14740180753171442,-0.01822835166249424,-0.036322117159888145
1772741591937393200,5.92339306640625,-0.24614392131268978,-0.07805774726849049,-0.12230725989416241
1772741591947409200,5.9334091796875,-0.23288521128892897,-0.06282879661768674,-0.1569109557636082
1772741591957424000,5.943424072265625,-0.005112228447198867,-0.008622391992621123,-0.06363328140098601
1772741591967440100,5.953440185546875,0.25638240673244,0.057497153266146774,0.021280578839965165
1772741591977456000,5.9634560546875,0.4231336423784494,0.058876917186751955,0.09016093058157712
1772741591987472100,5.97347216796875,0.46922260885834693,0.03687273677997291,0.10457520384863019
1772741591997487000,5.983487060546875,0.3814940565228462,-0.026063794528506695,0.08670311827789992
1772741592007503000,5.993503173828125,0.19251053080260752,-0.08362846007291228,0.04412095434255898
1772741592017519000,6.00351904296875,0.01340834762752056,-0.09193911923523992,0.007708674681186675
1772741592027534000,6.0135341796875,-0.11024316648244857,-0.09186795369517058,-0.0079127093533054
1772741592037550000,6.023550048828125,-0.269041981819272,-0.06992456356491893,-0.0274990880286321
1772741592047566000,6.033566162109375,-0.41034781056344505,0.022695450606569648,-0.05149217723030597
1772741592057581300,6.043581298828125,-0.37197453302741046,0.02409249445553869,-0.02868877273723483
1772741592067597000,6.05359716796875,-0.23785656996071336,0.00822217716127634,0.004498042071610689
1772741592077613000,6.063613037109375,-0.05551496647298336,-0.006385974710062146,0.02201506712697446
1772741592087629000,6.073629150390625,0.1261456690132618,-0.01661927249804139,0.07478183087036012
1772741592097644000,6.08364404296875,0.29874796877503396,0.025168233928270636,0.09527772560603916
1772741592107660000,6.093659912109375,0.35338965954482554,0.015959274219349024,0.10896510937064885
1772741592117676000,6.103676025390625,0.35133623414635656,0.009250753024034202,0.07687325019165873
1772741592127691000,6.11369091796875,0.33809155264794827,-0.003511076860874891,0.018226963423006236
1772741592137707000,6.12370703125,0.2358984216302633,-0.029568368583358824,-0.02551653590928763
1772741592147723000,6.133722900390625,0.08301964399218559,0.016510734089650213,-0.07485814750958233
1772741592157738000,6.143738037109375,-0.03863923499584198,0.029860373799875377,-0.13471581936199217
1772741592167754200,6.153754150390625,-0.1228904666095972,0.014851970564574003,-0.1621799456750974
1772741592177770200,6.163770263671875,-0.112525139939785,0.04727280596960336,-0.16978103179596363
1772741592187786000,6.173785888671875,0.0770066673129797,0.0359822176810354,-0.15056483813989907
1772741592197801200,6.18380126953125,0.2776999200493097,-0.007802380846627056,-0.1384951552376151
1772741592207817000,6.19381689453125,0.4171913928478956,-0.07786576836034655,-0.079532934387587
1772741592217833000,6.2038330078125,0.425234414049983,-0.11489154027756303,-0.0771153883844614
1772741592227848000,6.213847900390625,0.2941273232370615,-0.08101356486678123,-0.06668291476257145
1772741592237864000,6.223864013671875,0.1453518892645836,0.018363303153775632,-0.04357438984308391
1772741592247880000,6.2338798828125,0.07082593285143375,0.03899170169532299,-0.05689162512104958
1772741592257895000,6.24389501953125,0.08261983101963996,-0.03379037019256502,-0.04651910152547061
1772741592267911000,6.253910888671875,-0.06760112558603286,-0.059033788248896595,-0.07059289128053933
1772741592277927200,6.26392724609375,-0.15838672740459442,-0.04849365300145,-0.10512118382621556
1772741592287943200,6.273943115234375,-0.09045885408222674,-0.06601038579586893,-0.013583631129190326
1772741592297958100,6.283958251953125,-0.028269232150912284,-0.05233856492657214,0.06690587333086878
1772741592307974100,6.29397412109375,-0.14756722722649573,0.015077048024721443,0.12641758128982036
1772741592317990100,6.303990234375,-0.23664719417095184,0.05038958628326654,0.10709368947558104
1772741592328005000,6.314005126953125,-0.18478782759606838,-0.0016327523009851575,0.0645654476845637
1772741592338021000,6.324021240234375,-0.06420388436317444,-0.05621288560926914,0.06866517462097108
1772741592348037000,6.334037109375,0.09715689041614532,-0.08076583718340843,0.08493413584399968
1772741592358052000,6.344052001953125,0.11837854214310646,-0.055690323039889335,0.08699311420042068
1772741592368068000,6.354068115234375,0.08345277471244335,0.003596563187241554,0.07622391943745314
1772741592378084000,6.364083984375,0.04636661437749862,0.03066672174669802,0.05135203810725361
1772741592388100000,6.37410009765625,-0.02170329776406288,0.036936376600712535,0.01067950718551874
1772741592398115000,6.384114990234375,-0.04520341581702232,0.08958389787860215,0.018493870730884373
1772741592408131000,6.394131103515625,0.055088850015401834,0.038434944595396515,0.016865100485272705
1772741592418147000,6.40414697265625,0.20170213751792906,-0.001873027330264449,-0.002988733487203717
1772741592428162000,6.414162109375,0.2909206361502409,0.01729673336818814,0.024925109354779124
1772741592438178000,6.424177978515625,0.2649748785108328,0.09233454829361289,0.05328523465953767
1772741592448194000,6.434194091796875,0.18186463362574576,0.12679485363699494,0.011154723481833934
1772741592458210000,6.4442099609375,0.16059095945060253,0.060909263264574104,-0.013191015082411467
1772741592468225000,6.45422509765625,0.17325637975633143,-0.012586729046329855,-0.053023332320339976
1772741592478241000,6.464240966796875,0.2039572229683399,-0.07835241936612874,-0.09252349499445409
1772741592488257300,6.47425732421875,0.12762100226283074,-0.09670224198382348,-0.08757226579524577
1772741592498272300,6.484272216796875,0.0019096330136060713,-0.028709998188354072,-0.13749054477233438
1772741592508288300,6.494288330078125,-0.13090718432664872,0.04014777639526874,-0.14507500855196268
1772741592518304000,6.504303955078125,-0.14768413160443306,0.05426525867283344,-0.039849852894619106
1772741592528319200,6.5143193359375,-0.13882687141001224,0.023669483270496127,-0.042015469963289795
1772741592538335000,6.5243349609375,-0.11971242109537124,-0.003019347821176052,-0.08313019169457256
1772741592548351000,6.53435107421875,0.00310439575612545,-0.04684581272918731,-0.06120842887423932
1772741592558366000,6.544365966796875,0.07962357181310653,-0.0092946286983788,-0.018903876303881406
1772741592568382000,6.5543818359375,0.039270518636703486,0.06029818216152489,-0.015318090238980947
1772741592578398000,6.56439794921875,-0.018128946408629415,0.07851853318065405,0.008922690113447606
1772741592588414000,6.5744140625,-0.02493453477025032,0.10486527283638715,0.057974853780493135
1772741592598429000,6.584428955078125,-0.03170037564337253,0.0976380615292117,0.07034443294480443
1772741592608445200,6.594445068359375,0.04611468544304371,0.04991933842301369,0.07374781164750456
1772741592618461200,6.604461181640625,0.11902210074365138,-0.0061514718344435095,0.033804508315771815
1772741592628476200,6.61447607421875,0.23539631732702254,-0.05167389047276228,0.010081614357605576
1772741592638492200,6.6244921875,0.2387175707042217,-0.05971654634866863,-0.009718662796728313
1772741592648508200,6.634508056640625,0.15762977155745028,-0.009537132217362522,-0.0003125365478917956
1772741592658523100,6.644523193359375,0.16764847674667835,0.055737303986772894,0.03883377118725329
1772741592668539100,6.6545390625,0.1593897669672966,0.0635245603295043,0.04002645157054066
1772741592678555100,6.66455517578125,0.174407887879014,0.006323357802629471,0.045126478123292325
1772741592688571000,6.67457080078125,0.13924422003924847,-0.01762980124745518,-0.01737670326922089
1772741592698586000,6.684586181640625,0.03156067491173744,-0.04572630717996508,-0.08064853094667196
1772741592708601900,6.694601806640625,-0.07841711863279342,-0.08099391031824052,-0.10844386197552085
1772741592718618000,6.7046181640625,-0.07856675623655318,-0.03420815721321851,-0.13283358581196517
1772741592728633000,6.714633056640625,0.008305471530556678,-0.041382980746030806,-0.0972134794415906
1772741592738649000,6.724649169921875,0.11549509566128253,-0.08045983997415751,-0.07967935712095349
1772741592748665000,6.7346650390625,0.17222294505536556,-0.07717044303994626,-0.06697780605591833
1772741592758680000,6.74468017578125,0.2300520336896181,-0.07591145595479756,-0.02558715346008539
1772741592768696000,6.754696044921875,0.22715397416055202,-0.051279557392932475,-0.01744523846078664
1772741592778712000,6.764712158203125,0.13547288480699063,0.025323753283545372,0.03682093352749943
1772741592788728000,6.77472802734375,0.07326222008764743,0.12340159446951002,0.07024535648450254
1772741592798743000,6.784742919921875,-0.04279343206584453,0.0700850878888741,0.029741460127942262
1772741592808759000,6.794759033203125,-0.13094926990270614,0.05121540611553937,0.01748648378662765
1772741592818775300,6.804775390625,-0.11589607767760753,0.08017941559758036,0.008541983700171113
1772741592828790300,6.814790283203125,-0.04976093299090862,0.06112509797234088,0.03126859662998468
1772741592838806300,6.82480615234375,0.04644786292016506,0.07711056607887148,0.05679645765088498
1772741592848822000,6.834822021484375,0.1339016899675131,0.09631010086107998,0.07247212915588169
1772741592858837200,6.844837158203125,0.15392682538628577,0.08971731499992311,0.05683222308401018
1772741592868853000,6.85485302734375,0.07274725630283355,0.021322627883404492,0.0419641781674698
1772741592878869000,6.864868896484375,-0.04371580760776996,-0.02299041496515274,-0.0888605885727331
1772741592888884000,6.874884033203125,-0.09735212072730064,0.0008164674820378422,-0.14938556522745638
1772741592898900000,6.88489990234375,0.0028998130947351453,-0.030308263697847723,-0.11843228162433951
1772741592908916000,6.894916015625,0.1612853714555502,-0.026361900692246854,-0.09473127070441842
1772741592918932000,6.904931884765625,0.20630057122409343,0.01049337349627167,-0.03940996364001184
1772741592928947000,6.914947021484375,0.11466975075304507,0.006197210672311484,-0.06271865077409892
1772741592938963200,6.924963134765625,0.04223112200796604,-0.026710166140645742,-0.09682550303731113
1772741592948979200,6.934979248046875,0.043912206962704654,-0.023668643020279705,-0.09270940948799251
1772741592958994200,6.944994140625,0.08764321213960648,-0.012837854263186455,-0.09736698950286954
1772741592969010200,6.95501025390625,0.16697627657353878,0.0025363866098225113,-0.03481690022870898
1772741592979026200,6.965026123046875,0.21946809583306312,0.018195106980018316,0.0018958967491984366
1772741592989041200,6.975041259765625,0.20198504611253737,0.059050885514169926,0.05245141418389976
1772741592999057200,6.98505712890625,0.1446282511651516,0.10123360180314629,0.06707520201578736
1772741593009073000,6.995072998046875,0.03936345761716366,0.06946980553474277,0.03753543847240507
1772741593019089000,7.0050888671875,-0.044001638811826706,0.024428959868289527,0.008146445043943821
1772741593029103900,7.015103759765625,-0.07208207039237022,-0.030225699980929492,-0.017591989987716078
1772741593039120000,7.025119873046875,-0.08962766395509242,-0.07371931620538234,-0.08137421487271786
1772741593049136000,7.03513623046875,-0.06629179655313491,-0.10540369056202471,-0.07212474049031734
1772741593059151000,7.045151123046875,-0.03041267392039299,-0.051210912603512404,-0.019505568524077532
1772741593069167000,7.0551669921875,-0.10330606069564818,0.041887057810649275,0.010376542183570564
1772741593079183000,7.06518310546875,-0.13707389026284217,0.10605828201323747,0.018714235483296215
1772741593089198000,7.075197998046875,-0.09743570735752582,0.13567096466235815,-0.010980645556561648
1772741593099214000,7.085214111328125,-0.011221651238203048,0.06938921457920223,-0.021019882077164948
1772741593109230000,7.09522998046875,0.09219663766026497,0.017451741266809404,-0.04077157084941864
1772741593119245000,7.1052451171875,0.21590134326219557,-0.006938238297961652,-0.06729867204073817
1772741593129261000,7.115260986328125,0.2634785024732351,-0.04386394737418741,-0.037210882693156595
1772741593139277000,7.125277099609375,0.1800596300303936,0.011762553181871771,-0.02476995532568544
1772741593149293300,7.135293212890625,0.06136076989173889,0.07209357816707343,-0.028617314936220644
1772741593159308000,7.14530810546875,-0.003686579558253288,0.0881490062372759,-0.02199384167585522
1772741593169324000,7.155323974609375,0.052093759852647775,0.07587948991395532,-0.009338942764140665
1772741593179340000,7.165340087890625,0.11580664582848549,0.019866949182376265,-0.00021693068630993366
1772741593189355000,7.17535498046875,0.20059856019020078,-0.018592983723804354,0.00795753487572074
1772741593199371000,7.18537109375,0.24457974073588848,-0.08669767491780221,0.04118238014001399
1772741593209387000,7.195386962890625,0.1640998443543911,-0.07835658408459276,0.04798289046771824
1772741593219402000,7.205402099609375,-0.0022580080598592757,-0.049285424433648584,-0.02016753956414759
1772741593229418000,7.21541796875,-0.09835632933378219,-0.04105868069510907,-0.05526734838746488
1772741593239434000,7.22543408203125,-0.061037529286742206,-0.008573182556033133,-0.05110157047752291
1772741593249449000,7.235448974609375,0.03109364192187786,0.01419887695070356,-0.0385239380531013
1772741593259465000,7.24546484375,0.19302900171875953,-0.011017251239903271,0.023224990906007586
1772741593269481200,7.255481201171875,0.25443185718655587,-0.00706811175532639,0.049346981895156204
1772741593279497200,7.265497314453125,0.18957856900393963,-0.018956264078244568,0.05578695181477815
1772741593289512200,7.27551220703125,0.087981650313735,0.011072561623714864,0.05338690493572503
1772741593299528200,7.285528076171875,-0.08141162427365779,0.05035630506817251,0.05679393690023571
1772741593309544200,7.295544189453125,-0.18383505691587923,0.1286881565703079,0.07575743443686514
1772741593319559200,7.30555908203125,-0.20114508815705776,0.09952983009256422,0.068476264452748
1772741593329575200,7.3155751953125,-0.15547873100340365,0.019299451492726803,0.007485825710743665
1772741593339591000,7.3255908203125,-0.04878770404458046,-0.05442205666974186,-0.03699815325792879
1772741593349606100,7.335606201171875,0.1315787999778986,-0.09457648200150578,-0.07486103358641266
1772741593359622000,7.345621826171875,0.2888718869268894,-0.10838632310200481,-0.08278923276979476
1772741593369638000,7.355637939453125,0.3857663270145654,-0.08903042871430515,-0.0775137400522828
1772741593379652900,7.36565283203125,0.3971539824694395,-0.049536768846213816,-0.042099641115404665
1772741593389669000,7.375669189453125,0.46465398576855654,-0.05279372481554746,0.01481225960869342
1772741593399685000,7.38568505859375,0.3772498430818319,-0.06321282749921082,0.050455235398001966
1772741593409700400,7.395700439453125,0.17625789965987204,-0.04402242587152868,0.013925539902038871
1772741593419715300,7.40571533203125,0.05946282731592655,-0.03482285504546016,-0.02744403337314725
1772741593429731300,7.4157314453125,0.10717384203970431,-0.047751346734166145,-0.048755043883994216
1772741593439747300,7.425747314453125,0.161280110758543,-0.030292335476353762,0.02065203514546156
1772741593449762300,7.43576220703125,0.14493921681046484,0.04045841324701905,0.1131854304794222
1772741593459778600,7.445778564453125,-0.052044660013914106,0.10717760489936917,0.12109477883186191
1772741593469794600,7.455794677734375,-0.2502121936649084,0.09261731075774877,0.08447758771553635
1772741593479809500,7.4658095703125,-0.2940828995734453,0.04853131813071668,0.07798212474901228
1772741593489825500,7.475825439453125,-0.20121347721815108,-0.008364654371887445,0.07301127753388136
1772741593499841500,7.485841552734375,0.0046522097200155255,-0.05541592654529959,0.09086743488311767
1772741593509856500,7.4958564453125,0.17674539091587066,-0.10467113850377499,0.06472071131151169
1772741593519872500,7.50587255859375,0.23706103566884992,-0.13457261149901895,0.04602510746344924
1772741593529888500,7.515888427734375,0.16314356654286383,-0.11006317027304321,0.04471523044127971
1772741593539903500,7.525903564453125,-0.05990238777697086,-0.026496852183528243,0.02933010284807533
1772741593549919500,7.53591943359375,-0.3592676116675138,0.12598744624424724,0.017619316386058924
1772741593559935200,7.545935302734375,-0.4703612574994564,0.20292192510385065,-0.016537622096575794
1772741593569951500,7.555951416015625,-0.37500820163488385,0.11575396579317748,-0.05272478776518255
1772741593579966500,7.565966552734375,-0.1827086832344532,-0.034892961139604446,-0.11233290530331431
1772741593589982500,7.575982421875,0.00841126999258995,-0.10716204200405627,-0.1403260969918221
1772741593599998500,7.58599853515625,0.1898795977771282,-0.10657667986415326,-0.1332739865232259
1772741593610013400,7.596013427734375,0.30718203512132164,-0.10367642837800085,-0.11574815710689872
1772741593620029400,7.606029541015625,0.40187808838188643,-0.047462446790188545,-0.04955032244753092
1772741593630045400,7.61604541015625,0.4562514836043119,0.022518377006612716,-0.0072686758287250994
1772741593640060400,7.626060302734375,0.34073125350177286,0.08393964491393417,-0.007874788495711983
1772741593650076400,7.636076416015625,0.09888239903450012,0.12669490039385856,-0.04177282031383365
1772741593660092400,7.646092529296875,-0.12922083867490292,0.10744487753342837,-0.11035809809900819
1772741593670107400,7.656107421875,-0.18145897543430328,0.052731436701677736,-0.1801293707983568
1772741593680123400,7.666123291015625,-0.09189970054030418,-0.02388685234822333,-0.1433517649559304
1772741593690139600,7.6761396484375,0.06004559563994407,-0.02600841107945889,-0.10631638496015221
1772741593700155400,7.6861552734375,0.19083587558865547,-0.0065998731890693305,-0.07947656455785036
1772741593710170600,7.696170654296875,0.27620412853360177,-0.008045541952736676,-0.09169230486731976
1772741593720186400,7.706186279296875,0.3026525749981403,-0.04123604655601084,-0.10209715982992201
1772741593730202400,7.716202392578125,0.32267478780746456,-0.03961454630140215,-0.10529906114377081
1772741593740217300,7.72621728515625,0.23304010958969593,-0.07243698477726429,-0.12366978041902184
1772741593750233300,7.7362333984375,0.13343641054332256,-0.07673420704714953,-0.11180256128627807
1772741593760249300,7.746249267578125,0.07331248897016047,-0.03157503223065287,-0.13046203437503426
1772741593770264300,7.756264404296875,0.08484510585367679,-0.049062977322004736,-0.18025928078833967
1772741593780280300,7.7662802734375,0.1429986041367054,-0.11267240292336791,-0.16716226413231342
1772741593790296600,7.776296630859375,0.07631985409259796,-0.08291811984647066,-0.1568691259158775
1772741593800311300,7.786311279296875,-0.03907119667232036,-0.019052600592188537,-0.1683690826388076
1772741593810327600,7.79632763671875,-0.05027297416627407,-0.0503103470345959,-0.14812917195819317
1772741593820343600,7.806343505859375,-0.011670564049482345,-0.0878567818250507,-0.19104900688268242
1772741593830358500,7.816358642578125,0.09032733665704727,-0.08701240342278033,-0.16511976198665795
1772741593840374500,7.82637451171875,0.1589800171226263,-0.01751395631544292,-0.07064652116391808
1772741593850390500,7.836390625,0.11946633737981319,0.057281793482415376,-0.030260150239802896
1772741593860406300,7.84640625,0.035654666227102276,0.07126056140903383,-0.04252623249702155
1772741593870421500,7.85642138671875,0.01425707341134548,0.006014255320839584,-0.09218366858083754
1772741593880437200,7.866437255859375,0.10073357985913753,-0.20792685725167392,-0.1361317140419036
1772741593890453200,7.876453369140625,0.04955401224195957,-0.2570515016330406,-0.1596842564018443
1772741593900468200,7.88646826171875,-0.13902619337439537,-0.16026012006103993,-0.14031623318493366
1772741593910484500,7.896484375,-0.23731647173464296,-0.016601115786843,-0.10452760184723883
1772741593920500500,7.90650048828125,-0.3460059790343046,0.1420711505608633,-0.03141023359037935
1772741593930515500,7.916515380859375,-0.5160971727579832,0.383079900942184,0.11370244009084998
1772741593940531500,7.926531494140625,-0.5253326186150312,0.5174846085283905,0.1958203860029578
1772741593950547500,7.93654736328125,-0.3977940339386463,0.3118905781384557,0.20948658084906635
1772741593960562400,7.9465625,-0.13653554560244083,-0.12600658933613448,-0.012903247649595141
1772741593970578400,7.956578369140625,0.1926297732681036,-0.24697766872309146,-0.07872019323259592
1772741593980594400,7.966594482421875,0.4724234507262706,-0.24139402337186036,0.08623999427817762
1772741593990609400,7.976609375,0.7678817303061485,-0.3809600227113813,0.07638166728243231
1772741594000625400,7.98662548828125,1.0225199237197637,-0.48039304136596617,0.020984920361638067
1772741594010641400,7.996641357421875,0.9110328946560621,-0.5237635792000219,-0.045457390578091145
1772741594020656400,8.006656494140625,0.4948059629261493,-0.3023383214171976,-0.11877879350706934
1772741594030672600,8.016672607421874,-0.019893617993593214,-0.03939936918076128,-0.11291187423504888
1772741594040688600,8.026688720703126,-0.4372036687850952,0.09712178257014602,-0.10841909286044538
1772741594050703600,8.03670361328125,-0.4949386493951082,0.2294106670461595,-0.20953991847150027
1772741594060719600,8.0467197265625,-0.44179275014102454,0.272115361382626,-0.26662279184833165
1772741594070735400,8.0567353515625,-0.47764323120117186,0.304498641256243,-0.20477628426626324
1772741594080751400,8.06675146484375,-0.3916828575819731,0.38986210842821745,-0.07377148478403688
1772741594090766300,8.076766357421874,-0.05132862069904804,0.42454036737121637,0.14197094158940016
1772741594100782300,8.0867822265625,0.20770576184689998,0.27914770770482716,0.26359686815589667
1772741594110798300,8.09679833984375,0.34954058290123935,0.012629727937839924,0.22590828494839368
1772741594120813300,8.106813232421874,0.46847558988332744,-0.11144866981469094,0.13226488254591823
1772741594130829300,8.116829345703126,0.5410077421307563,-0.014660503113083541,-0.00515687130652368
1772741594140845600,8.126845458984375,0.4826110827416181,-0.006105696463957429,0.02263261450342834
1772741594150860500,8.136860595703125,0.34882571263015266,-0.05824691218752413,0.10576777463406324
1772741594160876500,8.14687646484375,0.18407412636876105,0.2441939197560772,0.33486659925207496
1772741594170892500,8.156892578125,-0.06474456711113452,0.38793008091971276,0.42031551621779795
1772741594180907500,8.166907470703125,-0.23648118995428083,0.33841764279715714,0.2603130241796374
1772741594190923500,8.176923583984374,-0.16475626243650912,0.18370616983920335,0.19916319362483917
1772741594200939500,8.186939453125,-0.10614800612330436,-0.007368263745680451,0.18773425631150603
1772741594210954500,8.19695458984375,0.05374503419101238,-0.22738201076276598,0.08718355873860419
1772741594220970500,8.206970458984374,0.29376199705600736,-0.4270144658671692,-0.019090338786691426
1772741594230986200,8.216986328125,0.5732055459022521,-0.45100083306711164,0.026960560705140232
1772741594241001500,8.22700146484375,0.5968395194679499,-0.16461648863963782,0.20401567515730856
1772741594251017200,8.237017333984374,0.17076397841870783,0.11649360517933964,0.28934703015796837
1772741594261033500,8.247033447265625,-0.19274901573359965,0.25595344073064624,0.3386358886577189
1772741594271049500,8.257049560546875,-0.5043137959837913,0.2319065389825031,0.24525289075709877
1772741594281064400,8.267064453125,-0.8001222041755914,0.2890358818495646,0.248226207479462
1772741594291080400,8.27708056640625,-0.8237269516468048,0.284849097684212,0.1723684179406613
1772741594301096400,8.287096435546875,-0.5758902549415826,0.17417144877463578,0.1026546841148287
1772741594311111400,8.297111328125,-0.20912205838561057,0.051241490404866634,0.0986311276871711
1772741594321127400,8.30712744140625,0.28381577258110047,-0.11106591757480054,-0.021827800926566124
1772741594331143400,8.317143310546875,0.6381038422703743,-0.2002272791923955,0.008711202787235379
1772741594341158400,8.327158447265624,0.4871738606125116,-0.05281378122288733,0.12050371760353445
1772741594351174400,8.33717431640625,0.1423135444819927,0.0831506864933297,0.009834946120157837
1772741594361190700,8.347190673828125,-0.13642156383395193,0.050098384784348304,-0.0705299455795437
1772741594371205400,8.357205322265624,-0.09334230056405067,-0.04873005557321012,-0.16920578919127582
1772741594381221600,8.3672216796875,0.05307283401787281,-0.189077560679242,-0.16634375082366168
1772741594391237400,8.3772373046875,0.07657879728972912,-0.23251422255206852,-0.15039792060777543
1772741594401252600,8.387252685546875,0.040508535999059674,-0.12998795058988033,-0.20884631018415092
1772741594411269400,8.397269287109374,0.2694961553275585,-0.11803564698956906,-0.25893764417320486
1772741594421285400,8.407285400390625,0.597402414047718,-0.053017194840498265,-0.19145890285782516
1772741594431300400,8.41730029296875,0.6283253755778074,0.05139792307559401,-0.11207951506413519
1772741594441316400,8.42731640625,0.40381753201186654,0.06954937357697635,-0.19803221683353184
1772741594451332400,8.437332275390625,0.07158931843936443,0.07046411380171776,-0.24961020918376742
1772741594461347300,8.447347412109375,-0.14090075507462024,0.04026146590281278,-0.30020883510783314
1772741594471363300,8.45736328125,-0.17454057434797285,-0.07237228551059961,-0.2949954113084823
