time,seconds_elapsed,z,y,x
1772741586088210200,0.074210205078125,-0.0888015478849411,0.03072919324040413,-0.08090163767337799
1772741586098226400,0.084226318359375,-0.09638117253780365,0.031379006803035736,-0.07301495224237442
1772741586108241200,0.0942412109375,-0.09507110714912415,0.043771423399448395,-0.045295778661966324
1772741586118257400,0.10425732421875,-0.07230054587125778,0.058449700474739075,-0.01626812107861042
1772741586128273200,0.114273193359375,-0.05453548580408096,0.06711985915899277,0.009044666774570942
1772741586138289200,0.1242890625,-0.05203557759523392,0.055370528250932693,0.025634029880166054
1772741586148304100,0.13430419921875,-0.06592602282762527,0.0406014584004879,0.0409722626209259
1772741586158320000,0.144320068359375,-0.06907041370868683,0.048343267291784286,0.06993760913610458
1772741586168336100,0.154336181640625,-0.06297408044338226,0.04692072421312332,0.08467965573072433
1772741586178352000,0.16435205078125,-0.051266562193632126,0.032253365963697433,0.07684303820133209
1772741586188367000,0.1743671875,-0.04260370507836342,0.019676636904478073,0.059812694787979126
1772741586198383000,0.184383056640625,-0.0307513065636158,0.03373200073838234,0.042002540081739426
1772741586208399400,0.1943994140625,-0.019387729465961456,0.051830969750881195,0.03254071995615959
1772741586218415400,0.204415283203125,-0.009620852768421173,0.07695150375366211,0.030918056145310402
1772741586228430300,0.214430419921875,-0.004938904196023941,0.05894715338945389,0.03167621046304703
1772741586238446300,0.2244462890625,-0.0008126026950776577,0.02735540270805359,0.05288029834628105
1772741586248462000,0.234462158203125,0.0035404381342232227,0.029688186943531036,0.1263279914855957
1772741586258478000,0.24447802734375,0.009998604655265808,0.07237786054611206,0.22251924872398376
1772741586268493000,0.2544931640625,0.008055904880166054,0.0958770141005516,0.2902175486087799
1772741586278509000,0.264509033203125,0.005316576920449734,0.09501894563436508,0.3146270215511322
1772741586288525000,0.274525146484375,0.005979880224913359,0.07954442501068115,0.2986734211444855
1772741586298541300,0.284541259765625,0.0192410908639431,0.062470633536577225,0.2516361474990845
1772741586308556000,0.29455615234375,0.03445696830749512,0.022880759090185165,0.18592782318592072
1772741586318572300,0.304572265625,0.03954174369573593,-0.01698436588048935,0.11985772848129272
1772741586328588300,0.31458837890625,0.03438611328601837,-0.03787579759955406,0.06463362276554108
1772741586338603300,0.324603271484375,0.026723137125372887,-0.05472881346940994,0.012826886028051376
1772741586348619300,0.334619384765625,0.0235988050699234,-0.06145264208316803,-0.044948142021894455
1772741586358635300,0.34463525390625,0.022301580756902695,-0.05477423593401909,-0.09568428993225098
1772741586368651300,0.3546513671875,0.014501143246889114,-0.04275558516383171,-0.13939814269542694
1772741586378666200,0.364666259765625,0.002261255867779255,-0.014569484628736973,-0.15601013600826263
1772741586388682200,0.37468212890625,-0.008451172150671482,0.014495677314698696,-0.14962738752365112
1772741586398697200,0.384697265625,-0.019525129348039627,0.03392796218395233,-0.13921603560447693
1772741586408713200,0.394713134765625,-0.024158386513590813,0.059701718389987946,-0.10252810269594193
1772741586418728200,0.404728271484375,-0.03353670984506607,0.11308691650629044,-0.0558205172419548
1772741586428744200,0.414744140625,-0.04593585059046745,0.11732196807861328,-0.03202801197767258
1772741586438760200,0.42476025390625,-0.06156594306230545,0.11415653675794601,-0.018977193161845207
1772741586448776200,0.434776123046875,-0.06629747897386551,0.12063799053430557,0.00558100501075387
1772741586458791200,0.444791259765625,-0.0637296587228775,0.13138465583324432,0.0276559479534626
1772741586468807200,0.45480712890625,-0.058351051062345505,0.11780787259340286,0.025814663618803024
1772741586478823200,0.4648232421875,-0.05096983164548874,0.07622421532869339,-0.0028595905750989914
1772741586488839200,0.474839111328125,-0.04679170250892639,0.032983146607875824,-0.04637656360864639
1772741586498854100,0.484854248046875,-0.04263104870915413,0.005856452509760857,-0.06724882870912552
1772741586508870100,0.4948701171875,-0.04435082897543907,-0.0008455375209450722,-0.0737268477678299
1772741586518886100,0.50488623046875,-0.04253455251455307,-0.0020519495010375977,-0.0715654268860817
1772741586528902400,0.51490234375,-0.03572557494044304,0.006021181121468544,-0.04708375781774521
1772741586538917400,0.52491748046875,-0.03031829185783863,0.03288741782307625,-0.010589927434921265
1772741586548933400,0.534933349609375,-0.02537621185183525,0.05249087139964104,0.01465517096221447
1772741586558949000,0.54494921875,-0.02152900956571102,0.0693872943520546,0.04129929840564728
1772741586568965000,0.554965087890625,-0.016013525426387787,0.08329372853040695,0.05521823838353157
1772741586578980000,0.56497998046875,-0.0037169107235968113,0.08342581987380981,0.05949793756008148
1772741586588996000,0.57499609375,-0.0010664693545550108,0.07698454707860947,0.05717924237251282
1772741586599012000,0.58501220703125,-0.009008281864225864,0.051632050424814224,0.046404093503952026
1772741586609027000,0.595027099609375,-0.00721212662756443,0.027824047952890396,0.02988383173942566
1772741586619043000,0.60504296875,0.0025403695181012154,0.01743905059993267,0.016259897500276566
1772741586629059000,0.61505908203125,0.016502510756254196,0.01415653433650732,-0.0018039688002318144
1772741586639075300,0.625075439453125,0.020590197294950485,0.016818895936012268,-0.016445761546492577
1772741586649090300,0.63509033203125,0.015623273327946663,0.017730917781591415,-0.029504436999559402
1772741586659106300,0.645106201171875,0.005434285383671522,0.01555671263486147,-0.04220239073038101
1772741586669122300,0.655122314453125,0.004042020998895168,0.003445081878453493,-0.045846473425626755
1772741586679138300,0.66513818359375,0.0037512043491005898,0.0030775656923651695,-0.03999524191021919
1772741586689153300,0.6751533203125,0.0055364822037518024,0.007933451794087887,-0.03313692286610603
1772741586699169300,0.685169189453125,0.005413444247096777,0.017221227288246155,-0.025708571076393127
1772741586709185000,0.69518505859375,-0.0047069210559129715,0.04945024475455284,-0.008366892114281654
1772741586719201000,0.705200927734375,-0.014329188503324986,0.07462111115455627,0.0061225686222314835
1772741586729216000,0.715216064453125,-0.0236959345638752,0.06982177495956421,-0.0007521628867834806
1772741586739232300,0.725232177734375,-0.022586461156606674,0.04740755259990692,-0.016845645383000374
1772741586749248300,0.735248291015625,-0.017425134778022766,0.038234684616327286,-0.02180459350347519
1772741586759264300,0.74526416015625,-0.01167483814060688,0.027137555181980133,-0.017633816227316856
1772741586769279200,0.755279296875,-0.0069025917910039425,0.02068449929356575,-0.01050448790192604
1772741586779295200,0.765295166015625,-0.004570461809635162,0.02122751623392105,-0.004614374600350857
1772741586789311200,0.775311279296875,-0.0022824686020612717,0.026057980954647064,-0.0016470564296469092
1772741586799326200,0.785326171875,0.0037943320348858833,0.029061228036880493,-0.003301412332803011
1772741586809342200,0.79534228515625,0.00813920795917511,0.012734695337712765,-0.00909061636775732
1772741586819358200,0.805358154296875,0.013447154313325882,0.002346236724406481,-0.0015834309160709381
1772741586829374200,0.815374267578125,0.01653144881129265,-0.0032535672653466463,0.01077419612556696
1772741586839389200,0.82538916015625,0.021323539316654205,-0.02564089745283127,0.014251751825213432
1772741586849405200,0.8354052734375,0.021563299000263214,-0.042165160179138184,0.016954176127910614
1772741586859421200,0.845421142578125,0.014446000568568707,-0.04466506838798523,0.018329698592424393
1772741586869437200,0.855437255859375,0.010006599128246307,-0.030683349817991257,0.02734515070915222
1772741586879452200,0.8654521484375,0.011259349063038826,-0.012875058688223362,0.03333673253655434
1772741586889468200,0.87546826171875,0.006449946667999029,-0.009238610975444317,0.030390916392207146
1772741586899484200,0.885484130859375,0.001440274529159069,0.005520894192159176,0.030826875939965248
1772741586909500200,0.895500244140625,-0.008540153503417969,0.007155572064220905,0.025366611778736115
1772741586919515100,0.90551513671875,-0.018744854256510735,-0.0015308605507016182,0.020059730857610703
1772741586929531100,0.91553125,-0.03008551523089409,0.003893679240718484,0.021460244432091713
1772741586939547400,0.92554736328125,-0.030975278466939926,0.019754668697714806,0.0250491201877594
1772741586949563400,0.9355634765625,-0.03509380668401718,0.032257772982120514,0.01808798685669899
1772741586959578400,0.945578369140625,-0.035412054508924484,0.040200117975473404,0.019987618550658226
1772741586969594400,0.955594482421875,-0.03289399668574333,0.05968702584505081,0.019663263112306595
1772741586979610000,0.965610107421875,-0.026775917038321495,0.06052778661251068,0.008512075990438461
1772741586989625000,0.975625,-0.025512637570500374,0.04955737665295601,0.00025037419982254505
1772741586999641000,0.98564111328125,-0.02934306114912033,0.04644414037466049,0.0061918869614601135
1772741587009657000,0.995656982421875,-0.02380342036485672,0.06021997332572937,0.03928414732217789
1772741587019673000,1.005673095703125,-0.0050265369936823845,0.09056083858013153,0.08490782976150513
1772741587029688000,1.01568798828125,0.011679543182253838,0.12177780270576477,0.11425766348838806
1772741587039704000,1.0257041015625,0.02390238828957081,0.14037439227104187,0.12086363136768341
1772741587049720300,1.03572021484375,0.03226654231548309,0.14695468544960022,0.12228965014219284
1772741587059736300,1.045736328125,0.035471655428409576,0.13397523760795593,0.11870370805263519
1772741587069751300,1.055751220703125,0.026845820248126984,0.08229213207960129,0.11132227629423141
1772741587079767300,1.065767333984375,0.02929406240582466,0.021483374759554863,0.11297956109046936
1772741587089783300,1.075783203125,0.029679086059331894,-0.00591604970395565,0.13719485700130463
1772741587099799000,1.085799072265625,0.030711859464645386,-0.021837225183844566,0.17627328634262085
1772741587109814300,1.095814208984375,0.03226583078503609,-0.011167705990374088,0.21535047888755798
1772741587119830000,1.105830078125,0.038938648998737335,-0.006884277798235416,0.23214970529079437
1772741587129846000,1.115845947265625,0.04560670629143715,-0.015264084562659264,0.217060849070549
1772741587139861000,1.125861083984375,0.06689441949129105,-0.0032875831238925457,0.19048888981342316
1772741587149877200,1.135877197265625,0.08526010811328888,0.005437731277197599,0.16440695524215698
1772741587159893200,1.145893310546875,0.08226250112056732,0.025303145870566368,0.14017097651958466
1772741587169909200,1.1559091796875,0.06841607391834259,0.03258597105741501,0.10628265142440796
1772741587179924200,1.16592431640625,0.051440559327602386,0.00404061283916235,0.055476464331150055
1772741587189940200,1.175940185546875,0.04906139522790909,-0.012645834125578403,0.00858284905552864
1772741587199956200,1.185956298828125,0.05243029445409775,-0.007820986211299896,-0.041326120495796204
1772741587209972200,1.19597216796875,0.05287284031510353,-0.03224795684218407,-0.1012628898024559
1772741587219987200,1.2059873046875,0.05310160666704178,-0.015497739426791668,-0.1287461817264557
1772741587230003200,1.216003173828125,0.04026531055569649,0.042987722903490067,-0.12616074085235596
1772741587240019200,1.226019287109375,0.017455602064728737,0.058560024946928024,-0.12403926253318787
1772741587250035200,1.23603515625,-0.008983124047517776,0.04151155799627304,-0.12013104557991028
1772741587260050200,1.24605029296875,-0.025422019883990288,0.05645109340548515,-0.0868346095085144
1772741587270066200,1.256066162109375,-0.03579195961356163,0.09227997809648514,-0.038413770496845245
1772741587280082200,1.266082275390625,-0.043169714510440826,0.11824233829975128,-0.014909508638083935
1772741587290097200,1.27609716796875,-0.04495406895875931,0.11041085422039032,-0.03084525465965271
1772741587300113200,1.286113037109375,-0.04537538066506386,0.08795960992574692,-0.07341694831848145
1772741587310129200,1.296129150390625,-0.04419945180416107,0.07039414346218109,-0.1160704493522644
1772741587320145200,1.306145263671875,-0.04426922649145126,0.0688798651099205,-0.14571090042591095
1772741587330160000,1.31616015625,-0.053231190890073776,0.07452704757452011,-0.16653554141521454
1772741587340176100,1.326176025390625,-0.06265851855278015,0.06340622156858444,-0.18211476504802704
1772741587350192400,1.3361923828125,-0.0567326620221138,0.055667538195848465,-0.17490379512310028
1772741587360208400,1.34620849609375,-0.04432286322116852,0.047242362052202225,-0.16348442435264587
1772741587370223400,1.356223388671875,-0.03764377534389496,0.02453363686800003,-0.15771064162254333
1772741587380239400,1.3662392578125,-0.033244237303733826,0.019259514287114143,-0.13520853221416473
1772741587390255000,1.376255126953125,-0.03667440637946129,0.04318668693304062,-0.09540919214487076
1772741587400271400,1.386271240234375,-0.04535923898220062,0.07169422507286072,-0.06101340055465698
1772741587410286300,1.396286376953125,-0.050022613257169724,0.06995280832052231,-0.048740193247795105
1772741587420302300,1.40630224609375,-0.04808010533452034,0.040579475462436676,-0.057655125856399536
1772741587430318300,1.416318359375,-0.041600994765758514,0.02228470705449581,-0.05103471502661705
1772741587440333300,1.426333251953125,-0.03746670112013817,0.023198703303933144,-0.029037272557616234
1772741587450349300,1.436349365234375,-0.03514369577169418,0.014944903552532196,-0.007054585963487625
1772741587460365600,1.446365478515625,-0.024852439761161804,0.01616702973842621,0.014678140170872211
1772741587470381600,1.456381591796875,-0.01533149741590023,0.038283731788396835,0.046569183468818665
1772741587480396500,1.466396484375,0.00011004414409399033,0.0239814892411232,0.06366827338933945
1772741587490412500,1.47641259765625,0.015203332528471947,-0.027376916259527206,0.042766839265823364
1772741587500428500,1.486428466796875,0.01919248141348362,-0.07388608902692795,0.005082048010081053
1772741587510444300,1.4964443359375,0.010436415672302246,-0.0774269849061966,-0.023042216897010803
1772741587520459500,1.50645947265625,-0.001484159380197525,-0.07421281933784485,-0.03318806365132332
1772741587530475300,1.516475341796875,-0.00814458355307579,-0.08447472751140594,-0.026310134679079056
1772741587540491300,1.5264912109375,-0.0029301138129085302,-0.08567048609256744,-0.017037807032465935
1772741587550507500,1.536507568359375,0.0067923422902822495,-0.0726703405380249,-0.010048944503068924
1772741587560522500,1.5465224609375,0.016462281346321106,-0.05241513252258301,-0.009458521381020546
1772741587570538500,1.55653857421875,0.017185062170028687,-0.03245367482304573,-0.017593413591384888
1772741587580554500,1.566554443359375,0.011149273253977299,-0.034345850348472595,-0.04316188767552376
1772741587590569500,1.576569580078125,0.007911579683423042,-0.04087631031870842,-0.07065995037555695
1772741587600585500,1.58658544921875,0.011526287533342838,-0.03438139334321022,-0.08568603545427322
1772741587610601500,1.5966015625,0.010363142937421799,-0.026513930410146713,-0.09544923156499863
1772741587620617500,1.606617431640625,0.011493654921650887,-0.01808129996061325,-0.09003928303718567
1772741587630632400,1.616632568359375,0.011459991335868835,-0.004839014261960983,-0.07280973345041275
1772741587640648400,1.6266484375,0.008465533144772053,-0.00001762760803103447,-0.05260486155748367
1772741587650664400,1.63666455078125,0.005260010715574026,0.01798209547996521,-0.029945669695734978
1772741587660680400,1.646680419921875,0.007997740060091019,0.017713116481900215,-0.005478409118950367
1772741587670695400,1.6566953125,0.007279788609594107,0.023478686809539795,0.002917839679867029
1772741587680711400,1.66671142578125,-0.004234654828906059,0.024994026869535446,0.01133449375629425
1772741587690727400,1.6767275390625,-0.017323985695838928,0.019872991368174553,0.019116727635264397
1772741587700742400,1.686742431640625,-0.01812799461185932,0.014635350555181503,0.021105576306581497
1772741587710758400,1.69675830078125,-0.017318161204457283,-0.002359809121116996,0.019502965733408928
1772741587720774400,1.7067744140625,-0.01332901231944561,-0.014835386537015438,0.012308701872825623
1772741587730790400,1.716790283203125,-0.007368326187133789,-0.03984123840928078,0.0005379716167226434
1772741587740805400,1.726805419921875,-0.00012772344052791595,-0.05614084750413895,-0.007868030108511448
1772741587750821400,1.7368212890625,0.005792644806206226,-0.057230204343795776,-0.00653151236474514
1772741587760837600,1.746837646484375,0.007150856778025627,-0.04556689038872719,0.001687801443040371
1772741587770853600,1.756853515625,0.0009064157493412495,-0.0249873585999012,0.02150966413319111
1772741587780868600,1.76686865234375,-0.008713188581168652,-0.007232862524688244,0.04262320697307587
1772741587790884600,1.776884521484375,-0.014761846512556076,-0.0004591371398419142,0.0512789823114872
1772741587800900400,1.786900390625,-0.018482549116015434,-0.007907199673354626,0.05266942083835602
1772741587810916400,1.796916259765625,-0.012569993734359741,-0.00560903362929821,0.0615551695227623
1772741587820931300,1.806931396484375,-0.00660398043692112,0.0121420007199049,0.07558310776948929
1772741587830947300,1.816947265625,0.0013914862647652626,-0.005928761325776577,0.07601945847272873
1772741587840963300,1.82696337890625,0.01747218519449234,-0.021111443638801575,0.06761905550956726
1772741587850978300,1.836978271484375,0.02490171417593956,-0.018773235380649567,0.05015186220407486
1772741587860994300,1.846994384765625,0.017222486436367035,-0.026814382523298264,0.033627741038799286
1772741587871010600,1.857010498046875,0.006268621888011694,-0.03118392825126648,0.011686131358146667
1772741587881026600,1.867026611328125,0.004362597595900297,-0.03872786462306976,-0.015897827222943306
1772741587891041500,1.87704150390625,0.007058924064040184,-0.06444916129112244,-0.04456058144569397
1772741587901057500,1.8870576171875,0.008934589102864265,-0.0733150914311409,-0.0476895309984684
1772741587911073500,1.897073486328125,0.0069027915596961975,-0.03594537079334259,-0.013854625634849072
1772741587921089500,1.907089599609375,-0.00015618326142430305,0.007232459727674723,0.030091261491179466
1772741587931104500,1.9171044921875,-0.003350396640598774,0.021381039172410965,0.04894563555717468
1772741587941120500,1.92712060546875,-0.004232701845467091,0.01701345480978489,0.04698847979307175
1772741587951136300,1.93713623046875,0.0011552637442946434,0.017270401120185852,0.03478609770536423
1772741587961151500,1.9471513671875,0.00006443262100219727,0.021852368488907814,0.014245666563510895
1772741587971167200,1.957167236328125,-0.007567957509309053,0.010844365693628788,-0.023089023306965828
1772741587981183500,1.96718359375,-0.012447134591639042,-0.003192091127857566,-0.06864318996667862
1772741587991199500,1.977199462890625,-0.014254089444875717,-0.005387334153056145,-0.09147100895643234
1772741588001214500,1.98721435546875,-0.017604611814022064,0.017185885459184647,-0.08525679260492325
1772741588011230500,1.99723046875,-0.025944015011191368,0.05115050449967384,-0.06179220601916313
1772741588021246500,2.00724658203125,-0.014200806617736816,0.0595565065741539,-0.026248591020703316
1772741588031262500,2.017262451171875,0.009035876020789146,0.07235727459192276,0.005718686152249575
1772741588041277400,2.02727734375,0.031005356460809708,0.08003544062376022,0.02704687789082527
1772741588051293400,2.03729345703125,0.04165291041135788,0.07506126165390015,0.029054976999759674
1772741588061309400,2.047309326171875,0.04657469689846039,0.049820881336927414,0.003708874573931098
1772741588071324400,2.057324462890625,0.04424178600311279,0.01984257623553276,-0.028055084869265556
1772741588081340700,2.067340576171875,0.047255419194698334,-0.004230535589158535,-0.04829138144850731
1772741588091356400,2.0773564453125,0.05551338195800781,-0.02155606634914875,-0.05942773073911667
1772741588101372400,2.087372314453125,0.06323255598545074,-0.023511093109846115,-0.06029379367828369
1772741588111387400,2.097387451171875,0.0698084682226181,-0.015224305912852287,-0.04679785668849945
1772741588121403400,2.1074033203125,0.06979062408208847,-0.013165149837732315,-0.03572177141904831
1772741588131419400,2.11741943359375,0.063316710293293,-0.01112243440002203,-0.02511938288807869
1772741588141435400,2.127435302734375,0.04859901964664459,-0.014877225272357464,-0.023835472762584686
1772741588151450400,2.137450439453125,0.021170536056160927,-0.014833741821348667,-0.027845855802297592
1772741588161466400,2.14746630859375,-0.01275147870182991,0.00392130296677351,-0.016984952613711357
1772741588171482600,2.157482666015625,-0.030021119862794876,0.030760519206523895,0.004378535784780979
1772741588181498600,2.16749853515625,-0.021650005131959915,0.04361853003501892,0.01783176138997078
1772741588191513600,2.177513671875,-0.013314365409314632,0.050191283226013184,0.025425035506486893
1772741588201529600,2.187529541015625,-0.015663273632526398,0.045926760882139206,0.02432009018957615
1772741588211545300,2.19754541015625,-0.019182195886969566,0.030893629416823387,0.016904132440686226
1772741588221560600,2.207560546875,-0.020919643342494965,0.023661283776164055,0.004577958956360817
1772741588231576300,2.217576416015625,-0.017936546355485916,0.026971448212862015,-0.006509726867079735
1772741588241592300,2.22759228515625,-0.017796199768781662,0.01544688455760479,-0.022507335990667343
1772741588251608300,2.2376083984375,-0.01857609674334526,0.010377340950071812,-0.03321452438831329
1772741588261623300,2.247623291015625,-0.02140517346560955,0.030234135687351227,-0.028952138498425484
1772741588271639300,2.257639404296875,-0.024317806586623192,0.04761591926217079,-0.022858714684844017
1772741588281655600,2.267655517578125,-0.02719694934785366,0.04929184541106224,-0.02937733381986618
1772741588291671600,2.277671630859375,-0.02746075578033924,0.02814156748354435,-0.051399506628513336
1772741588301686500,2.2876865234375,-0.0320320725440979,0.016398625448346138,-0.06369931995868683
1772741588311702500,2.29770263671875,-0.03676054999232292,0.026318706572055817,-0.05396059527993202
1772741588321718500,2.307718505859375,-0.04070335999131203,0.04792759194970131,-0.03469209000468254
1772741588331733500,2.3177333984375,-0.04292896389961243,0.06022953242063522,-0.02001114934682846
1772741588341749500,2.32774951171875,-0.0389840267598629,0.06747812777757645,-0.01330371294170618
1772741588351765500,2.337765625,-0.03329995274543762,0.062421806156635284,-0.024292239919304848
1772741588361781200,2.34778125,-0.031159035861492157,0.04448781535029411,-0.04790515825152397
1772741588371796500,2.35779638671875,-0.03454405441880226,0.025516368448734283,-0.07040554285049438
1772741588381812200,2.367812255859375,-0.0321916863322258,0.021498989313840866,-0.07704479992389679
1772741588391828500,2.377828369140625,-0.02254832535982132,0.0417432002723217,-0.06696002185344696
1772741588401845500,2.387845458984375,-0.015791619196534157,0.05016864463686943,-0.07098032534122467
1772741588411860500,2.397860595703125,-0.012827116996049881,0.04661913588643074,-0.08296672254800797
1772741588421876500,2.40787646484375,-0.01744956523180008,0.04957284778356552,-0.0715995505452156
1772741588431892500,2.417892578125,-0.021320218220353127,0.06518519669771194,-0.04787975549697876
1772741588441907500,2.427907470703125,-0.025832945480942726,0.06640119105577469,-0.02676248736679554
1772741588451923500,2.43792333984375,-0.024721607565879822,0.05565284192562103,-0.01765802875161171
1772741588461939500,2.447939453125,-0.01635049283504486,0.041651804000139236,-0.003964853473007679
1772741588471955500,2.45795556640625,-0.011944187805056572,0.05344946309924126,0.016377026215195656
1772741588481970400,2.467970458984375,-0.006242360454052687,0.05692009627819061,0.03024197556078434
1772741588491986400,2.477986328125,-0.0015214611776173115,0.039004188030958176,0.02326020412147045
1772741588502002400,2.48800244140625,-0.0008202509488910437,0.015650130808353424,0.0041397735476493835
1772741588512018400,2.498018310546875,0.004338681697845459,-0.005286790430545807,-0.007199124898761511
1772741588522033400,2.508033447265625,0.00885753333568573,-0.0046409741044044495,-0.005116532556712627
1772741588532049400,2.51804931640625,0.006769882515072823,0.004111137706786394,0.005094735883176327
1772741588542065400,2.5280654296875,0.008007719181478024,-0.0025515584275126457,0.011710826307535172
1772741588552080400,2.538080322265625,0.01470725703984499,-0.0018867116887122393,0.014299804344773293
1772741588562096600,2.5480966796875,0.02178407460451126,-0.013093825429677963,0.008047767914831638
1772741588572112600,2.558112548828125,0.029725495725870132,-0.029348380863666534,-0.001739301485940814
1772741588582128600,2.568128662109375,0.03404460847377777,-0.026816779747605324,-0.007037127856165171
1772741588592143600,2.5781435546875,0.03807205334305763,-0.021683625876903534,-0.014412326738238335
1772741588602159600,2.58815966796875,0.036450453102588654,-0.01380439754575491,-0.016396382823586464
1772741588612175400,2.59817529296875,0.03223041072487831,-0.004880248568952084,-0.013911740854382515
1772741588622191400,2.60819140625,0.02934514358639717,0.006709561683237553,-0.00241860281676054
1772741588632206300,2.618206298828125,0.026231836527585983,0.008147643879055977,0.010234584100544453
1772741588642222300,2.628222412109375,0.031962960958480835,0.012820959091186523,0.018811827525496483
1772741588652238300,2.63823828125,0.03509428724646568,0.022382142022252083,0.027082445099949837
1772741588662253300,2.64825341796875,0.03812336549162865,0.011890885420143604,0.019268730655312538
1772741588672269600,2.65826953125,0.03575432300567627,-0.007242374587804079,0.0018446804024279118
1772741588682285600,2.66828564453125,0.03324935585260391,-0.02516198717057705,-0.012738790363073349
1772741588692301600,2.678301513671875,0.029641855508089066,-0.02949361875653267,-0.014300461858510971
1772741588702316500,2.688316650390625,0.027520380914211273,-0.033938437700271606,-0.006888352334499359
1772741588712332500,2.69833251953125,0.02726142853498459,-0.03960422798991203,0.001423165202140808
1772741588722348500,2.7083486328125,0.023128468543291092,-0.036434534937143326,0.011017202399671078
1772741588732364500,2.718364501953125,0.019014665856957436,-0.020121440291404724,0.020055079832673073
1772741588742379500,2.728379638671875,0.01134449616074562,-0.004319573752582073,0.030733557417988777
1772741588752395300,2.738395263671875,0.0029427725821733475,0.008588334545493126,0.030750693753361702
1772741588762411500,2.74841162109375,-0.0032906222622841597,-0.0027207788079977036,0.011270469054579735
1772741588772426500,2.758426513671875,-0.013305647298693657,-0.019976910203695297,-0.010772673413157463
1772741588782442500,2.7684423828125,-0.018594153225421906,-0.012948296032845974,-0.013145016506314278
1772741588792458500,2.77845849609375,-0.021353542804718018,0.002796456916257739,-0.004778548609465361
1772741588802474500,2.788474609375,-0.02262919768691063,0.0023932543117552996,-0.008728282526135445
1772741588812489500,2.798489501953125,-0.025635376572608948,-0.009059300646185875,-0.023797158151865005
1772741588822505500,2.80850537109375,-0.026644978672266006,-0.021678157150745392,-0.0386168509721756
1772741588832521500,2.818521484375,-0.029793446883559227,-0.033532336354255676,-0.04580119997262955
1772741588842537500,2.828537353515625,-0.0296858549118042,-0.03951193019747734,-0.03745511919260025
1772741588852552400,2.838552490234375,-0.03416922315955162,-0.0029698156286031008,-0.000748392369132489
1772741588862568400,2.848568359375,-0.03579641878604889,0.030088800936937332,0.030240949243307114
1772741588872584700,2.858584716796875,-0.039242424070835114,0.022485267370939255,0.02207360602915287
1772741588882599700,2.868599609375,-0.035169921815395355,0.021295899525284767,0.003614171175286174
1772741588892615700,2.87861572265625,-0.03826536238193512,0.013896008022129536,-0.017843998968601227
1772741588902631400,2.88863134765625,-0.044794101268053055,0.005869773216545582,-0.03086579218506813
1772741588912647400,2.8986474609375,-0.043783869594335556,-0.0021846238523721695,-0.03150438517332077
1772741588922662400,2.908662353515625,-0.041245877742767334,-0.003116197418421507,-0.023722629994153976
1772741588932678400,2.918678466796875,-0.03690100461244583,0.00044730701483786106,-0.012459080666303635
1772741588942694400,2.9286943359375,-0.03376220539212227,0.004289449192583561,-0.010215368121862411
1772741588952710400,2.93871044921875,-0.029803574085235596,0.008813215419650078,-0.013763108290731907
1772741588962725400,2.948725341796875,-0.028530318289995193,0.01989888772368431,-0.017393261194229126
1772741588972741600,2.95874169921875,-0.03328883647918701,0.02900869771838188,-0.021513521671295166
1772741588982757600,2.968757568359375,-0.03675547242164612,0.0276078749448061,-0.020288467407226562
1772741588992772600,2.978772705078125,-0.032984547317028046,0.018847821280360222,-0.015428322367370129
1772741589002788600,2.98878857421875,-0.024487465620040894,0.011242100037634373,-0.009534214623272419
1772741589012804600,2.9988046875,-0.016397815197706223,0.007286174222826958,-0.006555016152560711
1772741589022820400,3.0088203125,-0.009993977844715118,-0.009475228376686573,-0.011986532248556614
1772741589032835600,3.018835693359375,-0.005963848903775215,-0.0025586672127246857,-0.022552546113729477
1772741589042851300,3.028851318359375,-0.005363572388887405,-0.014149810187518597,-0.039811160415410995
1772741589052867300,3.038867431640625,-0.007533750496804714,-0.03772071376442909,-0.06275837123394012
1772741589062883300,3.04888330078125,-0.002989864908158779,-0.04114926978945732,-0.06963358074426651
1772741589072898300,3.058898193359375,-0.002827867865562439,-0.03658709302544594,-0.05630239471793175
1772741589082914600,3.06891455078125,0.00145316356793046,-0.01859690435230732,-0.0340689942240715
1772741589092930600,3.0789306640625,0.003710138611495495,-0.01587774232029915,-0.01405127253383398
1772741589102945500,3.088945556640625,0.00918985903263092,-0.006713006645441055,0.00630326708778739
1772741589112961500,3.09896142578125,0.01723862625658512,0.004525843542069197,0.028039241209626198
1772741589122977500,3.1089775390625,0.015999989584088326,0.005666208919137716,0.04353244975209236
1772741589132993500,3.11899365234375,0.015262359753251076,0.00694492319598794,0.05089646577835083
1772741589143008500,3.129008544921875,0.015738533809781075,0.00691562844440341,0.05053294450044632
1772741589153024500,3.1390244140625,0.016550248488783836,0.008542986586689949,0.04297187179327011
1772741589163040500,3.14904052734375,0.01260051317512989,-0.007471933029592037,0.022053537890315056
1772741589173056500,3.159056396484375,0.005826818756759167,-0.0277988500893116,-0.005852465517818928
1772741589183071500,3.169071533203125,0.004336247220635414,-0.032959260046482086,-0.021049795672297478
1772741589193087500,3.17908740234375,-0.0028302485588937998,-0.03166813403367996,-0.02906215749680996
1772741589203103500,3.189103515625,-0.0075690774247050285,-0.0249782707542181,-0.029155634343624115
1772741589213118500,3.199118408203125,-0.011719629168510437,-0.011421652510762215,-0.026468420401215553
1772741589223134500,3.209134521484375,-0.015317026525735855,-0.005282266531139612,-0.024968795478343964
1772741589233150500,3.219150390625,-0.018664460629224777,0.0038831487763673067,-0.027376949787139893
1772741589243166500,3.22916650390625,-0.021614976227283478,0.00889095664024353,-0.03678589686751366
1772741589253181400,3.239181396484375,-0.02597072720527649,0.009317759424448013,-0.04680564999580383
1772741589263197400,3.249197509765625,-0.025218386203050613,0.014780169352889061,-0.05261719971895218
1772741589273213400,3.25921337890625,-0.028295574709773064,0.012809179723262787,-0.056110966950654984
1772741589283228400,3.269228515625,-0.029260437935590744,0.0175221748650074,-0.05640418082475662
1772741589293244700,3.27924462890625,-0.02873055636882782,0.023751983419060707,-0.04357105866074562
1772741589303260700,3.2892607421875,-0.021678771823644638,0.03205918148159981,-0.02966429851949215
1772741589313276400,3.2992763671875,-0.01834673248231411,0.030831079930067062,-0.018289262428879738
1772741589323291600,3.309291748046875,-0.01299484446644783,0.02654419094324112,-0.01867302507162094
1772741589333307400,3.319307373046875,-0.008260456845164299,0.03407440334558487,-0.013065888546407223
1772741589343323400,3.329323486328125,-0.00958617776632309,0.030093243345618248,-0.018870249390602112
1772741589353339400,3.33933935546875,-0.010487211868166924,0.025070929899811745,-0.024415865540504456
1772741589363354400,3.349354248046875,-0.010998005978763103,0.029879266396164894,-0.01715821772813797
1772741589373370400,3.359370361328125,-0.011432226747274399,0.03143913298845291,0.0027351088356226683
1772741589383386400,3.369386474609375,-0.01014432217925787,0.024157781153917313,0.021085619926452637
1772741589393401300,3.3794013671875,-0.0058579761534929276,0.021248340606689453,0.03717838600277901
1772741589403416300,3.389416259765625,0.0012880838476121426,0.02863887883722782,0.04941694438457489
1772741589413432300,3.399432373046875,0.00691132852807641,0.027352044358849525,0.04480966925621033
1772741589423448300,3.4094482421875,0.00705753592774272,0.023087257519364357,0.01576070860028267
1772741589433463300,3.41946337890625,0.004984659142792225,0.008255429565906525,-0.02428404986858368
1772741589443479300,3.429479248046875,0.0031542684882879257,-0.01028017234057188,-0.06312278658151627
1772741589453495300,3.439495361328125,0.0023286882787942886,-0.024230875074863434,-0.08695488423109055
1772741589463511300,3.44951123046875,-0.00026709469966590405,-0.025810662657022476,-0.0873626172542572
1772741589473526300,3.4595263671875,0.0014447318390011787,-0.019354553893208504,-0.07569177448749542
1772741589483542300,3.469542236328125,0.0031201266683638096,-0.013328618369996548,-0.06413711607456207
1772741589493558500,3.47955859375,0.005364102777093649,-0.015660911798477173,-0.06229199469089508
1772741589503573500,3.489573486328125,0.004880206193774939,-0.013277383521199226,-0.05861549824476242
1772741589513589500,3.499589599609375,0.00040818704292178154,-0.011107796803116798,-0.053600337356328964
1772741589523605200,3.509605224609375,-0.007133352570235729,0.0029369157273322344,-0.028914162889122963
1772741589533621200,3.519621337890625,-0.00850784219801426,0.030903635546565056,0.005633239168673754
1772741589543636200,3.52963623046875,-0.00886736810207367,0.049192629754543304,0.03277511149644852
1772741589553652200,3.53965234375,-0.012963039800524712,0.05089588463306427,0.03908884525299072
1772741589563668200,3.549668212890625,-0.015395039692521095,0.03241753950715065,0.031165409833192825
1772741589573683200,3.55968310546875,-0.010192057117819786,0.011239987798035145,0.014075271785259247
1772741589583699200,3.56969921875,-0.0034571895375847816,0.007458033040165901,-0.0005811695009469986
1772741589593715500,3.579715576171875,0.006200514733791351,-0.004060572013258934,-0.017724109813570976
1772741589603731500,3.5897314453125,0.008892437443137169,-0.01961849257349968,-0.04176446422934532
1772741589613746400,3.599746337890625,0.011589985340833664,-0.03260253369808197,-0.05585639551281929
1772741589623762400,3.609762451171875,0.00904320552945137,-0.023326747119426727,-0.05195752531290054
1772741589633778400,3.6197783203125,0.003051184583455324,-0.01516919955611229,-0.041112836450338364
1772741589643794200,3.629794189453125,0.0031643686816096306,-0.008557901717722416,-0.030879639089107513
1772741589653809400,3.639809326171875,0.0029129995964467525,0.0067152585834264755,-0.010428237728774548
1772741589663825200,3.6498251953125,0.0043090288527309895,0.03774641081690788,0.01507312711328268
1772741589673841200,3.659841064453125,0.0021873805671930313,0.046163350343704224,0.024409668520092964
1772741589683856100,3.669856201171875,0.005178908817470074,0.04421711340546608,0.018574682995676994
1772741589693872000,3.6798720703125,0.0066698878072202206,0.03689879551529884,0.002027444075793028
1772741589703888400,3.689888427734375,0.005317002069205046,0.017892081290483475,-0.012759491801261902
1772741589713904400,3.699904296875,0.00440680468454957,0.016431361436843872,-0.020054398104548454
1772741589723919400,3.70991943359375,0.003265906125307083,0.01642097532749176,-0.016873784363269806
1772741589733935400,3.719935302734375,0.009562330320477486,0.014070878736674786,-0.017392687499523163
1772741589743951400,3.729951416015625,0.007944725453853607,0.018979616463184357,-0.019330671057105064
1772741589753966300,3.73996630859375,0.00624665105715394,0.023328574374318123,-0.028456006199121475
1772741589763982300,3.749982421875,0.007226162124425173,0.01621793396770954,-0.04853943735361099
1772741589773998300,3.759998291015625,0.008785024285316467,0.006543212570250034,-0.061264779418706894
1772741589784014300,3.770014404296875,0.011099310591816902,0.005957582965493202,-0.056760311126708984
1772741589794029300,3.780029296875,0.014147412031888962,0.011002043262124062,-0.04091917350888252
1772741589804045300,3.79004541015625,0.012606507167220116,0.018912697210907936,-0.01984930783510208
1772741589814061300,3.800061279296875,0.012745140120387077,0.02250524051487446,-0.00885608047246933
1772741589824077300,3.810077392578125,0.014308148995041847,0.025548167526721954,-0.0023702180478721857
1772741589834092300,3.82009228515625,0.015648500993847847,0.022714998573064804,-0.002744219731539488
1772741589844108300,3.8301083984375,0.011325925588607788,0.018394816666841507,-0.00015562702901661396
1772741589854124300,3.840124267578125,0.0064058806747198105,0.021558064967393875,0.00936832930892706
1772741589864139300,3.85013916015625,0.0006603770889341831,0.02537224441766739,0.016122372820973396
1772741589874155300,3.8601552734375,-0.00013937382027506828,0.029521821066737175,0.025158829987049103
1772741589884171300,3.870171142578125,-0.0033474178053438663,0.019283298403024673,0.01666015014052391
1772741589894187300,3.880187255859375,-0.008001096546649933,0.018089378252625465,0.009541498497128487
1772741589904202200,3.8902021484375,-0.016739992424845695,0.016505062580108643,0.003810642287135124
1772741589914218500,3.900218505859375,-0.022165078669786453,0.014967979863286018,-0.005896744783967733
1772741589924234500,3.910234375,-0.020922448486089706,0.011592156253755093,-0.008913573808968067
1772741589934249500,3.92024951171875,-0.018381448462605476,0.012344732880592346,-0.005746339913457632
1772741589944265500,3.930265380859375,-0.014453019946813583,0.018113939091563225,0.005853057838976383
1772741589954281200,3.94028125,-0.013066977262496948,0.004907430615276098,0.002983370330184698
1772741589964297200,3.950297119140625,-0.00946691632270813,-0.01974252052605152,-0.004516623914241791
1772741589974312200,3.960312255859375,-0.004050900228321552,-0.02533215656876564,-0.004786863923072815
1772741589984328200,3.970328125,0.0007734163664281368,-0.0155487684533,0.003683319315314293
1772741589994344200,3.98034423828125,0.003788858652114868,-0.0015668310225009918,0.005852534435689449
1772741590004359200,3.990359130859375,0.007013946771621704,0.0002539721317589283,-0.008450504392385483
1772741590014375200,4.000375244140625,0.005499586928635836,-0.012467805296182632,-0.043058399111032486
1772741590024391400,4.010391357421875,0.0046188789419829845,-0.029640134423971176,-0.0797002986073494
1772741590034407400,4.020407470703125,0.0022902190685272217,-0.040963951498270035,-0.0959632471203804
1772741590044422400,4.03042236328125,-0.009489208459854126,-0.03414679318666458,-0.0863867849111557
1772741590054438400,4.0404384765625,-0.011012246832251549,-0.023608675226569176,-0.04401775076985359
1772741590064454400,4.050454345703125,-0.008286501280963421,0.012759186327457428,0.008859580382704735
1772741590074470400,4.060470458984375,-0.005270644091069698,0.027421502396464348,0.045818161219358444
1772741590084485400,4.0704853515625,0.0019888668321073055,0.023180684074759483,0.06121069937944412
1772741590094501400,4.08050146484375,0.0034315790981054306,0.01597866788506508,0.061784811317920685
1772741590104517000,4.09051708984375,-0.0023458823561668396,0.019016001373529434,0.05963724106550217
1772741590114532400,4.100532470703125,-0.006011464633047581,0.023667003959417343,0.05157167837023735
1772741590124548400,4.11054833984375,-0.008011498488485813,0.006371104158461094,0.021866247057914734
1772741590134564400,4.120564453125,-0.0014413781464099884,-0.02670087106525898,-0.02119073085486889
1772741590144580400,4.130580322265625,0.0012803724966943264,-0.025896862149238586,-0.0392666719853878
1772741590154595300,4.14059521484375,0.0023373570293188095,0.0009291693568229675,-0.02886996418237686
1772741590164611300,4.150611328125,0.0010169618763029575,0.027149854227900505,-0.017040204256772995
1772741590174627300,4.16062744140625,-0.004727381747215986,0.04169232398271561,-0.01241053082048893
1772741590184642300,4.170642333984375,-0.004676515702158213,0.03323998674750328,-0.020013324916362762
1772741590194658300,4.180658203125,-0.002104183891788125,0.020839674398303032,-0.031027186661958694
1772741590204674300,4.19067431640625,0.0017944173887372017,0.013784695416688919,-0.03452258184552193
1772741590214690300,4.200690185546875,0.0029471968300640583,0.02062772959470749,-0.028185006231069565
1772741590224705300,4.210705322265625,0.004853487946093082,0.020431721583008766,-0.019330263137817383
1772741590234721500,4.220721435546875,0.0073942141607403755,0.01875954680144787,-0.009192116558551788
1772741590244737300,4.2307373046875,0.012822535820305347,0.028604721650481224,0.010917944833636284
1772741590254752500,4.24075244140625,0.02250582166016102,0.033370647579431534,0.03266124799847603
1772741590264768300,4.250768310546875,0.03244100883603096,0.030004944652318954,0.048588547855615616
1772741590274784300,4.2607841796875,0.0432269386947155,0.01246478222310543,0.059847280383110046
1772741590284800300,4.27080029296875,0.04887363687157631,0.01195238996297121,0.07346268743276596
1772741590294815200,4.280815185546875,0.05412963405251503,0.024529336020350456,0.09024316817522049
1772741590304831200,4.290831298828125,0.053913652896881104,0.016828538849949837,0.09388904273509979
1772741590314847200,4.30084716796875,0.05548376217484474,-0.003273551119491458,0.07943790405988693
1772741590324862200,4.3108623046875,0.05516577884554863,-0.017037833109498024,0.06182748079299927
1772741590334878200,4.320878173828125,0.0585164874792099,-0.028734933584928513,0.04358302429318428
1772741590344894500,4.33089453125,0.059192925691604614,-0.03443116694688797,0.029222462326288223
1772741590354910500,4.340910400390625,0.06214652583003044,-0.02868860587477684,0.025843137875199318
1772741590364925400,4.350925537109375,0.05987405404448509,-0.01869216375052929,0.033294927328825
1772741590374941400,4.36094140625,0.06010397896170616,-0.007363324984908104,0.037146423012018204
1772741590384957400,4.37095751953125,0.05432198941707611,-0.008925535716116428,0.03341027349233627
1772741590394973200,4.38097314453125,0.048358604311943054,0.0004171677865087986,0.029783926904201508
1772741590404989400,4.390989501953125,0.041446901857852936,-0.0019868675153702497,0.019836487248539925
1772741590415005700,4.401005615234375,0.035680729895830154,-0.010291713289916515,0.0050803907215595245
1772741590425021700,4.411021728515625,0.03479096665978432,-0.02840999700129032,-0.013641365803778172
1772741590435036700,4.42103662109375,0.03720942884683609,-0.02572549507021904,-0.03216709941625595
1772741590445052700,4.431052734375,0.040779661387205124,-0.006310252472758293,-0.03732004761695862
1772741590455068700,4.441068603515625,0.034465089440345764,0.010573959909379482,-0.038408469408750534
1772741590465084700,4.451084716796875,0.023630283772945404,0.0219709575176239,-0.04016562178730965
1772741590475099600,4.461099609375,0.010940158739686012,0.021953551098704338,-0.05046864598989487
1772741590485115600,4.47111572265625,0.0017077778466045856,0.01588553749024868,-0.0633077397942543
1772741590495131400,4.48113134765625,-0.0073617915622889996,0.012914853170514107,-0.07605813443660736
1772741590505146600,4.491146728515625,-0.013228734955191612,0.012968914583325386,-0.08357091248035431
1772741590515162400,4.501162353515625,-0.018997924402356148,0.016193250194191933,-0.077879898250103
1772741590525178600,4.5111787109375,-0.0213010273873806,0.0203938540071249,-0.057415109127759933
1772741590535194600,4.521194580078125,-0.02624223753809929,0.040234506130218506,-0.023059438914060593
1772741590545209600,4.531209716796875,-0.028992485255002975,0.05041124299168587,0.01131451316177845
1772741590555225600,4.5412255859375,-0.0316876657307148,0.04966893792152405,0.035198964178562164
1772741590565241600,4.55124169921875,-0.025463061407208443,0.04563211649656296,0.049108922481536865
1772741590575256600,4.561256591796875,-0.02012636698782444,0.032184381037950516,0.051926448941230774
1772741590585272600,4.5712724609375,-0.01664241962134838,0.018301591277122498,0.053322210907936096
1772741590595288600,4.58128857421875,-0.01763932593166828,0.009247783571481705,0.05739886313676834
1772741590605304600,4.5913046875,-0.015026498585939407,0.002693744143471122,0.0613589845597744
1772741590615319600,4.601319580078125,-0.011831977404654026,-0.00035597081296145916,0.06114896759390831
1772741590625335600,4.61133544921875,-0.008432451635599136,-0.01252075843513012,0.05496164411306381
1772741590635351600,4.6213515625,-0.009360508061945438,-0.025085095316171646,0.04520774632692337
1772741590645366800,4.63136669921875,-0.0050216862000525,-0.018445037305355072,0.034038983285427094
1772741590655382500,4.641382568359375,0.00044679315760731697,-0.023075930774211884,0.01614154316484928
1772741590665398500,4.6513984375,0.006111869588494301,-0.01853524148464203,0.007063893135637045
1772741590675414500,4.66141455078125,0.010323206894099712,0.028687844052910805,0.022043582051992416
1772741590685429500,4.671429443359375,0.013644701801240444,0.05969396233558655,0.03162004426121712
1772741590695445500,4.681445556640625,0.014316841959953308,0.055483415722846985,0.007320193573832512
1772741590705461500,4.69146142578125,0.021580614149570465,0.042317815124988556,-0.03228074312210083
1772741590715476500,4.7014765625,0.0281633622944355,0.020769452676177025,-0.07324675470590591
1772741590725492500,4.711492431640625,0.03171734884381294,0.002733727218583226,-0.10997440665960312
1772741590735508700,4.7215087890625,0.0312904454767704,-0.013466281816363335,-0.12853583693504333
1772741590745524700,4.731524658203125,0.0316033661365509,0.0019289199262857437,-0.11443839967250824
1772741590755539700,4.741539794921875,0.03668338432908058,0.02638455107808113,-0.07294224947690964
1772741590765555700,4.7515556640625,0.04311944916844368,0.04394170641899109,-0.031222231686115265
1772741590775571700,4.76157177734375,0.04446936398744583,0.04691024497151375,-0.002560863271355629
1772741590785586700,4.771586669921875,0.03692223131656647,0.04450221359729767,0.010198608040809631
1772741590795602700,4.781602783203125,0.03281030431389809,0.02442043647170067,0.008377892896533012
1772741590805618400,4.791618408203125,0.028302637860178947,0.012221560813486576,-0.001470742980018258
1772741590815634400,4.801634521484375,0.02270573005080223,0.00875210389494896,-0.005568197928369045
1772741590825649400,4.8116494140625,0.016944512724876404,0.01935228332877159,-0.00490400567650795
1772741590835665400,4.82166552734375,0.014650651253759861,0.027658239006996155,-0.00657987454906106
1772741590845681700,4.831681640625,0.008673718199133873,0.01987089216709137,-0.014246316626667976
1772741590855696600,4.841696533203125,0.005999036133289337,0.010228091850876808,-0.028930477797985077
1772741590865712600,4.851712646484375,-0.0025861961767077446,0.0012194167356938124,-0.03730159252882004
1772741590875728600,4.861728759765625,-0.00893382914364338,-0.002165042795240879,-0.024533146992325783
1772741590885744600,4.87174462890625,-0.018966756761074066,0.012983283959329128,0.006328096147626638
1772741590895759600,4.881759521484375,-0.02983773499727249,0.0406264029443264,0.04688192903995514
1772741590905775600,4.891775634765625,-0.03777502104640007,0.042392343282699585,0.07095610350370407
1772741590915791600,4.90179150390625,-0.03880570828914642,0.03924497961997986,0.07298009097576141
1772741590925806600,4.911806640625,-0.03836628794670105,0.03493678569793701,0.05269426479935646
1772741590935822600,4.921822509765625,-0.038229621946811676,0.012525257654488087,0.01842045783996582
1772741590945838300,4.93183837890625,-0.040276527404785156,-0.020649205893278122,-0.017672831192612648
1772741590955854600,4.9418544921875,-0.039063502103090286,-0.042852818965911865,-0.040964316576719284
1772741590965869600,4.95186962890625,-0.03964646905660629,-0.0598302036523819,-0.036273691803216934
1772741590975885600,4.961885498046875,-0.04067046940326691,-0.03766375035047531,0.0017777254106476903
1772741590985901600,4.971901611328125,-0.04207049310207367,0.00802331231534481,0.05462522804737091
1772741590995916500,4.98191650390625,-0.04516134038567543,0.03942203149199486,0.0913960263133049
1772741591005932500,4.9919326171875,-0.03950611874461174,0.046513497829437256,0.09352441877126694
1772741591015948500,5.001948486328125,-0.0305333249270916,0.05431285873055458,0.07346845418214798
1772741591025964500,5.011964599609375,-0.019021278247237206,0.025879085063934326,0.03179902955889702
1772741591035979500,5.0219794921875,-0.011086000129580498,0.004298157524317503,-0.008751277811825275
1772741591045995500,5.03199560546875,-0.005631313193589449,0.003774580080062151,-0.019779426977038383
1772741591056011800,5.04201171875,-0.0011359681375324726,0.013822128996253014,-0.019202079623937607
1772741591066026800,5.05202685546875,-0.002915492281317711,0.014995251782238483,-0.018333885818719864
1772741591076042800,5.062042724609375,-0.0032684982288628817,0.007773988880217075,-0.02208828367292881
1772741591086058500,5.07205859375,-0.0035507932770997286,0.0048082927241921425,-0.023850232362747192
1772741591096074500,5.082074462890625,-0.0031816940754652023,0.005073174834251404,-0.02400265634059906
1772741591106089500,5.09208935546875,-0.008355682715773582,0.0141074163839221,-0.013746555894613266
1772741591116105500,5.10210546875,-0.016425974667072296,0.03497428819537163,0.003015077207237482
1772741591126121500,5.11212158203125,-0.022875351831316948,0.04763921722769737,0.013897019438445568
1772741591136136400,5.122136474609375,-0.02964256890118122,0.05357305333018303,0.012991058640182018
1772741591146152400,5.13215234375,-0.03355555236339569,0.05606124550104141,0.006156588438898325
1772741591156168400,5.14216845703125,-0.038251012563705444,0.05378250777721405,-0.0017883515683934093
1772741591166184700,5.152184814453125,-0.045713990926742554,0.04724285006523132,-0.006360200233757496
1772741591176199700,5.16219970703125,-0.05110333114862442,0.02733205445110798,-0.008511107414960861
1772741591186215700,5.172215576171875,-0.05394971743226051,0.03595909848809242,0.01569542847573757
1772741591196231700,5.182231689453125,-0.048938360065221786,0.03960690647363663,0.04623924568295479
1772741591206246700,5.19224658203125,-0.044286616146564484,0.03313302993774414,0.06536074727773666
1772741591216262700,5.2022626953125,-0.03717958182096481,0.042119815945625305,0.07523303478956223
1772741591226278700,5.212278564453125,-0.03271185979247093,0.049870945513248444,0.07791030406951904
1772741591236293600,5.222293701171875,-0.027208395302295685,0.048343442380428314,0.06312800943851471
1772741591246309600,5.2323095703125,-0.03244071081280708,0.02990984171628952,0.03706764802336693
1772741591256325400,5.242325439453125,-0.03707502782344818,0.004351331386715174,0.006625178270041943
1772741591266341600,5.252341552734375,-0.030839504674077034,-0.006528746802359819,-0.01681916043162346
1772741591276356400,5.2623564453125,-0.01456083357334137,-0.009648943319916725,-0.03429541736841202
1772741591286372600,5.27237255859375,0.011183411814272404,-0.007310421671718359,-0.04572011157870293
1772741591296388600,5.282388671875,0.026815548539161682,-0.009795011952519417,-0.045988406985998154
1772741591306403600,5.292403564453125,0.020441275089979172,-0.023631732910871506,-0.03543296828866005
1772741591316419600,5.302419677734375,0.01452934741973877,-0.005823276471346617,0.00011339655611664057
1772741591326435600,5.312435546875,0.01067335531115532,0.009459540247917175,0.045879021286964417
1772741591336451600,5.32245166015625,0.011636932380497456,0.01992824301123619,0.08013882488012314
1772741591346466600,5.332466552734375,0.005708735436201096,0.02165983058512211,0.09549488127231598
1772741591356482600,5.342482666015625,0.004206936340779066,0.009447113610804081,0.08740507811307907
1772741591366498600,5.35249853515625,0.0017379196360707283,-0.0009615856688469648,0.06813871115446091
1772741591376513500,5.362513427734375,-0.003930616658180952,-0.007935388945043087,0.045989908277988434
1772741591386529800,5.37252978515625,-0.012861527502536774,-0.006864265538752079,0.03165730461478233
1772741591396545500,5.382545654296875,-0.020354457199573517,-0.0017227157950401306,0.02350594848394394
1772741591406561000,5.39256103515625,-0.026363613083958626,0.0025868115480989218,0.017583876848220825
1772741591416576300,5.402576171875,-0.031180012971162796,0.013825908303260803,0.031040899455547333
1772741591426592000,5.412592041015625,-0.03290494158864021,0.03941861912608147,0.05029582232236862
1772741591436608000,5.42260791015625,-0.04290572553873062,0.057807039469480515,0.06467028707265854
1772741591446623000,5.432623046875,-0.04767198488116264,0.0576762780547142,0.06418852508068085
1772741591456639000,5.442638916015625,-0.056291013956069946,0.0657176747918129,0.053973183035850525
1772741591466655000,5.452655029296875,-0.062114547938108444,0.06377170234918594,0.03514862805604935
1772741591476671000,5.4626708984375,-0.06120912730693817,0.05860200524330139,0.010138859041035175
1772741591486686000,5.47268603515625,-0.05192987620830536,0.038819778710603714,-0.03031029738485813
1772741591496702000,5.482701904296875,-0.04368739202618599,0.013508077710866928,-0.0675816759467125
1772741591506718200,5.49271826171875,-0.035896848887205124,0.0019512905273586512,-0.08822037279605865
1772741591516733200,5.502733154296875,-0.03265359252691269,-0.0059224688448011875,-0.08938486874103546
1772741591526749200,5.512749267578125,-0.03729095682501793,-0.0008600661531090736,-0.0666622444987297
1772741591536765200,5.52276513671875,-0.0412973053753376,0.012566905468702316,-0.029879603534936905
1772741591546780200,5.5327802734375,-0.04570004343986511,0.019240785390138626,0.014419950544834137
1772741591556796200,5.542796142578125,-0.05106988549232483,0.021491892635822296,0.04981199651956558
1772741591566812200,5.552812255859375,-0.05469311401247978,0.021964071318507195,0.0795120969414711
1772741591576828000,5.562827880859375,-0.04938488081097603,0.024173153564333916,0.09661678969860077
1772741591586843100,5.572843017578125,-0.04053279757499695,0.02347354218363762,0.09653742611408234
1772741591596859000,5.58285888671875,-0.030339155346155167,0.02118813246488571,0.07806231826543808
1772741591606875100,5.592875244140625,-0.019617000594735146,0.015369659289717674,0.04368410259485245
1772741591616889900,5.602889892578125,-0.009643560275435448,-0.012683512642979622,-0.002778675640001893
1772741591626906000,5.612906005859375,0.0006053494289517403,-0.03771376609802246,-0.04130662605166435
1772741591636922000,5.622922119140625,0.0033528897911310196,-0.04911244660615921,-0.061506010591983795
1772741591646938000,5.632938232421875,0.003812018781900406,-0.046982452273368835,-0.05135910212993622
1772741591656953000,5.642953125,0.0038817934691905975,-0.007521860301494598,-0.02428141050040722
1772741591666969000,5.652968994140625,0.005196862854063511,0.008214492350816727,0.0023267650976777077
1772741591676985000,5.662985107421875,0.00902465358376503,0.012477131560444832,0.011043304577469826
1772741591687000000,5.673,0.01047181524336338,0.02274920977652073,0.015332591719925404
1772741591697016000,5.68301611328125,0.010840199887752533,0.01711185649037361,0.01401701383292675
1772741591707032000,5.693031982421875,0.0069924648851156235,0.012216965667903423,0.010065414011478424
1772741591717047000,5.703047119140625,0.006668259389698505,0.005473833065479994,0.005116958636790514
1772741591727063300,5.713063232421875,0.0060317637398839,0.008980151265859604,0.002458591479808092
1772741591737079000,5.7230791015625,0.008022641763091087,0.012510696426033974,-0.007953341118991375
1772741591747095000,5.733094970703125,0.005941381212323904,-0.006877381820231676,-0.03251088410615921
1772741591757110000,5.743110107421875,0.004573137033730745,-0.03207976743578911,-0.060174256563186646
1772741591767126000,5.7531259765625,0.0067113894037902355,-0.03154793754220009,-0.06589099764823914
1772741591777142000,5.76314208984375,0.00726937735453248,-0.02555829845368862,-0.07009992748498917
1772741591787157000,5.773156982421875,0.0024045808240771294,-0.04196443781256676,-0.08247137814760208
1772741591797173000,5.783173095703125,-0.002824844792485237,-0.06468048691749573,-0.09130651503801346
1772741591807189000,5.79318896484375,-0.010759467259049416,-0.05224166065454483,-0.05370933935046196
1772741591817205000,5.803205078125,-0.02241457998752594,0.01304638758301735,0.02697048895061016
1772741591827220000,5.813219970703125,-0.039650026708841324,0.05311843752861023,0.09052896499633789
1772741591837236200,5.823236328125,-0.05094189941883087,0.047318048775196075,0.11498287320137024
1772741591847252200,5.833252197265625,-0.044759903103113174,0.03542517125606537,0.1044388860464096
1772741591857267200,5.84326708984375,-0.039906978607177734,0.023106519132852554,0.07524615526199341
1772741591867283200,5.853283203125,-0.040756795555353165,-0.004836964886635542,0.03125818818807602
1772741591877299000,5.863298828125,-0.04431182146072388,-0.02033022977411747,-0.00516568124294281
1772741591887314200,5.873314208984375,-0.04439118504524231,-0.015328546985983849,-0.018840214237570763
1772741591897330000,5.883329833984375,-0.04139193147420883,-0.013128465041518211,-0.024163777008652687
1772741591907346000,5.893345947265625,-0.0359116792678833,-0.01781829260289669,-0.022654296830296516
1772741591917362000,5.90336181640625,-0.03254956379532814,-0.02973269112408161,-0.017963092774152756
1772741591927377000,5.913376953125,-0.03583483770489693,-0.027471402660012245,0.0016798501601442695
1772741591937393200,5.92339306640625,-0.042213935405015945,-0.007820186205208302,0.03901069983839989
1772741591947409200,5.9334091796875,-0.050368532538414,0.016187943518161774,0.0642169862985611
1772741591957424000,5.943424072265625,-0.05316217616200447,0.014670845121145248,0.05993231385946274
1772741591967440100,5.953440185546875,-0.047459281980991364,0.006485619582235813,0.031744617968797684
1772741591977456000,5.9634560546875,-0.03705127164721489,-0.0046598645858466625,-0.006762961857020855
1772741591987472100,5.97347216796875,-0.03171296417713165,-0.021833525970578194,-0.04383309930562973
1772741591997487000,5.983487060546875,-0.024440839886665344,-0.03524652495980263,-0.06899380683898926
1772741592007503000,5.993503173828125,-0.022159574553370476,-0.040883369743824005,-0.07441866397857666
1772741592017519000,6.00351904296875,-0.022257663309574127,-0.03580303490161896,-0.0634935274720192
1772741592027534000,6.0135341796875,-0.024547982960939407,-0.033136412501335144,-0.03995304927229881
1772741592037550000,6.023550048828125,-0.025135856121778488,-0.017057685181498528,0.0006653558230027556
1772741592047566000,6.033566162109375,-0.027767591178417206,0.013019256293773651,0.04929174855351448
1772741592057581300,6.043581298828125,-0.026633840054273605,0.02418464422225952,0.08494731783866882
1772741592067597000,6.05359716796875,-0.024046313017606735,0.02771812677383423,0.103202223777771
1772741592077613000,6.063613037109375,-0.018050935119390488,0.02411280944943428,0.10636191070079803
1772741592087629000,6.073629150390625,-0.011522196233272552,-0.0017925556749105453,0.09154488146305084
1772741592097644000,6.08364404296875,-0.0035655966494232416,-0.03418724238872528,0.05771709606051445
1772741592107660000,6.093659912109375,0.007540583610534668,-0.045696891844272614,0.03282506391406059
1772741592117676000,6.103676025390625,0.014448992908000946,-0.05309751629829407,0.00786944106221199
1772741592127691000,6.11369091796875,0.015882305800914764,-0.059096019715070724,-0.014770356938242912
1772741592137707000,6.12370703125,0.013928258791565895,-0.053454816341400146,-0.023622384294867516
1772741592147723000,6.133722900390625,0.008624040521681309,-0.03742844611406326,-0.015086686238646507
1772741592157738000,6.143738037109375,-0.000239840941503644,-0.023545514792203903,-0.001319855684414506
1772741592167754200,6.153754150390625,-0.01109541766345501,0.002839219756424427,0.02264273539185524
1772741592177770200,6.163770263671875,-0.01989779621362686,0.026476141065359116,0.039549339562654495
1772741592187786000,6.173785888671875,-0.028893686830997467,0.026102231815457344,0.03133828192949295
1772741592197801200,6.18380126953125,-0.030741995200514793,0.024693353101611137,0.007526039145886898
1772741592207817000,6.19381689453125,-0.035622768104076385,0.00972372479736805,-0.0310000479221344
1772741592217833000,6.2038330078125,-0.034891366958618164,-0.009692576713860035,-0.06643496453762054
1772741592227848000,6.213847900390625,-0.032972291111946106,-0.005473330616950989,-0.08270155638456345
1772741592237864000,6.223864013671875,-0.029048388823866844,0.0010522124357521534,-0.08391435444355011
1772741592247880000,6.2338798828125,-0.02517641894519329,0.007221957668662071,-0.0813651829957962
1772741592257895000,6.24389501953125,-0.026560168713331223,-0.00044370186515152454,-0.08204586803913116
1772741592267911000,6.253910888671875,-0.02974211424589157,0.013793823309242725,-0.06319867819547653
1772741592277927200,6.26392724609375,-0.0343143567442894,0.041202861815690994,-0.039636313915252686
1772741592287943200,6.273943115234375,-0.04155575484037399,0.0324527807533741,-0.03408948332071304
1772741592297958100,6.283958251953125,-0.0389057993888855,0.01678897812962532,-0.033665113151073456
1772741592307974100,6.29397412109375,-0.032202091068029404,0.022349126636981964,-0.013102049008011818
1772741592317990100,6.303990234375,-0.02823648229241371,0.033065106719732285,0.01422904059290886
1772741592328005000,6.314005126953125,-0.027217023074626923,0.033908795565366745,0.036232076585292816
1772741592338021000,6.324021240234375,-0.02498665079474449,0.022026892751455307,0.03955338895320892
1772741592348037000,6.334037109375,-0.01926831156015396,0.001924819895066321,0.03453945741057396
1772741592358052000,6.344052001953125,-0.01164180412888527,-0.007749008480459452,0.031186094507575035
1772741592368068000,6.354068115234375,-0.007580749690532684,-0.014097185805439949,0.029931746423244476
1772741592378084000,6.364083984375,-0.0068209730088710785,-0.031155161559581757,0.025014663115143776
1772741592388100000,6.37410009765625,-0.0026904104743152857,-0.018402615562081337,0.03474105894565582
1772741592398115000,6.384114990234375,0.0019615408964455128,0.0022643469274044037,0.04638011381030083
1772741592408131000,6.394131103515625,0.004132549278438091,-0.002371950075030327,0.0406937338411808
1772741592418147000,6.40414697265625,0.005153859034180641,-0.0023392969742417336,0.02174951136112213
1772741592428162000,6.414162109375,0.009399470873177052,-0.009947149083018303,0.0027513187378644943
1772741592438178000,6.424177978515625,0.01367295440286398,-0.011472508311271667,-0.012316794134676456
1772741592448194000,6.434194091796875,0.015294554643332958,0.00839733611792326,-0.016143757849931717
1772741592458210000,6.4442099609375,0.014941342175006866,0.015500694513320923,-0.02004104107618332
1772741592468225000,6.45422509765625,0.01490352489054203,0.012366420589387417,-0.03317921236157417
1772741592478241000,6.464240966796875,0.010593549348413944,0.010372107848525047,-0.049456603825092316
1772741592488257300,6.47425732421875,0.0032474854961037636,0.0034425626508891582,-0.04730690270662308
1772741592498272300,6.484272216796875,-0.002442119177430868,0.004718277603387833,-0.03633539751172066
1772741592508288300,6.494288330078125,-0.006538860034197569,0.011717330664396286,-0.02058279886841774
1772741592518304000,6.504303955078125,-0.0071580614894628525,0.006538135930895805,-0.007095940411090851
1772741592528319200,6.5143193359375,-0.006965248379856348,0.010584276169538498,0.010297697968780994
1772741592538335000,6.5243349609375,-0.004334216937422752,0.016216831281781197,0.01789749786257744
1772741592548351000,6.53435107421875,-0.005584038328379393,0.0040895938873291016,0.017476452514529228
1772741592558366000,6.544365966796875,-0.0037615355104207993,-0.007750547491014004,0.01698433980345726
1772741592568382000,6.5543818359375,-0.0012232766021043062,-0.010285078547894955,0.022379370406270027
1772741592578398000,6.56439794921875,-0.007109960541129112,-0.015507782809436321,0.030888423323631287
1772741592588414000,6.5744140625,-0.007334731053560972,-0.016631370410323143,0.040321603417396545
1772741592598429000,6.584428955078125,-0.00546472892165184,-0.01680849865078926,0.04858776926994324
1772741592608445200,6.594445068359375,-0.0024684062227606773,-0.00913033727556467,0.05535699054598808
1772741592618461200,6.604461181640625,-0.004181515891104937,-0.006463175639510155,0.046931587159633636
1772741592628476200,6.61447607421875,-0.013540929183363914,-0.01721702143549919,0.029712118208408356
1772741592638492200,6.6244921875,-0.015633419156074524,-0.017286080867052078,0.02243386022746563
1772741592648508200,6.634508056640625,-0.021650565788149834,-0.01308041624724865,0.01557755097746849
1772741592658523100,6.644523193359375,-0.020968498662114143,-0.010032668709754944,0.006396412383764982
1772741592668539100,6.6545390625,-0.01901480369269848,-0.008164459839463234,-0.0029459563083946705
1772741592678555100,6.66455517578125,-0.01698002964258194,-0.020438572391867638,-0.01759970746934414
1772741592688571000,6.67457080078125,-0.021343085914850235,-0.010776890441775322,-0.024147620424628258
1772741592698586000,6.684586181640625,-0.027390047907829285,0.0028167874552309513,-0.014815281145274639
1772741592708601900,6.694601806640625,-0.027647575363516808,0.020709235221147537,-0.0014470118330791593
1772741592718618000,6.7046181640625,-0.027452286332845688,0.04258503392338753,0.01595393940806389
1772741592728633000,6.714633056640625,-0.025148387998342514,0.04495790973305702,0.015390947461128235
1772741592738649000,6.724649169921875,-0.024393504485487938,0.039563536643981934,0.008830283768475056
1772741592748665000,6.7346650390625,-0.022205984219908714,0.03973850607872009,-0.0022649771999567747
1772741592758680000,6.74468017578125,-0.02408159151673317,0.02013702690601349,-0.020660031586885452
1772741592768696000,6.754696044921875,-0.023156408220529556,0.012761136516928673,-0.03437957167625427
1772741592778712000,6.764712158203125,-0.016405563801527023,0.01227370835840702,-0.04040469601750374
1772741592788728000,6.77472802734375,-0.012487788684666157,0.01202416978776455,-0.03571673482656479
1772741592798743000,6.784742919921875,-0.006832065526396036,0.012470802292227745,-0.026694759726524353
1772741592808759000,6.794759033203125,-0.0035036467015743256,0.01839207485318184,-0.00805715937167406
1772741592818775300,6.804775390625,0.0013943444937467575,0.027723290026187897,0.007667270489037037
1772741592828790300,6.814790283203125,0.005887629464268684,0.02841144986450672,0.014467652887105942
1772741592838806300,6.82480615234375,0.0059141917154192924,0.0201612189412117,0.010924826376140118
1772741592848822000,6.834822021484375,0.010924129746854305,0.0016386667266488075,0.001131051336415112
1772741592858837200,6.844837158203125,0.012678982689976692,-0.008795097470283508,-0.006091236136853695
1772741592868853000,6.85485302734375,0.009229656308889389,-0.02114151231944561,-0.0020259208977222443
1772741592878869000,6.864868896484375,0.005551877431571484,-0.013518324121832848,0.015717750415205956
1772741592888884000,6.874884033203125,0.0025984314270317554,0.0036843647249042988,0.033838700503110886
1772741592898900000,6.88489990234375,-0.004611267242580652,-0.0025788259226828814,0.034619372338056564
1772741592908916000,6.894916015625,-0.005052020773291588,-0.015790235251188278,0.019896885380148888
1772741592918932000,6.904931884765625,0.0005353852175176144,-0.023021547123789787,0.0060409302823245525
1772741592928947000,6.914947021484375,0.003295751754194498,-0.01731279492378235,0.006593002937734127
1772741592938963200,6.924963134765625,0.002214635256677866,-0.007095097564160824,0.009987423196434975
1772741592948979200,6.934979248046875,0.0004114089533686638,0.0004927811678498983,0.010034827515482903
1772741592958994200,6.944994140625,0.00020281365141272545,0.00835520587861538,0.002207241952419281
1772741592969010200,6.95501025390625,0.001934134867042303,0.01266526523977518,-0.010059278458356857
1772741592979026200,6.965026123046875,-0.0020021444652229548,0.009257537312805653,-0.029305631294846535
1772741592989041200,6.975041259765625,-0.0012045279145240784,0.0011564677115529776,-0.04246937111020088
1772741592999057200,6.98505712890625,-0.0034267522860318422,-0.009840311482548714,-0.047921519726514816
1772741593009073000,6.995072998046875,-0.002956704469397664,-0.0084309671074152,-0.04265991225838661
1772741593019089000,7.0050888671875,-0.0020583372097462416,-0.0027562484610825777,-0.027972718700766563
1772741593029103900,7.015103759765625,-0.0064450958743691444,-0.0036966109182685614,-0.013870482333004475
1772741593039120000,7.025119873046875,-0.011099444702267647,-0.00011820043437182903,-0.0012136111035943031
1772741593049136000,7.03513623046875,-0.017532043159008026,-0.008406490087509155,0.002474334556609392
1772741593059151000,7.045151123046875,-0.01838262379169464,-0.01770912855863571,0.006333525758236647
1772741593069167000,7.0551669921875,-0.017785808071494102,-0.018149349838495255,0.01864691823720932
1772741593079183000,7.06518310546875,-0.0185561440885067,-0.014622149989008904,0.035844143480062485
1772741593089198000,7.075197998046875,-0.02134660631418228,-0.00936613604426384,0.04967234283685684
1772741593099214000,7.085214111328125,-0.020913079380989075,-0.012402379885315895,0.05371393635869026
1772741593109230000,7.09522998046875,-0.019063778221607208,-0.011543510481715202,0.052237749099731445
1772741593119245000,7.1052451171875,-0.019862841814756393,-0.026157790794968605,0.03718011826276779
1772741593129261000,7.115260986328125,-0.025399822741746902,-0.03822377324104309,0.021187035366892815
1772741593139277000,7.125277099609375,-0.023732449859380722,-0.03532090410590172,0.016379745677113533
1772741593149293300,7.135293212890625,-0.023226981982588768,-0.02431512624025345,0.024138066917657852
1772741593159308000,7.14530810546875,-0.02336566522717476,-0.004050839692354202,0.032039158046245575
1772741593169324000,7.155323974609375,-0.020559757947921753,0.002011846285313368,0.03177497163414955
1772741593179340000,7.165340087890625,-0.017188403755426407,0.004657883662730455,0.02552313171327114
1772741593189355000,7.17535498046875,-0.01534016989171505,0.006416635122150183,0.01186377927660942
1772741593199371000,7.18537109375,-0.017561502754688263,-0.01344385277479887,-0.009901869110763073
1772741593209387000,7.195386962890625,-0.013844795525074005,-0.0204522293061018,-0.018801622092723846
1772741593219402000,7.205402099609375,-0.01911342144012451,-0.007154086604714394,-0.010691193863749504
1772741593229418000,7.21541796875,-0.029051274061203003,0.0013445932418107986,0.00036411976907402277
1772741593239434000,7.22543408203125,-0.032942600548267365,0.016180848702788353,0.011913047172129154
1772741593249449000,7.235448974609375,-0.031608887016773224,0.012955227866768837,0.010582266375422478
1772741593259465000,7.24546484375,-0.031013570725917816,-0.0036058248952031136,-0.005930638872087002
1772741593269481200,7.255481201171875,-0.025692306458950043,-0.019322469830513,-0.023082196712493896
1772741593279497200,7.265497314453125,-0.023433921858668327,-0.03511567786335945,-0.03374316543340683
1772741593289512200,7.27551220703125,-0.025396404787898064,-0.04895106703042984,-0.03515224531292915
1772741593299528200,7.285528076171875,-0.023904189467430115,-0.05580649524927139,-0.015524906106293201
1772741593309544200,7.295544189453125,-0.022441580891609192,-0.05175929144024849,0.012560790404677391
1772741593319559200,7.30555908203125,-0.01866239681839943,-0.04628736525774002,0.03799980878829956
1772741593329575200,7.3155751953125,-0.015509746968746185,-0.029574697837233543,0.05825261399149895
1772741593339591000,7.3255908203125,-0.007726090028882027,-0.011900773271918297,0.0655648484826088
1772741593349606100,7.335606201171875,-0.006240579299628735,0.0022126492112874985,0.05655857175588608
1772741593359622000,7.345621826171875,-0.008154327049851418,0.004584993235766888,0.030856935307383537
1772741593369638000,7.355637939453125,-0.006760694086551666,0.008746715262532234,0.0018045121105387807
1772741593379652900,7.36565283203125,-0.005305623169988394,0.015745827928185463,-0.027996093034744263
1772741593389669000,7.375669189453125,-0.004704548045992851,-0.004073950462043285,-0.06411787867546082
1772741593399685000,7.38568505859375,-0.0017671396490186453,-0.008571875281631947,-0.08936672657728195
1772741593409700400,7.395700439453125,0.003974901512265205,0.010638038627803326,-0.08811184018850327
1772741593419715300,7.40571533203125,0.005296850576996803,0.03368886932730675,-0.08220583945512772
1772741593429731300,7.4157314453125,0.0026688436046242714,0.04116116464138031,-0.08969385176897049
1772741593439747300,7.425747314453125,0.003805316984653473,0.03195842728018761,-0.09952329099178314
1772741593449762300,7.43576220703125,0.002771744504570961,0.01284278929233551,-0.10642460733652115
1772741593459778600,7.445778564453125,0.005492035765200853,0.017872754484415054,-0.08916221559047699
1772741593469794600,7.455794677734375,0.010051101446151733,0.03429034352302551,-0.056518781930208206
1772741593479809500,7.4658095703125,0.014390870928764343,0.0400376096367836,-0.025416655465960503
1772741593489825500,7.475825439453125,0.024335913360118866,0.04291728138923645,-0.008678954094648361
1772741593499841500,7.485841552734375,0.03444823622703552,0.03371017426252365,-0.010786027647554874
1772741593509856500,7.4958564453125,0.04131706804037094,0.016327721998095512,-0.03081885725259781
1772741593519872500,7.50587255859375,0.04138443246483803,-0.0017912008333951235,-0.04772176593542099
1772741593529888500,7.515888427734375,0.03453930839896202,-0.03424554690718651,-0.05501509830355644
1772741593539903500,7.525903564453125,0.027628358453512192,-0.05058225616812706,-0.037846338003873825
1772741593549919500,7.53591943359375,0.026211291551589966,-0.030226383358240128,0.0070271254517138
1772741593559935200,7.545935302734375,0.02963157743215561,-0.008880188688635826,0.05912405997514725
1772741593569951500,7.555951416015625,0.029611602425575256,0.0018353053601458669,0.09344927221536636
1772741593579966500,7.565966552734375,0.029548279941082,0.008187663741409779,0.10919833928346634
1772741593589982500,7.575982421875,0.030398894101381302,0.008040124550461769,0.1018216535449028
1772741593599998500,7.58599853515625,0.029533296823501587,0.00441553583368659,0.08156190067529678
1772741593610013400,7.596013427734375,0.029112782329320908,-0.001431168057024479,0.054482076317071915
1772741593620029400,7.606029541015625,0.028398893773555756,-0.011948786675930023,0.018795493990182877
1772741593630045400,7.61604541015625,0.025867557153105736,-0.036688487976789474,-0.01722642220556736
1772741593640060400,7.626060302734375,0.024681884795427322,-0.05069862678647041,-0.03805015981197357
1772741593650076400,7.636076416015625,0.0193632859736681,-0.04146251827478409,-0.03134351968765259
1772741593660092400,7.646092529296875,0.01083419844508171,-0.020899727940559387,-0.0042343176901340485
1772741593670107400,7.656107421875,-0.001916750567033887,-0.005716513842344284,0.018406279385089874
1772741593680123400,7.666123291015625,-0.00562897976487875,-0.00832782220095396,0.027449732646346092
1772741593690139600,7.6761396484375,-0.010246368125081062,-0.013231766410171986,0.024038488045334816
1772741593700155400,7.6861552734375,-0.010250047780573368,-0.014014124870300293,0.006380509585142136
1772741593710170600,7.696170654296875,-0.014217625372111797,-0.018041623756289482,-0.011511404998600483
1772741593720186400,7.706186279296875,-0.018531275913119316,-0.028225762769579887,-0.03506222367286682
1772741593730202400,7.716202392578125,-0.027970049530267715,-0.03565731644630432,-0.060420311987400055
1772741593740217300,7.72621728515625,-0.03749091178178787,-0.04854799807071686,-0.07426761835813522
1772741593750233300,7.7362333984375,-0.046181872487068176,-0.055268753319978714,-0.08055055141448975
1772741593760249300,7.746249267578125,-0.05901021882891655,-0.05253592133522034,-0.07999559491872787
1772741593770264300,7.756264404296875,-0.07659986615180969,-0.05989529937505722,-0.08214449882507324
1772741593780280300,7.7662802734375,-0.0960569828748703,-0.07435279339551926,-0.08367520570755005
1772741593790296600,7.776296630859375,-0.11361546814441681,-0.0698603093624115,-0.07665777951478958
1772741593800311300,7.786311279296875,-0.12975062429904938,-0.07682552933692932,-0.05251654237508774
1772741593810327600,7.79632763671875,-0.1583857387304306,-0.08992108702659607,-0.03627685457468033
1772741593820343600,7.806343505859375,-0.18609166145324707,-0.09589669108390808,-0.03326801583170891
1772741593830358500,7.816358642578125,-0.20275746285915375,-0.10434184223413467,-0.044370200484991074
1772741593840374500,7.82637451171875,-0.20445267856121063,-0.11603045463562012,-0.058254364877939224
1772741593850390500,7.836390625,-0.19567516446113586,-0.11844673752784729,-0.07107562571763992
1772741593860406300,7.84640625,-0.1924017369747162,-0.10223479568958282,-0.06989136338233948
1772741593870421500,7.85642138671875,-0.20383283495903015,-0.12214485555887222,-0.06010397523641586
1772741593880437200,7.866437255859375,-0.23236769437789917,-0.16838452219963074,-0.05142362788319588
1772741593890453200,7.876453369140625,-0.26107898354530334,-0.17906193435192108,-0.03423798084259033
1772741593900468200,7.88646826171875,-0.27376729249954224,-0.15797896683216095,-0.008211171254515648
1772741593910484500,7.896484375,-0.28198927640914917,-0.1436719298362732,0.01631973683834076
1772741593920500500,7.90650048828125,-0.2754316031932831,-0.11173104494810104,0.03987109661102295
1772741593930515500,7.916515380859375,-0.24796883761882782,-0.05651066452264786,0.07261066138744354
1772741593940531500,7.926531494140625,-0.214140385389328,-0.03192928805947304,0.12185639142990112
1772741593950547500,7.93654736328125,-0.20640283823013306,-0.021558938547968864,0.1610029935836792
1772741593960562400,7.9465625,-0.21520458161830902,-0.023910775780677795,0.16672132909297943
1772741593970578400,7.956578369140625,-0.2048472762107849,-0.01587229035794735,0.14600886404514313
1772741593980594400,7.966594482421875,-0.17177820205688477,-0.017075905576348305,0.10064122825860977
1772741593990609400,7.976609375,-0.15486977994441986,-0.042833201587200165,0.019778873771429062
1772741594000625400,7.98662548828125,-0.19126377999782562,-0.14060461521148682,-0.04769996553659439
1772741594010641400,7.996641357421875,-0.2547098696231842,-0.2074076235294342,-0.11136043816804886
1772741594020656400,8.006656494140625,-0.29336264729499817,-0.21457041800022125,-0.15544627606868744
1772741594030672600,8.016672607421874,-0.30023226141929626,-0.17234279215335846,-0.15014605224132538
1772741594040688600,8.026688720703126,-0.2918589413166046,-0.12035797536373138,-0.10302254557609558
1772741594050703600,8.03670361328125,-0.2922581732273102,-0.06596238166093826,-0.04254508391022682
1772741594060719600,8.0467197265625,-0.2870168387889862,0.00980665348470211,0.021046916022896767
1772741594070735400,8.0567353515625,-0.26466625928878784,0.10152538865804672,0.08738838881254196
1772741594080751400,8.06675146484375,-0.2187279760837555,0.14098039269447327,0.1313771903514862
1772741594090766300,8.076766357421874,-0.1690187305212021,0.09703263640403748,0.12647004425525665
1772741594100782300,8.0867822265625,-0.13737210631370544,0.035893965512514114,0.08674847334623337
1772741594110798300,8.09679833984375,-0.13958466053009033,0.011119378730654716,0.056409213691949844
1772741594120813300,8.106813232421874,-0.15173682570457458,-0.019843779504299164,0.02256125584244728
1772741594130829300,8.116829345703126,-0.15336507558822632,-0.030756879597902298,-0.025853680446743965
1772741594140845600,8.126845458984375,-0.15124578773975372,-0.0650557354092598,-0.049575164914131165
1772741594150860500,8.136860595703125,-0.1333988755941391,-0.07339569181203842,-0.08451397716999054
1772741594160876500,8.14687646484375,-0.08794853091239929,-0.1036362498998642,-0.10317838191986084
1772741594170892500,8.156892578125,-0.05009249225258827,-0.09728674590587616,-0.09264425188302994
1772741594180907500,8.166907470703125,-0.02157837525010109,-0.0801294669508934,-0.06904103606939316
1772741594190923500,8.176923583984374,0.002508319914340973,-0.0778399407863617,-0.0519334152340889
1772741594200939500,8.186939453125,0.027128247544169426,-0.07885458320379257,-0.04234228655695915
1772741594210954500,8.19695458984375,0.029233207926154137,-0.08392124623060226,-0.04305228218436241
1772741594220970500,8.206970458984374,0.012575885280966759,-0.08573760092258453,-0.06541948765516281
1772741594230986200,8.216986328125,0.0063201203010976315,-0.1032785102725029,-0.1090729609131813
1772741594241001500,8.22700146484375,0.016349222511053085,-0.12313032895326614,-0.1444634646177292
1772741594251017200,8.237017333984374,0.019935965538024902,-0.13068705797195435,-0.137342169880867
1772741594261033500,8.247033447265625,0.007301839999854565,-0.14114898443222046,-0.0982503667473793
1772741594271049500,8.257049560546875,-0.004435775801539421,-0.1381547898054123,-0.03658353537321091
1772741594281064400,8.267064453125,0.0091286301612854,-0.1058606281876564,0.051049135625362396
1772741594291080400,8.27708056640625,0.03757705166935921,-0.06018608435988426,0.12989121675491333
1772741594301096400,8.287096435546875,0.07498834282159805,-0.03415384143590927,0.1722869575023651
1772741594311111400,8.297111328125,0.09394072741270065,-0.017441974952816963,0.18462218344211578
1772741594321127400,8.30712744140625,0.08808683604001999,-0.018056031316518784,0.15398351848125458
1772741594331143400,8.317143310546875,0.08706897497177124,-0.05222678557038307,0.10075359046459198
1772741594341158400,8.327158447265624,0.09558331966400146,-0.07741104066371918,0.06926559656858444
1772741594351174400,8.33717431640625,0.09424188733100891,-0.08143827319145203,0.07990305870771408
1772741594361190700,8.347190673828125,0.0796511098742485,-0.09117463231086731,0.09872855246067047
1772741594371205400,8.357205322265624,0.062209535390138626,-0.1039799153804779,0.10552386939525604
1772741594381221600,8.3672216796875,0.053412601351737976,-0.12364580482244492,0.08358652889728546
1772741594391237400,8.3772373046875,0.05048844963312149,-0.12760032713413239,0.07071547210216522
1772741594401252600,8.387252685546875,0.03783565014600754,-0.120368093252182,0.062391892075538635
1772741594411269400,8.397269287109374,0.025348089635372162,-0.13154298067092896,0.029786011204123497
1772741594421285400,8.407285400390625,0.02029089629650116,-0.1692131757736206,-0.032331887632608414
1772741594431300400,8.41730029296875,0.014639402739703655,-0.19086574018001556,-0.07692465931177139
1772741594441316400,8.42731640625,0.008456943556666374,-0.16899769008159637,-0.08126558363437653
1772741594451332400,8.437332275390625,0.01080478634685278,-0.11308035999536514,-0.0508541464805603
1772741594461347300,8.447347412109375,0.00780936935916543,-0.06774517893791199,-0.020996807143092155
1772741594471363300,8.45736328125,0.001947751734405756,-0.037633609026670456,0.003003333928063512
