time,seconds_elapsed,z,y,x
1772618049587040500,0.02904052734375,0.006896189254522323,0.01027154743913561,0.013823444934166035
1772618049597072400,0.039072265625,0.08079962985515594,-0.0031163967211730774,0.01675928375693038
1772618049607105500,0.04910546875,-0.030778000101447104,0.004056033925153315,-0.003200417176238261
1772618049617137400,0.059137451171875,-0.053690673655271526,0.009678915308229624,-0.019861359691806135
1772618049627169500,0.06916943359375,0.021820202142000197,0.005064279385935515,0.009860318023432046
1772618049637202400,0.079202392578125,0.06342120955288409,-0.0034801154670305546,0.003480398594820872
1772618049647234600,0.089234619140625,-0.03469020510911942,0.01239253991479054,-0.03589766293643042
1772618049657267500,0.099267333984375,-0.04335223499238491,-0.0013385368610732257,-0.02299935632343404
1772618049667299600,0.109299560546875,0.04135784630477428,-0.0010596285881474612,0.004941456723865121
1772618049677331500,0.11933154296875,0.024586159723997116,0.004450805396400392,0.001412880738917738
1772618049687364600,0.129364501953125,-0.04439209943413734,-0.0026223661265335975,-0.006818073383858427
1772618049697396500,0.139396484375,-0.02102934402525425,0.002919376311730593,-0.014531999628897755
1772618049707429600,0.1494296875,0.043324177941679955,-0.004108732226770371,0.00816112202326767
1772618049717461500,0.15946142578125,0.004407295048236846,-0.004063924970664084,-0.0007907850515097379
1772618049727493600,0.16949365234375,-0.03820785784125328,-0.004532802857737988,-0.011384134623804129
1772618049737526500,0.179526611328125,0.009528291323781014,-0.015781469967029987,0.01309756007872056
1772618049747558700,0.18955859375,0.04140811518728733,-0.004641523929219692,0.018302786871884018
1772618049757591600,0.199591552734375,-0.029518939951062202,-0.009745404673181473,-0.013030591223156078
1772618049767623400,0.20962353515625,-0.023251111727952956,0.00004544657692313194,-0.007387817829521372
1772618049777655600,0.219655517578125,0.03318506124317646,-0.0021846870953217148,0.010823993690125643
1772618049787688400,0.2296884765625,0.004145429241657257,0.00753284319024533,0.006295396650047041
1772618049797720300,0.23972021484375,-0.022813304832577704,0.01887994743902236,-0.012274260997097008
1772618049807753500,0.24975341796875,-0.008308394140005112,0.0049342415317893025,0.004238934477698058
1772618049817785600,0.25978564453125,0.028012042519450185,-0.013395141086075453,0.002779328520223498
1772618049827817500,0.2698173828125,-0.010911854636669159,0.005483290249295532,-0.009290189985278993
1772618049837850600,0.2798505859375,-0.011526771664619444,0.006855765912588685,0.01011040206067264
1772618049847882500,0.289882568359375,0.014681436303257942,-0.002440196226350963,-0.004152082744729705
1772618049857915600,0.29991552734375,0.01378477972447872,0.008939842177648098,-0.008035806010011583
1772618049867947500,0.309947509765625,-0.023601824861764906,0.0037375242942012843,-0.011230145071912556
1772618049877979400,0.3199794921875,-0.007072714865207672,-0.0016353643831796944,-0.008242758725001477
1772618049888012500,0.330012451171875,0.018981179323792455,-0.0034211700877174733,0.0017335640606470405
1772618049898044700,0.340044677734375,-0.0036743045985698696,-0.0007938720577396451,0.0035565280043752864
1772618049908077600,0.35007763671875,-0.026706220617890356,-0.0013612236169166863,0.009659749383456073
1772618049918109700,0.360109619140625,0.009216741156578064,-0.004186144844535738,0.001336965958494693
1772618049928141600,0.3701416015625,0.012349193963408469,0.014561353587545454,-0.0025838972796685994
1772618049938174500,0.380174560546875,-0.021287118178606033,0.0019174509938806295,-0.0008110241219401359
1772618049948206300,0.390206298828125,-0.01005085389316082,-0.003700681148841977,-0.004152470903797075
1772618049958239500,0.400239501953125,0.012250409764051437,0.0001268229837529361,0.005539559614332393
1772618049968271600,0.410271728515625,0.0025099369943141934,-0.004942114310991019,0.0016869941057171673
1772618049978303500,0.420303466796875,-0.019953823748230935,0.0005885039450600743,-0.010346567170415074
1772618049988336600,0.430336669921875,0.0012847791135311127,-0.00417704822262749,-0.002482336601335555
1772618049998368500,0.440368408203125,0.0018733926564455032,0.0012404650477692485,-0.00009270151844248175
1772618050008401700,0.450401611328125,-0.003468552893400192,-0.00428911202866584,0.001573391363141127
1772618050018433500,0.46043359375,-0.002715104177594185,-0.011365297492593527,0.0004573883786797523
1772618050028465400,0.47046533203125,-0.0006219312906265258,-0.004374397425632923,-0.017324352027475832
1772618050038498600,0.48049853515625,-0.0006248539000749588,0.01824212445951998,-0.003577484027436003
1772618050048530700,0.49053076171875,-0.009620061260461806,0.00016848843470215795,0.008651028998638503
1772618050058563600,0.5005634765625,0.0023567922592163085,-0.004293039285112172,-0.017729626626428217
1772618050068595700,0.510595703125,0.00310439575612545,0.002236088488996029,0.010513046311121434
1772618050078627600,0.520627685546875,-0.003630465456843376,-0.008588964647054671,0.005663167727692053
1772618050088660500,0.530660400390625,-0.014116203635931013,0.009824461258761585,-0.0018742374732391908
1772618050098692600,0.540692626953125,0.007563713252544403,-0.0010721592761576174,-0.0019187387686688453
1772618050108725500,0.5507255859375,0.0060679217368364334,0.013350005036406218,-0.007057713658898137
1772618050118757400,0.56075732421875,-0.01650046842396259,0.013305617905408143,-0.005827756305411457
1772618050128789500,0.57078955078125,0.006992050844430923,0.0033152254952117798,0.003873256670194678
1772618050138822700,0.58082275390625,0.009687281277775763,0.0090445081285201,-0.01372580694570206
1772618050148854500,0.5908544921875,-0.009468670091032982,0.008088686974719166,0.01535830351836048
1772618050158887700,0.6008876953125,-0.009779051214456557,-0.005105871771648526,0.0089535327762831
1772618050168919600,0.61091943359375,0.00025718963146209714,0.0002639846984297037,0.0013226223393110557
1772618050178951400,0.620951416015625,0.0020510873109102247,0.00945988399637863,0.0188673802183941
1772618050188984600,0.630984619140625,-0.01364449447095394,-0.0010921243519522248,-0.0008783400373766198
1772618050199016400,0.641016357421875,-0.01168166996538639,0.007066011129785329,-0.005546281616063788
1772618050209049300,0.65104931640625,-0.006888590469956398,0.012685787240322679,-0.0007889127548318356
1772618050219081700,0.661081787109375,-0.011215806019306182,0.009980747799016535,0.00036175968421157446
1772618050229113600,0.671113525390625,-0.016597499057650567,0.0008581877319142222,-0.00794215464349836
1772618050239146500,0.681146484375,-0.00104220252931118,-0.009004614509548991,0.013998089115018956
1772618050249178600,0.6911787109375,-0.005386369213461876,-0.0023269999091513455,0.001333728255215101
1772618050259211500,0.70121142578125,-0.004188683861494064,-0.011794975880440324,-0.00683399247219786
1772618050269243400,0.711243408203125,-0.0106225163012743,0.004194912672881037,0.00007666826567146927
1772618050279275800,0.72127587890625,0.0046498716324567795,0.007807842473033815,0.009126532989321276
1772618050289308700,0.73130859375,0.0016676409512758254,0.0006748670542612671,0.003787857108796015
1772618050299340500,0.741340576171875,0.004371639212965965,0.006909432328585535,0.009356350556667893
1772618050309373700,0.751373779296875,0.008714636853337288,-0.008204111781623214,-0.0035515915343537923
1772618050319405600,0.761405517578125,-0.011350246053934096,-0.0027440380111336707,0.00044653362452518194
1772618050329437400,0.7714375,-0.0010322656571865082,-0.009418510806374252,0.004713812847295776
1772618050339470600,0.781470703125,-0.0004418985486030578,-0.0160283026012592,0.0036818074850132687
1772618050349502500,0.79150244140625,-0.007919102561473846,0.0029810616374015804,0.005012498966348357
1772618050359535400,0.801535400390625,0.0012122983992099762,-0.005600432089250535,0.005173384049907326
1772618050369567700,0.811567626953125,-0.005374094253778458,-0.001510094035696238,-0.0026985046692425386
1772618050379599600,0.821599609375,-0.007469605228304863,0.004876063337456434,0.012256305215298198
1772618050389632500,0.831632568359375,0.005991933891177177,0.008825038425251841,0.005788456341484561
1772618050399664600,0.84166455078125,-0.0029880759000778198,0.0028917576524429022,0.015191554949595593
1772618050409697500,0.851697509765625,0.0019429507613182068,-0.006933854383789003,-0.0053104270335752515
1772618050419729400,0.8617294921875,-0.00839081172645092,0.004425561357289553,-0.010177950871549546
1772618050429761500,0.871761474609375,0.010765724164247512,-0.003334021527227014,-0.01563707479396835
1772618050439794400,0.88179443359375,0.0022369652718305585,-0.009069806966558099,-0.0103728295562556
1772618050449826600,0.89182666015625,-0.012875263664126396,0.002271031938213855,-0.003645608227048069
1772618050459859700,0.901859619140625,-0.010924129596352576,-0.002938884729798883,-0.0014962481734342873
1772618050469891600,0.9118916015625,0.008232406294345854,-0.0157910049803555,-0.002049288079468533
1772618050479923500,0.92192333984375,0.0014998831689357758,-0.002829122478701174,-0.005297202225821093
1772618050489956600,0.93195654296875,-0.003142389678955078,0.014821429295837879,-0.0072478979021776465
1772618050499988500,0.941988525390625,0.0029886604219675063,-0.006206599555164575,0.012927281545731239
1772618050510021400,0.952021484375,0.00673076955974102,-0.003186977739352733,0.018832222140044905
1772618050520053500,0.962053466796875,0.007024784070253372,0.010482285846676678,-0.0028987079830374565
1772618050530085600,0.972085693359375,-0.003751461488008499,0.0006969875545240938,-0.007083441755198873
1772618050540118500,0.982118408203125,-0.002851297777891159,0.015611849021166562,-0.00008835413688793778
1772618050550150700,0.992150634765625,0.0023801731348037716,0.011933507568296045,0.000003182904352433979
1772618050560183600,1.00218359375,-0.0063040685802698134,0.005551569712534546,-0.02355597185946535
1772618050570215400,1.01221533203125,-0.0018079262048006056,-0.0013646028840914367,-0.004193474201043136
1772618050580247600,1.02224755859375,-0.004511924466490745,-0.010490980609785764,0.00024023393008392303
1772618050590280400,1.032280517578125,-0.002717442265152931,0.0009893580972217023,-0.006103965731174684
1772618050600312600,1.0423125,0.010754618248343468,0.0032212453351356087,0.009201525321137159
1772618050610345500,1.052345458984375,0.01300093587040901,0.008549819946754723,0.00857707327986136
1772618050620377300,1.06237744140625,-0.001056231054663658,0.004211955139227211,-0.005200390787841752
1772618050630409500,1.072409423828125,-0.007190203765034675,-0.0013930983262136578,0.0019074730225605888
1772618050640442400,1.0824423828125,-0.008535773155093192,0.004436667273193597,-0.010204916510288603
1772618050650474200,1.09247412109375,0.0008908113598823546,-0.0016917342129163444,-0.00459212269638665
1772618050660507400,1.10250732421875,0.0077723875671625135,-0.008820398782752453,0.003732939450629055
1772618050670539300,1.112539306640625,0.010763386076688766,-0.01274648618530482,0.011721979142888448
1772618050680571400,1.1225712890625,-0.005400397738814354,-0.006231222539767623,-0.008527398052392526
1772618050690604500,1.1326044921875,0.003584872749447822,0.00006420607632026075,-0.013372267100564203
1772618050700636400,1.142636474609375,-0.009577975684404372,-0.011057473652437328,0.014247387700970284
1772618050710669600,1.152669677734375,0.0026928923457860943,-0.0031837080700322985,0.010346238376852125
1772618050720701400,1.162701416015625,-0.008528758892416954,0.003814662917330861,0.014133145637577399
1772618050730733300,1.1727333984375,-0.00239595522582531,0.001037800348829478,0.00258969226621557
1772618050740766500,1.182766357421875,-0.014522446349263191,0.006589351795054972,-0.0063711424671113485
1772618050750798300,1.19279833984375,0.002978139027953148,-0.00518657232504338,-0.00221452511115931
1772618050760831200,1.202831298828125,-0.0019639935493469237,-0.013377039173804223,0.0071247099139261985
1772618050770863600,1.212863525390625,0.010158990442752838,0.000995093718264252,0.005926901264372281
1772618050780895500,1.2228955078125,0.007904489514231682,-0.0074125960777513674,0.00014232194698415697
1772618050790928400,1.232928466796875,0.007604629784822464,-0.004016761360689998,0.011096161695010959
1772618050800960300,1.242960205078125,-0.01633621777296066,0.0135281015496701,0.004733476528991014
1772618050810993400,1.252993408203125,0.008059972336888313,0.0036176425078883767,0.005263409554073587
1772618050821025300,1.263025390625,0.0155459441781044,0.008592106452211737,0.0041465617528185245
1772618050831057400,1.273057373046875,0.0011778116077184677,-0.018436642384622243,-0.005686923062615096
1772618050841090600,1.283090576171875,-0.007200725159049033,0.00007797887334600091,0.0031501345939934254
1772618050851122400,1.293122314453125,0.007619827353954315,-0.0109236181396991,-0.014874529456254094
1772618050861155600,1.303155517578125,-0.0037567221850156782,-0.0031635237985290585,-0.004169540769606828
1772618050871187500,1.3131875,-0.009446458259224891,-0.012525883970875291,0.01109501091754064
1772618050881219300,1.32321923828125,0.00043371524214744564,0.0008007401899434625,-0.0055489393640309565
1772618050891252500,1.33325244140625,-0.00779869105219841,0.006071337536629289,0.004189231850765645
1772618050901284400,1.343284423828125,-0.009744564422965049,0.006494494852144271,-0.0048157845175825055
1772618050911316500,1.35331640625,-0.006160276195406913,0.006631437371112406,-0.0001450892928056419
1772618050921349600,1.363349609375,-0.025160744741559028,-0.011739921224955468,0.006287656301585957
1772618050931381500,1.373381591796875,-0.0031669395983219143,-0.0005450118632055819,0.01295731592439115
1772618050941414400,1.383414306640625,0.010298691174387932,0.009391220940649508,-0.0020338165157008916
1772618050951446500,1.393446533203125,0.011641337954998016,-0.010529504255577922,-0.012849827828770503
1772618050961478400,1.403478515625,-0.004072364005446433,-0.02226807377366349,-0.009565819455729797
1772618050971511300,1.41351123046875,-0.007212415596842765,-0.008161459949985145,0.008823019998101518
1772618050981543400,1.42354345703125,-0.012445640075206757,0.006688793581537902,-0.005878290049405768
1772618050991576300,1.433576416015625,0.004913491004705429,-0.00036759120337665076,0.008139165919786319
1772618051001608400,1.4436083984375,-0.0036199440628290175,-0.0038185171085409818,-0.008168318949034437
1772618051011640300,1.453640380859375,0.0011684592574834824,-0.0011517090520821512,0.005313714969204739
1772618051021673500,1.463673583984375,-0.005115735578536987,-0.007771748246345669,-0.0053500466579105704
1772618051031705300,1.473705322265625,0.0026660043388605117,0.006312544147670269,-0.0027915030152071267
1772618051041738500,1.483738525390625,0.01777940231859684,0.006659019497781991,0.01185749232317321
1772618051051770400,1.493770263671875,0.012092004331946373,-0.0006441613887436687,0.002396640212414786
1772618051061802500,1.503802490234375,-0.011547814452648162,0.0055234395965933795,-0.009930131856631486
1772618051071835400,1.51383544921875,0.0004161795854568481,0.011705617096554488,-0.00009209873024374247
1772618051081867500,1.523867431640625,-0.006321604236960411,-0.0037092480477876957,0.012690984005248174
1772618051091900400,1.533900390625,0.002506429862976074,0.004104494443070143,-0.0016381956610828636
1772618051101932500,1.5439326171875,-0.007670680758357047,0.002206478802021593,0.00012821122324094175
1772618051111964400,1.55396435546875,0.004153028026223182,0.0014113463689573108,0.020264396667899563
1772618051121997300,1.563997314453125,-0.008566168293356895,-0.010452256034594029,0.0059330067781731485
1772618051132029400,1.574029541015625,0.009833996272087097,0.013979188051726668,0.006978944767685607
1772618051142062300,1.584062255859375,0.00549509028494358,0.011140420961845665,0.006371252064965665
1772618051152094500,1.594094482421875,-0.009768529820442198,0.001035188266634941,0.0032403701607137915
1772618051162126300,1.604126220703125,0.0066904375493526454,0.008508245827350765,-0.0008070785991847514
1772618051172159500,1.614159423828125,0.009385667982697486,-0.0031069347730837762,-0.007101877027610316
1772618051182191400,1.62419140625,0.004005143988132477,-0.00973965078582987,-0.011964350231131538
1772618051192224500,1.634224609375,0.00968786579966545,0.0017004107097163795,-0.022890288192080332
1772618051202256400,1.64425634765625,0.0039987142473459246,0.013337675277795643,-0.0058239021142013365
1772618051212288300,1.654288330078125,0.0048953708261251444,0.018185023977421222,0.002054868436884135
1772618051222321400,1.6643212890625,-0.0033300212055444715,0.015671013596188277,0.0038032556073274463
1772618051232353500,1.674353515625,-0.0007855974197387695,-0.007709898523893207,0.006920620442880317
1772618051242386400,1.684386474609375,0.005648235020041466,-0.0037881037039682267,0.005479034199286252
1772618051252418600,1.69441845703125,0.0063911623418331145,-0.0013548486750572918,0.004174308276269584
1772618051262450400,1.704450439453125,0.013871288964152335,0.0029297333089634775,-0.002892762299440801
1772618051272483300,1.7144833984375,0.016569442006945607,0.002490611239336431,-0.0013457611863035709
1772618051282515500,1.724515380859375,0.021664719319343564,0.001381901078764349,-0.0022119130289647727
1772618051292547600,1.734547607421875,-0.000775076025724411,-0.004675773258693516,-0.01319802021193318
1772618051302580500,1.74458056640625,0.0002741407662630081,-0.004578888755477965,-0.006897714491328224
1772618051312612600,1.754612548828125,-0.0028723405659198758,-0.014652758198045193,0.003767371443193406
1772618051322645500,1.7646455078125,-0.012900398105382918,-0.001114902439340949,0.005051675632689148
1772618051332677400,1.774677490234375,0.007148118188977241,-0.006402469187136739,0.017013194585917518
1772618051342709200,1.784709228515625,0.003855506384372711,-0.002330634904652834,0.0031610852462705223
1772618051352742400,1.794742431640625,-0.0006318681627511978,0.004038644398935139,0.002399562821863219
1772618051362774300,1.804774169921875,-0.0024286884516477583,0.011107541605550796,0.014631441415380685
1772618051372807400,1.814807373046875,-0.007366144853830337,-0.0016370448836125432,-0.013550897903367876
1772618051382839600,1.824839599609375,-0.004821721068024635,-0.00229037595950067,-0.0097258323230315
1772618051392871400,1.834871337890625,-0.0072153382062911985,0.013243567253556101,-0.015483108074963092
1772618051402904600,1.844904541015625,0.004459902018308639,0.002197656174749136,-0.001997493960149586
1772618051412936400,1.8549365234375,0.010893149936199187,-0.004240870706457645,0.009214138207538053
1772618051422969300,1.86496923828125,0.010590367597341537,-0.015474650773871688,0.011960751768248155
1772618051433001500,1.87500146484375,-0.001830138036608696,-0.023065379897505043,-0.0003822590495459735
1772618051443033300,1.885033447265625,-0.015594459494948386,0.0046934002469293775,-0.019495677317725495
1772618051453066200,1.895066162109375,0.004911152917146683,0.010986143715586512,-0.011899724029703065
1772618051463098600,1.9050986328125,-0.009005728754401206,-0.014379969138652086,-0.0016750388064421713
1772618051473131500,1.915131591796875,-0.0034703064590692516,-0.002802745928429067,0.0030375045323744413
1772618051483163400,1.925163330078125,0.004305003717541694,-0.0036448410420678555,-0.01027362979836762
1772618051493195500,1.935195556640625,0.0010123919129371643,-0.00887404693244025,-0.019470981267886236
1772618051503228400,1.945228515625,0.005047931039333343,-0.019205306935869155,0.00231309011480771
1772618051513260300,1.95526025390625,0.009235445857048033,-0.001746624471619725,-0.002512119818245992
1772618051523293400,1.96529345703125,-0.003029576954245567,0.011163162516616284,0.01900221297866665
1772618051533325300,1.9753251953125,-0.006616787791252136,-0.007515106604155153,0.023106004168838262
1772618051543357400,1.985357421875,0.0038549218624830245,0.014415186582505702,-0.012272027940815314
1772618051553390600,1.995390625,0.017766542837023735,0.011241725911851972,0.0011412881227675824
1772618051563422500,2.00542236328125,0.0034007483541965483,0.008107263811025767,-0.009939237611694261
1772618051573455400,2.015455322265625,0.009532967498898506,0.0031622268905863163,-0.01310766591420397
1772618051583487500,2.025487548828125,0.006384148079156876,0.0005405548837967216,-0.024917044779332355
1772618051593519400,2.035519287109375,-0.0015513210952281952,-0.0036448958409950136,-0.002736329628713429
1772618051603552800,2.045552734375,-0.002152209597826004,-0.009274115633312612,-0.004465993832377717
1772618051613584600,2.055584716796875,0.003825695767998695,-0.003168875827081501,-0.011188607485126704
1772618051623617000,2.065616943359375,0.007122983747720718,0.006420808561425656,0.0076872483006678516
1772618051633650000,2.07564990234375,-0.006638999623060226,0.007118088376894593,0.008880823733098805
1772618051643681800,2.085681884765625,0.0069803604066371915,0.00942552506905049,-0.004939292166242375
1772618051653715000,2.09571484375,0.0038350481182336804,-0.0030351481785066423,-0.005598185333237052
1772618051663746800,2.105746826171875,-0.013073416584730147,-0.0012006992929615079,-0.012273178718285635
1772618051673778700,2.11577880859375,-0.012023030748963355,-0.008481376086734235,0.0008513926649466156
1772618051683811800,2.125811767578125,-0.0019949732095003126,0.0002630165840499103,0.011957902224035933
1772618051693844000,2.135843994140625,-0.004683773902058601,-0.010449625686090439,-0.007090519949956796
1772618051703876600,2.145876708984375,0.013881225836277006,0.0009082191524095833,0.0000364595528692007
1772618051713909000,2.155908935546875,0.015834697991609574,-0.018255988588090986,-0.009064317940687761
1772618051723940900,2.16594091796875,0.005965045884251594,-0.010698010956589132,0.004649985796888359
1772618051733973800,2.175973876953125,0.009110358172655104,0.007898461632244289,-0.013016905191098339
1772618051744006000,2.186005859375,0.008515899410843849,0.001036923565994948,-0.0052052998583996665
1772618051754038800,2.196038818359375,0.006418050348758697,-0.004100603719241917,-0.009376717491261661
1772618051764070700,2.206070556640625,0.014202128353714942,-0.003007365122437477,-0.030302473277878016
1772618051774103000,2.21610302734375,0.0044780221968889235,-0.0032434206343255937,-0.021946773964003657
1772618051784136000,2.226135986328125,0.027671850779652594,0.0024808204976841807,-0.024516464621806514
1772618051794167800,2.236167724609375,-0.01572539239823818,-0.004763853400945663,-0.020139167419611474
1772618051804200000,2.246199951171875,0.0002811550289392471,0.00469281572503969,-0.018871417072694747
1772618051814232800,2.25623291015625,0.012995675173401831,0.011032558406889438,-0.0013461447787936776
1772618051824264700,2.2662646484375,0.013140052080154419,0.009755743404105306,0.0077676565931178625
1772618051834297900,2.2762978515625,0.008795300874114035,-0.0024512108107097447,-0.0005174982351949438
1772618051844329700,2.286329833984375,-0.00018529343903064726,-0.01173661502301693,0.01758524971967563
1772618051854361900,2.29636181640625,-0.009462824872136115,-0.010680000375863164,-0.0006407090563327073
1772618051864395000,2.30639501953125,-0.0021340894192457198,-0.006515720303263515,0.0023620438230689614
1772618051874427000,2.316427001953125,-0.010666939964890479,0.002913238831888884,0.02953827483919449
1772618051884459800,2.326459716796875,0.00743921009004116,-0.0072031363118439905,0.03860067025085445
1772618051894492000,2.336491943359375,-0.0045329672545194625,0.0010614186864346265,0.020486574351484887
1772618051904523800,2.346523681640625,-0.00004325461983680725,-0.0006172551155090331,-0.003963204542547464
1772618051914556700,2.356556640625,-0.0069277534365653985,0.010938706110976635,-0.011765521457092835
1772618051924588800,2.3665888671875,-0.0037847792357206343,-0.007496310572139919,-0.026761366604920477
1772618051934621700,2.37662158203125,0.009380991807579994,-0.005377363923098892,0.009810154172196052
1772618051944653800,2.38665380859375,0.0065343702048063276,0.0009558028874918818,0.023361773594771512
1772618051954686000,2.39668603515625,0.006536123770475387,-0.0026887276273220777,0.03844560755330603
1772618051964718800,2.40671875,-0.0021399346381425857,0.006307740108389407,0.016776148126763292
1772618051974750700,2.416750732421875,-0.00019347674548625944,-0.0030432766860350965,-0.010845114109967835
1772618051984784000,2.426783935546875,-0.005881459254026412,-0.0015926577526144683,-0.01469804037818685
1772618051994815700,2.436815673828125,-0.015604396367073059,-0.006174743112176657,0.004062349501508288
1772618052004847900,2.446847900390625,0.00010755202770233153,-0.005877239736635237,-0.000744379493361339
1772618052014880800,2.456880859375,0.009085808253288268,0.015017207596264778,-0.0014093644744250923
1772618052024913000,2.466912841796875,0.0005564648389816284,-0.000571826804894954,0.028111744600837117
1772618052034944800,2.47694482421875,-0.004079378268122673,-0.0083339669726789,0.004825858387025073
1772618052044978000,2.48697802734375,-0.00841302355825901,0.0037114400048740208,-0.011416621254454366
1772618052055009800,2.497009765625,-0.011699790143966673,-0.0033315921081230044,0.01868971752997022
1772618052065042700,2.507042724609375,-0.00017126491367816925,0.0021365188383497295,0.0027194424259942025
1772618052075074800,2.51707470703125,0.007308861708641052,0.008061945098266006,0.001495672784699127
1772618052085107000,2.52710693359375,-0.006154430976510048,-0.0022387736364267766,0.01694200621296186
1772618052095139800,2.537139892578125,-0.0007645546317100524,0.002278210597671568,-0.005689708674745634
1772618052105172000,2.547171875,-0.0009153612792491912,0.01558996598292142,-0.0049695229077246035
1772618052115204900,2.557204833984375,0.003122515934705734,0.001491480666771531,-0.013073357219225727
1772618052125236700,2.56723681640625,0.007908581167459487,-0.008765344127267599,-0.005917133355606347
1772618052135268900,2.577268798828125,0.007307692664861679,-0.007498392931371927,0.0018019896543584762
1772618052145301800,2.5873017578125,0.0026689269483089447,0.015118494279962032,0.0017299199319910257
1772618052155333600,2.597333740234375,-0.00720481681227684,0.006042129708454013,-0.014094507827353662
1772618052165366800,2.60736669921875,0.002072130098938942,-0.004154836390819401,-0.013153532616235315
1772618052175399000,2.61739892578125,-0.004361702340841293,0.0005853438735939562,-0.014040380187053232
1772618052185430800,2.6274306640625,-0.010943418818712233,0.00016715499414131043,-0.009644236720493063
1772618052195464000,2.6374638671875,0.0025268881291151046,-0.004279577015340328,0.0001971893728012219
1772618052205495800,2.647495849609375,-0.009596680384874344,0.0007382876792922616,0.0029384828709997234
1772618052215528700,2.65752880859375,0.009701894325017928,-0.004204794746078551,0.0015071714262478054
1772618052225560800,2.667560791015625,-0.005412088176608086,-0.011074863178655504,-0.0073012355246115474
1772618052235593000,2.677593017578125,-0.013193243572115897,-0.009869999167229979,0.002605442391196266
1772618052245625900,2.6876259765625,0.002967617633938789,-0.012265735197346656,-0.008517844772757962
1772618052255658000,2.697657958984375,0.011796236255764961,0.00656942325187847,-0.036124192568147556
1772618052265689900,2.70768994140625,0.009254735079407692,0.0005157127034850418,0.0015367354474496095
1772618052275722800,2.71772265625,-0.010199322453141212,0.0028221995475701984,0.01699302858072333
1772618052285755000,2.7277548828125,-0.0007744915038347244,0.005256769750732929,0.000671058528823778
1772618052295787800,2.737787841796875,0.02271802776455879,-0.008219930405262857,-0.002098689312301576
1772618052305819600,2.747819580078125,0.004610708665847778,0.004101389170531183,-0.009874830605974421
1772618052315852000,2.75785205078125,0.0023638065218925474,0.014357903437316417,-0.017044366042315958
1772618052325885000,2.767885009765625,-0.004224339696764946,-0.002748714186251163,0.021592275137640535
1772618052335916800,2.777916748046875,-0.004523614904284477,-0.0019605960158631205,0.005411467122100293
1772618052345950000,2.787949951171875,-0.007069207733869552,-0.004023063237313181,0.001911203916184604
1772618052355981800,2.79798193359375,0.0045972646623849865,-0.007592044297885149,-0.009186291219387202
1772618052366013700,2.808013671875,0.0045984337061643595,0.00028310952400788665,0.00400803919811733
1772618052376046800,2.818046875,-0.006475333493947982,-0.004207114567328244,-0.007138802371360361
1772618052386078700,2.82807861328125,-0.012163316002488135,-0.008020590174570678,0.0011658745747525243
1772618052396111600,2.838111572265625,-0.011114099210500716,-0.014773096642084418,-0.010627968794526531
1772618052406144000,2.84814404296875,-0.008718728506565094,-0.011072159764915704,0.00580168114923872
1772618052416175900,2.85817578125,0.011178981140255928,-0.0009240743086673319,0.020297495219903067
1772618052426208800,2.868208740234375,-0.005880874732136726,0.004946589556708932,0.006771384697919711
1772618052436241000,2.878240966796875,0.009829320096969603,0.002463430971466005,0.011574474130710586
1772618052446272800,2.888272705078125,-0.004389174869656563,0.0014635880128480493,0.00853595581818372
1772618052456305700,2.8983056640625,-0.013512392523884772,-0.000013261340372264384,-0.010229936787113546
1772618052466337800,2.908337890625,0.0007055179208517074,0.010210592765826731,-0.00158193542920053
1772618052476370700,2.91837060546875,0.00010404489636421203,0.010347224757540971,0.007215968393953517
1772618052486402800,2.92840283203125,-0.0012403554499149322,-0.0006693140963092446,-0.007930747333494945
1772618052496435000,2.93843505859375,0.0029500819772481915,0.007675795324891805,0.00335839791665785
1772618052506467800,2.9484677734375,-0.006025251638889313,-0.003937723041418939,-0.017283682090369984
1772618052516499700,2.958499755859375,0.0037041152149438856,0.010721172636467963,-0.012846558159450069
1772618052526532900,2.968532958984375,-0.00632511136829853,0.00045333325807005165,0.007290841994760558
1772618052536564700,2.978564697265625,-0.013508300870656966,-0.008958619943354278,0.004605356637295335
1772618052546596900,2.988596923828125,0.012086159113049506,0.002965407410543412,0.001202224529767409
1772618052556630000,2.998630126953125,0.0032569559693336487,-0.00014947320697829126,0.0018253065978642551
1772618052566662000,3.008661865234375,-0.004530629166960716,-0.00860900278808549,0.0030769962925463914
1772618052576694800,3.01869482421875,0.013722820404171943,-0.0067587170125916595,-0.016758973229676483
1772618052586727000,3.028726806640625,0.0025017536878585815,0.004766063624341041,-0.0023484445559792217
1772618052596758800,3.0387587890625,0.005796703580021858,0.003783171800523996,0.007725534484442323
1772618052606791400,3.04879150390625,0.005942834052443504,0.006277929492015391,-0.008775244466774166
1772618052616823600,3.058823486328125,0.0018967735320329665,-0.005370130464714021,-0.016192516719643026
1772618052626855700,3.068855712890625,-0.005433130964636802,-0.0033122663531452417,0.00023298677196726203
1772618052636888600,3.078888671875,-0.014261749586462974,0.001660096965637058,0.002940574363386258
1772618052646920700,3.088920654296875,-0.004537058907747268,0.002320734565146267,0.003099144192272797
1772618052656953600,3.09895361328125,0.0038444004684686658,0.013675857723597437,0.014928615997359156
1772618052666985500,3.1089853515625,0.007139934882521629,0.011179730058927088,0.0056599619904533025
1772618052677017600,3.119017578125,-0.0003425298273563385,0.010553634049836546,0.00868610487859696
1772618052687050500,3.129050537109375,-0.0037806875824928283,-0.003482069962099194,-0.010463361950498073
1772618052697082600,3.13908251953125,0.002209492743015289,-0.006016355946380645,0.005013243318442255
1772618052707115800,3.14911572265625,-0.00362637380361557,0.0026328692542389033,-0.005466686174366623
1772618052717147600,3.159147705078125,0.005651157629489898,-0.006506075692083686,-0.007737352786399423
1772618052727179500,3.169179443359375,0.002807458636164665,0.008893427486345171,-0.01626493350188248
1772618052737212700,3.179212646484375,-0.0027291327029466627,-0.0023671127238310873,-0.003192375433677807
1772618052747244500,3.18924462890625,-0.015146131205558777,0.006349661287665367,-0.0035829365206882357
1772618052757277400,3.19927734375,0.0005704933643341064,0.013617935257591307,-0.012105713196890428
1772618052767309600,3.2093095703125,0.012388941451907156,0.0034327691939659414,-0.02293426433112472
1772618052777341700,3.219341796875,-0.006021159985661506,-0.0022022044857032594,-0.0059545244902372355
1772618052787374600,3.22937451171875,0.0017594108879566191,-0.005911763060744851,0.002260172617482021
1772618052797406700,3.23940673828125,0.004452303233742714,0.015504333526082336,0.01036763735790737
1772618052807439600,3.249439697265625,-0.0007838438540697097,-0.007257624711748212,0.010270250531192869
1772618052817471500,3.259471435546875,-0.0004874912559986114,-0.001332308049686253,0.0009854125744663178
1772618052827503600,3.269503662109375,0.006398176604509353,-0.011721855845302344,-0.01321239579715766
1772618052837536500,3.27953662109375,0.010438391906023026,-0.005894884991180151,0.010567489045253023
1772618052847568400,3.289568359375,0.009089315384626389,-0.0022135113310068843,-0.0007698792607989162
1772618052857600800,3.299600830078125,-0.0036339725881814953,-0.017203228132147343,-0.004073377785598859
1772618052867633700,3.309633544921875,0.0005570493608713149,-0.0040708479017950595,0.007271881565963849
1772618052877665500,3.31966552734375,0.0014577975928783415,-0.016255718148965387,-0.0008362316284328699
1772618052887698700,3.32969873046875,0.006091887134313583,-0.008722929757647217,0.008615934852370992
1772618052897730600,3.33973046875,-0.007824994537234306,0.011209796403627842,-0.007042959047760814
1772618052907762400,3.349762451171875,-0.0069265843927860254,0.0033007951110601425,-0.01468852363117039
1772618052917795600,3.359795654296875,0.001903203272819519,-0.012495927224028855,-0.009902458398416638
1772618052927827700,3.36982763671875,-0.002882277438044548,-0.009290975436568259,0.0191622441122774
1772618052937860600,3.379860595703125,0.006098901396989822,0.0011020429577678441,0.014574779324699192
1772618052947892700,3.389892822265625,-0.0015343699604272842,-0.009883552768547087,-0.01106190323238261
1772618052957924600,3.399924560546875,-0.0013894085317850112,0.007172741173580289,-0.026183995975228025
1772618052967957500,3.40995751953125,-0.0018371522992849348,0.0041528453631326555,-0.027046567621314896
1772618052977989600,3.41998974609375,0.0013064064234495163,0.0033875052801333365,-0.022499224781570955
1772618052988022500,3.4300224609375,-0.0025888474494218825,-0.009371182799618691,0.007147396669769659
1772618052998054400,3.440054443359375,-0.0003489595681428909,0.0072506652479991315,-0.008010991229163482
1772618053008086800,3.450086669921875,-0.0016968670457601547,-0.011292798511963338,-0.0015159849203657358
1772618053018119700,3.46011962890625,0.007432780349254608,-0.004476359962765127,-0.007231942281220108
1772618053028151600,3.470151611328125,-0.004993570503592491,0.009833521348051726,0.004708963142242282
1772618053038184700,3.480184814453125,-0.01068564466536045,-0.001323613286577165,0.0046333588890731334
1772618053048216600,3.490216552734375,-0.009346505016088484,0.0004782485036179423,-0.001963144165975973
1772618053058248400,3.50024853515625,-0.0044160628765821455,0.0039037111739628014,0.0016072434003930537
1772618053068281600,3.510281494140625,0.012796353209018707,0.007370199974440037,0.013616551584680564
1772618053078313500,3.5203134765625,-0.0021639000356197357,0.0014242789157666266,-0.0010153008226538077
1772618053088346400,3.530346435546875,0.004119125756621361,-0.008999591274559498,0.00736577496107202
1772618053098378800,3.540378662109375,-0.0050064299851655955,-0.01595322807105258,-0.001443084080936387
1772618053108410600,3.55041064453125,-0.0054512511432170865,-0.009457618974056094,-0.014768936490197665
1772618053118443500,3.560443603515625,-0.001558335357904434,-0.005037628841027617,0.007476838686689734
1772618053128475600,3.5704755859375,-0.0012584756284952164,-0.0098309823310934,0.011081352284946479
1772618053138507500,3.580507568359375,-0.003808160111308098,-0.0063656260417774314,-0.0027634961968520653
1772618053148540400,3.59054052734375,-0.02655482944846153,0.0046290663064457475,0.0008814727093791588
1772618053158572800,3.60057275390625,-0.0003635726153850555,-0.0005959748654626309,-0.0010269455946749077
1772618053168605400,3.61060546875,-0.017424597531557083,0.007241915685962885,0.005942212997935712
1772618053178637600,3.620637451171875,-0.00485679238140583,0.012080003366898745,0.00576444527823478
1772618053188669700,3.630669677734375,0.0002297171026468277,0.01780904853818938,-0.010674529616301878
1772618053198702600,3.64070263671875,0.007564882296323776,0.0016122392359189687,-0.013614309395244344
1772618053208734500,3.650734375,-0.01787175677716732,-0.0005181421225890517,-0.014841668366268277
1772618053218767600,3.660767578125,0.00263210206925869,-0.005537102795764803,-0.007504274682886898
1772618053228799500,3.670799560546875,-0.02294891391098499,0.0017346965718083084,-0.014180117451306432
1772618053238831600,3.68083154296875,0.005183540117740631,0.010515000806190073,-0.003320120866037905
1772618053248864800,3.69086474609375,0.0029372224956750867,-0.007101995758619159,-0.008951313419733197
1772618053258896600,3.700896728515625,-0.0030488661766052243,0.0063703387495130295,0.00265848318610806
1772618053268929500,3.710929443359375,0.004139584022760391,0.009642218293342738,0.006375709044374525
1772618053278961700,3.720961669921875,-0.00812719235420227,-0.0003524666994810104,-0.007551319561852142
1772618053288993500,3.73099365234375,-0.009919336467981339,-0.011406835079379379,0.0009170691791456192
1772618053299026400,3.7410263671875,-0.010519055926799773,-0.002395370703935623,0.008221117715351283
1772618053309058600,3.75105859375,0.001748304972052574,0.00012801029384136198,-0.010350174766452983
1772618053319091500,3.761091552734375,0.00144610715508461,0.005440327890403569,0.0009741605280898511
1772618053329123600,3.77112353515625,0.001297054073214531,-0.0008502784200944006,0.012825529071153141
1772618053339155700,3.78115576171875,0.014019757524132728,-0.005941281416174024,-0.0020953876769402996
1772618053349188600,3.791188720703125,0.0008592471778392792,0.018526439559925348,0.0012943506594747304
1772618053359220500,3.801220458984375,0.00011573533415794372,0.012421053623221814,-0.009460272155446
1772618053369253600,3.811253662109375,0.0031067338436841963,0.0036257344827987253,0.001817228322685696
1772618053379285500,3.821285400390625,-0.004073533049225807,0.0012769428669475017,-0.01384082989380695
1772618053389317600,3.831317626953125,-0.008857260194420813,-0.0038421719787642356,0.007889438075572252
1772618053399350500,3.8413505859375,0.001917231798171997,-0.0050844819237478075,-0.003441514189424924
1772618053409382700,3.851382568359375,-0.012298925080895423,-0.0042383499558083714,0.00126030682597775
1772618053419414500,3.86141455078125,-0.007960019093751906,0.007925934161059557,-0.012146921990113331
1772618053429447700,3.87144775390625,-0.014392682489752768,-0.002165361340343952,-0.014206119542242959
1772618053439479600,3.8814794921875,0.011494038438796997,-0.004360478498134762,0.00037858295484911647
1772618053449512400,3.891512451171875,0.00805704972743988,-0.009139127609413116,-0.011507843201863578
1772618053459544600,3.901544677734375,-0.0022597616255283356,0.0010716478195041416,-0.02173878920255229
1772618053469576700,3.91157666015625,-0.005995441022515297,0.015987495666835456,0.0007602803153917193
1772618053479609600,3.921609619140625,-0.0030038579910993575,0.005263984942808747,-0.0041693078741664065
1772618053489641700,3.931641845703125,0.008519991064071655,-0.00901783931730315,0.0021175447098212316
1772618053499674600,3.941674560546875,0.0023860183537006375,-0.007105758618284016,0.011683642726764082
1772618053509706500,3.95170654296875,0.0001397007316350937,-0.016168405191693453,0.0029257740864763035
1772618053519738600,3.961738525390625,0.0008867197066545486,-0.010414097714982926,-0.008809343099198303
1772618053529771500,3.971771484375,0.0011900865674018858,-0.0056469929110258815,-0.009485191967571154
1772618053539803400,3.981803466796875,0.0004418985486030578,0.011272723838314413,0.002678516760561615
1772618053549836500,3.99183642578125,-0.00015314473509788512,-0.002460745824035257,-0.009304241343517787
1772618053559868700,4.00186865234375,0.0025415011763572693,-0.0019069478661753235,0.008948852034588345
1772618053569900500,4.011900634765625,-0.0010544774889945983,-0.00714912283597514,-0.0035288134469650683
1772618053579933700,4.02193359375,0.00627718057334423,-0.012353267350327223,0.0012458490423625334
1772618053589965600,4.031965576171875,0.010613163951039313,-0.001291829908825457,0.014931346810562535
1772618053599998500,4.04199853515625,-0.00973579659461975,-0.012558818126097321,0.0037925013178726655
1772618053610031400,4.05203125,0.005082417830824851,0.004395202751643955,-0.0013165350918192416
1772618053620063200,4.062063232421875,-0.0010527239233255386,0.009139602533448487,-0.011331975178304128
1772618053630096400,4.072096435546875,-0.002849544212222099,0.0008455291797406971,0.0030082099392311646
1772618053640128300,4.082128173828125,-0.008832710275053977,0.004033164506219327,0.016113501233258283
1772618053650161200,4.0921611328125,0.000744096365571022,-0.005741247065737843,0.0009710415558191015
1772618053660193500,4.102193603515625,-0.002998597294092178,0.0012159881936386226,-0.009772767604142427
1772618053670225400,4.112225341796875,0.004635258585214614,-0.0015497684589587152,-0.010641467596916481
1772618053680258300,4.12225830078125,-0.0009054244071245193,-0.007879190676193684,0.002567576332530007
1772618053690290400,4.13229052734375,-0.014526538002490997,0.019372096603829412,0.004134318759175948
1772618053700322300,4.142322265625,-0.004650456154346466,0.008790880427323282,0.006092873515002429
1772618053710355200,4.152355224609375,0.00492518144249916,0.0024228067001327873,0.0020487355236196887
1772618053720387300,4.16238720703125,-0.0024088147073984146,0.012633180270250887,-0.0020784091426758093
1772618053730420200,4.172420166015625,0.005073065480589866,-0.002487560765724629,-0.0018140773843741043
1772618053740452400,4.182452392578125,0.005222118562459945,-0.00543912231400609,0.007855097414553164
1772618053750484200,4.192484130859375,-0.0006114098966121674,-0.007894625707343221,0.017747253614664078
1772618053760517400,4.202517333984375,-0.0015115736067295073,-0.00215339690791443,0.014257438737526535
1772618053770549200,4.21254931640625,0.0008902268379926681,-0.01305155181279406,0.006878521167091094
1772618053780582400,4.22258251953125,0.011218728628754615,-0.009421195953804999,0.0004836644642520696
1772618053790614300,4.2326142578125,0.0010445406168699263,0.0014645195946097374,0.003924306437419727
1772618053800646400,4.242646484375,0.011519757401943206,-0.00013453136617317795,0.012231549799954517
1772618053810679600,4.252679443359375,0.004188099339604377,-0.0017649821122176943,0.005806950979400426
1772618053820711400,4.26271142578125,0.0017950667232275008,0.004028780592046678,0.000989353530644439
1772618053830744300,4.272744384765625,-0.00239420166015625,0.003984411727357655,-0.0058188195137074215
1772618053840776400,4.2827763671875,-0.0025409166544675824,-0.009273969502840191,-0.008367129456764086
1772618053850808300,4.292808349609375,-0.0020955109745264054,0.004596935868822038,0.004608169648889452
1772618053860841200,4.30284130859375,-0.015717793613672256,0.011784637149516492,-0.0005502040615538135
1772618053870873300,4.312873291015625,-0.006138064363598823,0.006744779818784445,-0.0049346753566293046
1772618053880906200,4.32290625,-0.01645955189168453,0.013490728681348263,-0.0015411330613540484
1772618053890938400,4.3329384765625,-0.006135726276040077,-0.004887662443704903,0.006176811771676875
1772618053900970200,4.34297021484375,0.008526420804858208,0.0005725757235661149,0.0017212982341181485
1772618053911003400,4.35300341796875,0.013019056048989295,-0.007163845481071621,-0.0073871648089727385
1772618053921035300,4.36303515625,0.010028057539463042,-0.001518186010606587,-0.0014413122489582747
1772618053931068400,4.373068359375,-0.003735679396986961,-0.0023521708830259737,0.0011418863443890587
1772618053941100300,4.383100341796875,0.0070388125956058496,0.003187708391714841,-0.0018133467320119961
1772618053951132400,4.39313232421875,-0.0064233110457658765,-0.0032735783105716106,-0.006262439661938696
1772618053961165300,4.403165283203125,0.01213525895178318,-0.0043164018943905825,-0.01071221301187761
1772618053971197400,4.413197509765625,0.013186813831329344,0.00931271234434098,0.006336386247561313
1772618053981230300,4.423230224609375,0.0036094226688146588,-0.0012951726433821022,0.01857006407252047
1772618053991262500,4.433262451171875,0.00480886158645153,0.00011814648695290088,0.012720858553703874
1772618054001294300,4.44329443359375,-0.0038707039535045623,-0.0016910400931723416,0.0024709566907957195
1772618054011327200,4.4533271484375,0.004954992058873176,0.005122475846577435,0.004010738045279867
1772618054021359400,4.463359375,-0.003719312784075737,-0.0041893597149290146,-0.0006798765895189717
1772618054031392300,4.473392333984375,-0.007162146714329719,0.004382215405907481,-0.004130665497365407
1772618054041424400,4.48342431640625,-0.0053653264254331584,-0.009725293466914444,-0.009831046263175085
1772618054051456500,4.49345654296875,0.000025134441256523132,-0.006564126022253185,-0.005221049983380362
1772618054061489400,4.503489501953125,0.0027197803527116773,-0.009106503981444984,-0.0034506290776422244
1772618054071521300,4.513521240234375,-0.01134790796637535,-0.0057709663505665955,-0.010053397476696408
1772618054081554400,4.523554443359375,-0.010295184043049811,0.0021317513316869733,-0.007681590311438776
1772618054091586300,4.53358642578125,0.002125321590900421,0.004012870636861771,0.01640973510032054
1772618054101618200,4.5436181640625,0.01948211458325386,-0.018992047777678815,0.010673620867426507
1772618054111651300,4.5536513671875,-0.0008726911813020706,0.0013140782732516526,0.0017073336408473551
1772618054121683500,4.563683349609375,-0.004162380376458168,-0.0014618527134880423,0.005353261528303847
1772618054131716400,4.57371630859375,-0.005055529823899269,0.008266180699784308,0.0058211347683798514
1772618054141748500,4.58374853515625,-0.014778466936945914,0.015469079549610614,0.009707218954106792
1772618054151780400,4.5937802734375,-0.012381342667341231,0.004017546811979264,0.00048607105046976354
1772618054161813200,4.603813232421875,-0.005201075774431229,-0.002655556010082364,0.0017780607894994317
1772618054171845400,4.613845458984375,-0.0010088847815990446,-0.004248652154114097,-0.006072844507126137
1772618054181878300,4.623878173828125,-0.0008563245683908462,-0.0037563385925255713,-0.009987204939266666
1772618054191910100,4.63391015625,0.00034019173979759216,0.00017225129436701536,-0.008559382359543814
1772618054201942500,4.643942626953125,-0.0034001638323068618,0.005371281242184341,0.006940302390884607
1772618054211975400,4.653975341796875,-0.012228782454133034,-0.008390665595978498,-0.012999698327970691
1772618054222007300,4.66400732421875,0.004082885399460792,0.0020486944244243206,0.00033237832610029725
1772618054232040400,4.67404052734375,-0.005643558844923973,0.007564918828941882,0.0062429084109840915
1772618054242072300,4.684072265625,0.0025830022305250167,-0.005985705079790205,-0.003189238195098005
1772618054252104200,4.694104248046875,-0.0019078794479370116,-0.01023137982552871,0.021461620795563793
1772618054262137300,4.704137451171875,0.00033317747712135315,-0.003200330411270261,0.006928520621545612
1772618054272169500,4.71416943359375,-0.0008592471778392792,-0.007822619917057454,0.007860686905123293
1772618054282202400,4.724202392578125,0.008871288719773293,0.0016172259382903574,0.001194639444933273
1772618054292234500,4.734234375,0.010213935500383376,-0.0024192995687946674,0.005837702310690656
1772618054302266400,4.744266357421875,0.010363573104143143,0.0029870895193889737,-0.0069150172525784
1772618054312299300,4.75429931640625,-0.008039514070749283,0.000683196491189301,-0.010882377380435354
1772618054322331400,4.764331298828125,-0.0054985974162817,-0.008032371943909674,-0.011014730489253997
1772618054332364300,4.7743642578125,-0.003258709535002708,0.005434080812707543,-0.01571314483801834
1772618054342396200,4.784396240234375,-0.016876315999031066,-0.00843914438020438,-0.01158077600733377
1772618054352428500,4.794428466796875,-0.0011672902137041092,-0.00341000937288627,0.004092995801521465
1772618054362461400,4.80446142578125,-0.0013198504269123076,0.0020340448445640502,0.004721502963406965
1772618054372493300,4.814493408203125,0.005412672698497772,-0.008111684257816523,-0.004306350857834332
1772618054382526500,4.8245263671875,0.003620528584718704,0.00016985840788111088,-0.00783974914837163
1772618054392558300,4.834558349609375,0.006317512583732605,0.0022909787476994097,-0.0011151307682041077
1772618054402590200,4.844590087890625,0.014549918878078459,0.006991502855159342,-0.0042438252819469195
1772618054412623400,4.854623291015625,-0.010136778610944747,0.0019422201089560984,-0.004706638754415325
1772618054422655200,4.8646552734375,0.0018348142117261886,-0.002402878156956285,-0.012700267856824212
1772618054432688000,4.874688232421875,0.012310030996799469,-0.008451492405124009,-0.006565048470860347
1772618054442720500,4.884720458984375,-0.001000116953253746,-0.000765267017763108,-0.007883752686879597
1772618054452752400,4.89475244140625,-0.012370236751437187,-0.008294182951562106,-0.0023539655478904023
1772618054462785300,4.904785400390625,-0.007282558223605156,-0.010230758771020919,-0.007994971676124259
1772618054472817400,4.9148173828125,0.0004962590843439102,-0.0038790516567416486,-0.017045375255891122
1772618054482850300,4.924850341796875,-0.0009948562562465666,-0.007673183242697269,-0.004823296537180431
1772618054492882200,4.934882080078125,-0.003539280042052269,-0.01264819517629221,-0.0026367645446443927
1772618054502914300,4.944914306640625,-0.006983283016085624,-0.003132763334084302,-0.013834258589125237
1772618054512947200,4.954947265625,-0.005783844098448753,0.007427720581647008,0.005372957176039927
1772618054522979300,4.964979248046875,-0.01685702677667141,-0.0037945151784457266,0.0007221174292033538
1772618054533012500,4.975012451171875,-0.003542202651500702,-0.012389745169505476,-0.0044046601331559935
1772618054543044400,4.98504443359375,0.007234627428650856,0.0017408157853409647,0.0018960657125571742
1772618054553076200,4.995076171875,0.01322188514471054,-0.002650149182602763,0.011674431940424255
1772618054563109400,5.005109375,0.020109306570887563,-0.01174870731960982,-0.0009504645586712286
1772618054573141200,5.015141357421875,0.0032002573460340497,-0.003352726227696985,0.0020736781686311588
1772618054583174100,5.025174072265625,-0.016099486407637593,-0.008374993102811276,0.012415747260442003
1772618054593206500,5.03520654296875,0.003954290583729743,-0.009631678633019327,-0.006658476075087674
1772618054603238400,5.04523828125,-0.006823708540201187,-0.00946689825905487,0.006758191856206394
1772618054613271000,5.05527099609375,0.011283026036620139,-0.004546557388454675,-0.008809694725647568
1772618054623303000,5.065302978515625,0.002453238371014595,0.006553275834675878,-0.00303337634652853
1772618054633335800,5.075335693359375,0.005438976183533668,-0.010442246097233146,-0.0029719193497207016
1772618054643368000,5.085367919921875,0.00378887088894844,-0.015836195828951894,0.0027111586548388003
1772618054653400000,5.095400146484375,0.01815934154689312,0.007469276434741914,-0.0016521100220037623
1772618054663433000,5.105432861328125,0.005438391661643982,-0.008925649255514144,-0.006136004837253131
1772618054673465000,5.115465087890625,-0.01191957037448883,-0.0014088438846170902,-0.00694653120227158
1772618054683498000,5.125498046875,0.014864976176619528,0.0020490597506053745,-0.007190176365571096
1772618054693529900,5.13552978515625,-0.01102291379570961,0.001799706365726888,-0.008729359498433769
1772618054703562000,5.14556201171875,-0.0054845688909292215,-0.01052389649869874,-0.0043881747892359265
1772618054713595000,5.155594970703125,0.0045434886485338204,-0.0028107100391760466,0.006584287460870109
1772618054723626800,5.165626708984375,-0.00398059406876564,-0.0065857350658625365,-0.00913825539315585
1772618054733660000,5.175659912109375,0.0026069676280021667,-0.017414952920377254,-0.017308798265317452
1772618054743692000,5.185692138671875,-0.0024760347247123715,-0.010831336746364831,0.003257613556459546
1772618054753724000,5.195723876953125,0.008147066098451615,0.0014568477448076008,-0.0050174400029471145
1772618054763757000,5.205757080078125,0.00755377638041973,-0.00679092051545158,0.010249869896867311
1772618054773789000,5.215788818359375,0.008602408650517463,-0.008055204830225557,-0.023203454927634447
1772618054783821800,5.22582177734375,0.0062087915122509,-0.004482807969860733,-0.012100192204979248
1772618054793854000,5.23585400390625,0.008306056052446364,0.009655169106461107,0.004664576011244207
1772618054803885800,5.2458857421875,-0.0008177461236715316,-0.0006082863577641547,-0.0011431878189090638
1772618054813918700,5.255918701171875,-0.001720247921347618,-0.016001122333388774,-0.008919169282377697
1772618054823951000,5.265951171875,-0.007410568517446517,-0.00136266665533185,-0.014470387368462978
1772618054833984000,5.27598388671875,0.002317629292607307,-0.010845529668498784,-0.002503443321445957
1772618054844015900,5.286015869140625,0.0012678279787302017,-0.01076996194794774,0.006032101504784077
1772618054854048000,5.296048095703125,-0.0032218846559524533,-0.022374675953295082,0.006002286321832798
1772618054864081000,5.306080810546875,0.010389876589179038,-0.0030055384915322063,0.009477401386760174
1772618054874112800,5.31611279296875,0.001858195087313652,-0.00815689337272197,-0.002028756748093292
1772618054884146000,5.32614599609375,-0.0062216509938240044,-0.010868070293869823,0.012772214281605555
1772618054894177800,5.336177734375,0.0026069676280021667,-0.007541592752281576,0.001212499328609556
1772618054904210000,5.3462099609375,0.006497545325756073,0.002040164058096707,-0.012809002628037705
1772618054914243000,5.3562431640625,0.0070960957407951355,-0.00485165954856202,-0.005816198298358358
1772618054924275000,5.36627490234375,0.0014057751446962356,0.0018594189300201833,-0.012615923174773343
1772618054934307800,5.376307861328125,-0.01161678803563118,0.004673051578644663,0.005857553222053684
1772618054944340000,5.386340087890625,0.007981646403670311,0.004459134833328425,-0.0009427653094055131
1772618054954371800,5.396371826171875,0.014119126245379447,-0.005551953305024653,0.00020988902417011558
1772618054964404700,5.40640478515625,-0.003091536274552345,-0.0062597179818898434,0.00782109011367429
1772618054974437000,5.41643701171875,-0.008326514318585396,-0.014395367637183517,-0.00761346611182671
1772618054984470000,5.426469970703125,0.0036491701573133466,-0.005401128391176462,-0.013639612799859605
1772618054994502000,5.436501953125,0.003502455163002014,-0.005641732214018702,-0.0010062726994045077
1772618055004534000,5.446533935546875,0.003356324690580368,-0.0012639737875200807,-0.00384088420397602
1772618055014567000,5.45656689453125,-0.0033744448691606518,0.010398900145851075,-0.016477530506369655
1772618055024598800,5.466598876953125,0.001266074413061142,0.0007374108964577317,-0.014192401544144376
1772618055034632000,5.4766318359375,-0.0006792144358158111,0.00777850678069517,0.005583147594309412
1772618055044663800,5.486663818359375,-0.004118541234731674,-0.017869857081025838,0.008676743395207449
1772618055054697000,5.496697021484375,0.0023147066831588742,-0.008838445896096527,0.0067873540186090394
1772618055064729000,5.50672900390625,0.01338964292705059,-0.0017383315673097967,0.004264516443526372
1772618055074761000,5.516760986328125,-0.004413140267133712,-0.005383994593285024,-0.0013087673438945784
1772618055084793900,5.5267939453125,-0.0009697218149900435,0.005623118845093995,-0.010190107100224121
1772618055094826000,5.536825927734375,-0.00350654681622982,0.004185505523718893,-0.02215288642877713
1772618055104859000,5.54685888671875,0.00263210206925869,-0.0068500850904732935,0.009037206171476282
1772618055114890800,5.556890869140625,-0.0073883566856384275,0.0012009184886701404,0.013083115994837134
1772618055124923000,5.5669228515625,0.004879004213213921,-0.0034627624734304844,-0.0022811880060471593
1772618055134955800,5.576955810546875,-0.008142974445223808,-0.004719831596128642,-0.009590899098059161
1772618055144988000,5.58698779296875,-0.0072463178664445875,0.0021955555492080745,0.009408541968208737
1772618055155021000,5.59702099609375,0.0020347206979990005,-0.006724979139771312,0.019547046745358964
1772618055165053000,5.607052978515625,-0.0008083937734365463,-0.00852125143939629,0.0008558861769735812
1772618055175084800,5.617084716796875,0.003085691055655479,0.006633282268326729,0.003013940993696451
1772618055185118000,5.627117919921875,0.003533434823155403,-0.012663429278042166,-0.005796178423636593
1772618055195149800,5.63714990234375,-0.01651800408065319,-0.0004278700232505798,-0.017302574020507746
1772618055205183000,5.647182861328125,0.005779752445220947,-0.005252641564887017,-0.003432833126047626
1772618055215214800,5.65721484375,-0.010384615892171859,-0.004212539661116898,-0.009055737342010251
1772618055225247700,5.667247802734375,0.0057733227044343945,-0.01595478070732206,-0.0019962883837521075
1772618055235280100,5.677280029296875,0.005171849679946899,-0.004642272847890853,0.00010249682667199521
1772618055245312000,5.68731201171875,-0.00770107589662075,-0.01124170764554292,-0.002763048672280274
1772618055255345000,5.697344970703125,-0.02027589530944824,-0.001668773462437093,0.0050386015219846736
1772618055265376800,5.707376708984375,-0.0042693478822708126,0.0027981245522387325,-0.00456738098077476
1772618055275410000,5.717409912109375,-0.007262099957466125,-0.0013855360742658375,-0.0033070284890243783
1772618055285441800,5.72744189453125,0.009646364745497703,0.0018834391264244913,0.0014640264042653141
1772618055295474000,5.737473876953125,-0.0033680151283740994,-0.006916811917442828,0.0037668736862717196
1772618055305507000,5.747507080078125,0.006510989329218864,-0.008198504024744034,0.012684878491447307
1772618055315539000,5.7575390625,-0.002911503532528877,-0.013417060656938701,0.007351234979066066
1772618055325572000,5.767572021484375,-0.0020107553005218504,-0.030742928788065907,0.005234941511414945
1772618055335604000,5.77760400390625,-0.010975567522644995,-0.012793321001715957,-0.005636526315938681
1772618055345635800,5.7876357421875,0.019111527705192564,-0.01297041286798194,-0.002936610574321821
1772618055355669000,5.7976689453125,0.004303834673762321,-0.012176212016679346,0.0020563343081856146
1772618055365700900,5.807700927734375,0.0013116671204566955,-0.000060169222019612784,0.007970353258098474
1772618055375733800,5.817733642578125,0.006857026287913322,0.004358925861865282,-0.0007134089663624763
1772618055385766100,5.82776611328125,0.015536007305979729,0.005549578684847801,-0.004319726362638175
1772618055395798000,5.837798095703125,0.0058054714083671565,-0.009591803280357272,-0.01070421693508979
1772618055405831000,5.847830810546875,0.01837152299284935,-0.011652809197083116,-0.03529049082351848
1772618055415863000,5.857863037109375,-0.004826397243142128,0.007383954505156725,-0.017311533645098097
1772618055425896000,5.86789599609375,-0.007976385706663132,0.013593166142515838,-0.03508830561519134
1772618055435927800,5.877927734375,0.014614216285943985,0.011530260529648511,-0.02740977947709616
1772618055445959700,5.887959716796875,0.0017465514063835143,0.021829043035581707,-0.02751124425730668
1772618055455992800,5.897992919921875,0.00339022696018219,0.005298563065845519,-0.022308711744728496
1772618055466025000,5.90802490234375,0.007126490879058837,-0.003711494803801179,0.006847504974319599
1772618055476058000,5.91805810546875,0.0054810617595911024,-0.01840226519098505,0.00493062936917413
1772618055486090000,5.928090087890625,0.009819383224844932,-0.010113945724628865,0.039674852520739656
1772618055496121900,5.938121826171875,0.00008826280534267425,0.0013683474774472415,0.03841985662411898
1772618055506155000,5.948155029296875,0.005478139150142669,0.000042195173911750315,0.04103503039146308
1772618055516187000,5.958186767578125,-0.0024479776740074155,0.005463124244101345,0.028975695353257468
1772618055526219800,5.9682197265625,-0.011870470535755157,0.004282097765989601,0.005232110233511776
1772618055536252000,5.978251953125,-0.006191255855560302,-0.0022097119387239216,-0.012866883994848467
1772618055546284800,5.988284912109375,-0.020849895805120467,-0.0008877426199615001,-0.016654617806058376
1772618055556317000,5.99831689453125,-0.008134791138768195,-0.009573189911432564,-0.008991640863544308
1772618055566349000,6.00834912109375,0.00039046062231063843,0.009868263867869972,0.0002842740012099966
1772618055576382000,6.0183818359375,-0.013825111734867095,0.003893134981021285,0.01119931154223159
1772618055586413800,6.028413818359375,0.0014385083705186843,0.01088155082995072,0.006076009145169518
1772618055596447000,6.038447021484375,0.006678162589669227,0.0019799217708408832,-0.005458146674884483
1772618055606478300,6.048478271484375,-0.0009556932896375655,0.005802293070591985,0.011943599704047665
1772618055616510700,6.0585107421875,0.001740121665596962,-0.0044309316521510475,-0.00029066720937844366
1772618055626543600,6.068543701171875,-0.001253214931488037,-0.02838971672542393,-0.0026226994866738094
1772618055636575500,6.078575439453125,0.006229249778389931,-0.015530052489228546,-0.0011137288289843126
1772618055646608600,6.088608642578125,0.006977437797188758,-0.007238591217715293,0.007217772191972472
1772618055656640500,6.098640625,-0.004395604610443115,-0.00480062348106876,-0.0013928745639277622
1772618055666672400,6.10867236328125,-0.0013999299257993697,-0.018341566246002913,-0.0008624666148098185
1772618055676705500,6.11870556640625,0.0015916531056165695,0.0035881424187682565,-0.016863164256513116
1772618055686737700,6.128737548828125,0.0014426000237464905,0.004192391922231763,-0.021836504822829738
1772618055696770300,6.138770263671875,-0.0009545242458581924,-0.016993183844350276,-0.005342064280854538
1772618055706802700,6.148802734375,0.008017302238941192,0.013146591418795288,0.00850762020626571
1772618055716835600,6.158835693359375,0.009207973328232765,0.002874386392533779,0.020897479540202765
1772618055726867500,6.168867431640625,-0.0067991586208343505,0.007671228747628629,-0.0061067559098824855
1772618055736899600,6.178899658203125,0.009065349987149238,0.0045607685768976804,-0.007806207638373598
1772618055746932500,6.188932373046875,-0.005149637848138809,0.004538666342943906,-0.016897591682500206
1772618055756964400,6.19896435546875,-0.0014028525352478027,0.0022408925282768905,-0.007645432152668945
1772618055766997500,6.20899755859375,0.00637830286026001,-0.010192162059992552,-0.006015049905283377
1772618055777029600,6.219029541015625,-0.0021487024664878845,0.0037877566440962253,-0.009331097384402527
1772618055787061500,6.2290615234375,0.005490414109826087,0.00036441286560147997,-0.003926557760010474
1772618055797094700,6.2390947265625,0.0013040683358907699,-0.0035343116059899328,0.006313512262050062
1772618055807126500,6.24912646484375,-0.0049789574563503265,-0.0059745991638861596,0.0006891832739813253
1772618055817159700,6.25915966796875,0.003103226712346077,-0.01366440474782139,0.007550506711099296
1772618055827191600,6.269191650390625,0.0013099135547876358,0.0024265878261066974,0.010853731241263449
1772618055837223400,6.279223388671875,0.0032563714474439617,0.002833469860255718,0.024986443054000846
1772618055847256600,6.289256591796875,-0.010061959809064864,-0.017185491546057162,0.023231082720076665
1772618055857288700,6.299288818359375,0.0017635025411844253,-0.0010405768278054892,0.008183370387693867
1772618055867321600,6.309321533203125,0.0028127193331718443,-0.012447046581003814,-0.001664005955774337
1772618055877353500,6.319353515625,0.004611877709627152,-0.009921674555540085,0.02425319687600713
1772618055887385600,6.329385498046875,0.0031160861939191816,-0.015194062000513075,0.01819972378963139
1772618055897418500,6.33941845703125,0.005965045884251594,-0.01282479385221377,0.020995094695780425
1772618055907450400,6.349450439453125,-0.0013625205248594284,-0.006657192866876721,0.03552799850697629
1772618055917483500,6.3594833984375,0.0037304186999797817,-0.018094770144391804,0.009526282029785215
1772618055927515400,6.369515380859375,0.0011836568266153334,-0.0009258826732635498,-0.0036046779950382186
1772618055937548500,6.379548583984375,0.004927519530057906,-0.009404829340893775,-0.01604902116230223
1772618055947580700,6.38958056640625,-0.001954056677222252,-0.0014103782545775174,-0.022098366062832064
1772618055957612500,6.399612548828125,-0.0052484220474958414,0.005072499225009233,-0.022515586827904915
1772618055967645700,6.409645751953125,0.019149521628022192,0.011698182708770035,-0.0032522752276388928
1772618055977677600,6.419677490234375,-0.007783493483066559,-0.005113360958360135,-0.012505713399103842
1772618055987710500,6.42971044921875,-0.006444353833794593,0.0009408062477596103,-0.004314283002540469
1772618055997742600,6.43974267578125,0.0020826514929533,-0.010506159912608563,-0.006001249708794057
1772618056007774500,6.4497744140625,0.002087327668070793,-0.0136968822453171,0.0004980583157856017
1772618056017807400,6.459807373046875,-0.0031482348978519436,-0.003600252981670201,-0.002556063991249539
1772618056027839700,6.46983984375,0.005080664265155792,-0.011065437763184308,0.0058710154918255285
1772618056037872600,6.47987255859375,0.00014963760375976562,0.0026673560457304117,0.03387740915520116
1772618056047904500,6.489904541015625,-0.0035860417932271956,-0.0034850839030928908,0.0007279443817911669
1772618056057936400,6.499936279296875,-0.002388356441259384,-0.013537910557631403,0.00014990703181829302
1772618056067969500,6.509969482421875,-0.004485620981454849,-0.0019236798052676021,-0.016776111594145184
1772618056078001400,6.52000146484375,-0.007027122157812118,-0.005614131821040064,-0.018633242668956516
1772618056088034600,6.53003466796875,-0.00658873074054718,0.0011233414741232991,-0.00101222751615569
1772618056098066700,6.540066650390625,-0.0007516951501369476,-0.004067066775821149,-0.009944562240783125
1772618056108099600,6.550099609375,0.005233809000253677,-0.0034444778980687258,-0.006550531321740709
1772618056118131700,6.560131591796875,-0.011824293306469917,-0.006335523164458573,0.0022840466834139076
1772618056128163600,6.57016357421875,-0.003593640577793121,-0.006237871476262808,0.007419144549546763
1772618056138196500,6.580196533203125,-0.006287117445468902,-0.015808394506573675,-0.004036959331925027
1772618056148228600,6.590228515625,-0.01182721591591835,-0.007408029500488192,-0.001176943958038464
1772618056158261500,6.600261474609375,-0.00239595522582531,0.0074306797237135465,0.0024482882012613117
1772618056168293400,6.61029345703125,0.006882745251059532,0.010081121167261153,0.003327806415571831
1772618056178325800,6.62032568359375,0.004788987842202186,0.00944921647189185,-0.0051694065611111
1772618056188358700,6.630358642578125,0.005835866546630859,-0.005347626371961086,0.0009959887674078345
1772618056198390500,6.640390625,-0.015860416954755784,-0.006568418604880571,-0.009463171932008118
1772618056208423700,6.650423583984375,-0.0005991349369287491,-0.016705197215825317,-0.01115655924589373
1772618056218455600,6.66045556640625,0.0019476269364356994,-0.01857999637806788,-0.015735320137208325
1772618056228487400,6.6704873046875,0.013918050715327262,-0.005549012429267168,-0.006497371795820072
1772618056238520600,6.6805205078125,0.010475801306962967,0.0037106362872757017,0.004600237504183314
1772618056248552400,6.690552490234375,0.011675824746489524,0.00479974669823423,-0.0006774608701467514
1772618056258585300,6.70058544921875,0.004341244074702263,-0.014570212747436017,0.006409798543644137
1772618056268617700,6.71061767578125,-0.0025444237858057023,-0.005800557771231979,0.005688621829356998
1772618056278649600,6.720649658203125,0.006435001483559608,-0.013412950737401843,0.01709176711430773
1772618056288682500,6.7306826171875,-0.0004541735082864761,-0.013634959457628429,0.006448541385144926
1772618056298714600,6.740714599609375,0.006878069075942039,-0.01228438509888947,0.01201357793402858
1772618056308747500,6.75074755859375,-0.002546177351474762,-0.015370076154544948,-0.0008906971954507752
1772618056318779400,6.760779296875,0.01137362692952156,0.004377502698171883,0.012936277702939696
1772618056328812500,6.7708125,-0.002540332132577896,-0.00918181597366929,0.004350212832447141
1772618056338844400,6.780844482421875,0.0073369187593460075,-0.0169953758014366,-0.0106939969351748
1772618056348876500,6.79087646484375,-0.0013426467806100845,-0.008113273426704109,0.006321266310242935
1772618056358909700,6.80090966796875,-0.002835515686869621,0.0031557058182545006,0.01149168665150646
1772618056368941600,6.810941650390625,0.009137830701470374,-0.0159442593133077,0.00707208011096809
1772618056378974500,6.820974365234375,0.001502221256494522,-0.012806052619125693,-0.004849732452956959
1772618056389006600,6.831006591796875,0.0026940613895654678,-0.009329352951887995,-0.006246895032934844
1772618056399038500,6.84103857421875,0.0151145670235157,0.009037639996316283,-0.0007405572681920602
1772618056409071400,6.8510712890625,0.0009025017976760864,-0.0023250636803917586,-0.005440551652689464
1772618056419103700,6.861103759765625,0.010922376030683517,0.0005905315053649246,0.0013560999172274023
1772618056429136600,6.87113671875,-0.0010486322700977325,0.0018058986444957554,-0.00023679986398201434
1772618056439168500,6.88116845703125,0.0016465981632471083,-0.005184398634266108,-0.019734888334502466
1772618056449200600,6.89120068359375,-0.0011976853519678114,-0.005443944619596004,-0.003963638367387466
1772618056459233500,6.901233642578125,0.003738602006435394,0.004044507884141057,0.00809976092458237
1772618056469265400,6.911265380859375,0.0038911622196435925,-0.011047737709712237,-0.0048059709430439395
1772618056479298600,6.921298583984375,-0.007781155395507812,-0.008193663452845066,0.003067593709961511
1772618056489330400,6.931330322265625,-0.012273206117749213,-0.01287920918688178,0.0036338218911318105
1772618056499363600,6.941363525390625,0.0020890812337398526,-0.011162066538073123,-0.008145728091313503
1772618056509395700,6.951395751953125,-0.0006084872871637344,-0.003416146852727979,-0.00924906795702409
1772618056519427600,6.961427490234375,0.0008884732723236083,-0.007747801115177571,-0.004110878518084064
1772618056529460500,6.97146044921875,0.0032797523230314253,-0.0005118950448930263,0.00026385226768907156
1772618056539492600,6.98149267578125,0.008812252008914946,-0.004576934260409325,0.008371545336977579
1772618056549525500,6.991525390625,0.011056231543421745,-0.01411158225974068,0.008607308587920852
1772618056559557400,7.001557373046875,-0.0034632921963930127,-0.014246022294368594,0.007573768855677917
1772618056569589500,7.011589599609375,0.005064297652244568,0.0013695347875356673,-0.016567163284891284
1772618056579622400,7.021622314453125,-0.0006236848562955855,-0.010088847815990447,0.0006848952579312026
1772618056589654500,7.031654541015625,0.010292845955491065,-0.008873663339950143,-0.0006850413884036242
1772618056599687700,7.041687744140625,0.007298340314626693,-0.0006060213354416191,-0.01198632003434468
1772618056609720300,7.05172021484375,0.006548398730158805,-0.006421959338895976,0.004438229042617604
1772618056619753500,7.06175341796875,0.006697451812028884,-0.007898443365935235,-0.003926324864570051
1772618056629785300,7.071785400390625,0.014629998376965521,-0.008572835496161132,0.01950855506560765
1772618056639817200,7.081817138671875,0.009541150805354118,-0.0009407879814505577,0.004984350584098137
1772618056649850400,7.091850341796875,0.010140285742282866,0.0017161928007379172,-0.0022158722514519467
1772618056659882200,7.10188232421875,-0.008866028022766113,-0.008940335367992519,-0.0003163998722564429
1772618056669915400,7.111915283203125,-0.00812193165719509,0.0004961312201805412,-0.0023078065849142146
1772618056679947300,7.121947265625,0.00878770208954811,0.013510072702635078,-0.005562945056497119
1772618056689979400,7.1319794921875,0.01028524717092514,0.012258026814926415,-0.01906094372884836
1772618056700012500,7.142012451171875,-0.007673018845915794,-0.004623622946348041,-0.010672881081909872
1772618056710044400,7.15204443359375,-0.005281155273318291,-0.013382336403429507,-0.005205523620685562
1772618056720077300,7.162077392578125,-0.00917114844918251,-0.007733626459352672,-0.00612408607059624
1772618056730109400,7.172109375,-0.006772855135798454,-0.007109503211639821,0.007233718679775483
1772618056740142300,7.182142333984375,0.00355272404551506,-0.00890590337542817,0.011056811498734168
1772618056750174200,7.19217431640625,-0.0007873509854078293,0.010272442488279193,0.00461006477845367
1772618056760206300,7.202206298828125,-0.002881692916154861,-0.02162614087462425,-0.00766168460114859
1772618056770239200,7.2122392578125,0.018221885389089584,-0.014882347436528652,0.007110256696888246
1772618056780271400,7.222271240234375,-0.004669745376706123,-0.012986852546129374,0.006212992763333022
1772618056790304500,7.232304443359375,0.005953939968347549,-0.020102146177738905,-0.011121560997748747
1772618056800336400,7.24233642578125,-0.0018254618614912033,-0.00559628563709557,-0.012585368206305429
1772618056810368300,7.2523681640625,-0.016193594431877137,-0.00027154695037752386,-0.012732407427602448
1772618056820401400,7.2624013671875,0.012984569257497787,-0.018017010466754437,0.0012188834036234765
1772618056830433300,7.272433349609375,-0.012153963652253151,-0.012669621556811034,-0.0009209644695511087
1772618056840466200,7.282466064453125,0.009242460119724273,0.000527677135914564,-0.011970926102390513
1772618056850498600,7.29249853515625,0.011187748968601226,0.014303396771103143,0.0034404867095407096
1772618056860530400,7.302530517578125,-0.006174304720759392,-0.00005023234989494085,-0.001566249236301519
1772618056870563300,7.312563232421875,-0.0009364040672779082,-0.0017073884397745133,0.0014946453048149122
1772618056880595500,7.322595458984375,0.007740823385119438,-0.006139160342141985,0.015840264649293386
1772618056890628400,7.33262841796875,-0.0006382979035377502,-0.0073749857474118465,0.003943659591861069
1772618056900660200,7.34266015625,0.007442717221379279,-0.007101922693382948,0.00946274724032264
1772618056910693400,7.352693359375,0.0019049568384885787,-0.0016642616841010748,0.0068269599432125684
1772618056920725200,7.362725341796875,-0.009764438167214394,-0.0021695443251170217,0.01602111480864696
1772618056930757400,7.37275732421875,-0.0034767361998558045,0.01717851381599903,-0.001758812666335143
1772618056940790500,7.38279052734375,-0.0037748423635959624,0.008302329725399613,-0.01316610440344084
1772618056950822400,7.392822509765625,-0.0075146134138107295,-0.00045046544754877684,-0.0013365458333864807
1772618056960855300,7.402855224609375,0.0035609073519706725,-0.02040894710458815,-0.00038873902268242086
1772618056970887400,7.412887451171875,0.0061035775721073144,-0.0018225575183518229,-0.010307454436155966
1772618056980919300,7.422919189453125,-0.0004763853400945663,0.013493578225560486,0.0031812010191148146
1772618056990952200,7.4329521484375,-0.006767009916901588,-0.01279381419206038,0.012300500550051219
1772618057000984300,7.442984375,-0.011411036330461501,-0.008451802932377904,0.01627029923016671
1772618057011017200,7.453017333984375,0.007290157008171081,-0.00448266183938831,0.009978674572939052
1772618057021049300,7.46304931640625,-0.004231938481330871,-0.009878328604158014,0.02043614563876763
1772618057031082500,7.47308251953125,0.0011573533415794371,0.002486811847053468,-0.0037089557868428525
1772618057041114400,7.4831142578125,-0.0027367314875125885,-0.013872384942695498,0.0054983142884913825
1772618057051146200,7.493146240234375,0.001301145726442337,-0.008722600964084268,-0.014532812479650601
1772618057061179400,7.503179443359375,0.005641220757365227,-0.0013946692287921906,-0.0212086095822975
1772618057071211300,7.513211181640625,0.0048895256072282785,0.0003826061094179749,-0.0013854082101024687
1772618057081244200,7.523244140625,0.009081132078170776,-0.0011582483907230199,-0.0022567294182255864
1772618057091276300,7.5332763671875,0.01177402442395687,-0.0035350239920429885,-0.014689605909981763
1772618057101308400,7.543308349609375,0.009225508984923362,0.007047562157642096,-0.007686248220247216
1772618057111341300,7.55334130859375,0.003088613665103912,-0.015365838370844721,0.006120652004494331
1772618057121373400,7.56337353515625,0.0020388123512268064,-0.0009790010999888182,-0.005608204403752461
1772618057131406300,7.57340625,-0.0035030396848917005,-0.017860632594954223,0.016948970243288203
1772618057141438200,7.583438232421875,-0.0005137947410345078,0.0017087766792625188,0.024135936305043286
1772618057151471400,7.593471435546875,-0.0011170213311910628,-0.012053133626282214,0.013328423392260447
1772618057161503200,7.603503173828125,0.0005278232663869858,-0.00961954980380833,-0.007618119454057886
1772618057171535400,7.613535400390625,0.0038204350709915157,-0.006163838125672191,-0.015759956821543162
1772618057181568500,7.623568603515625,0.024320202264189718,-0.005739237771742046,-0.014066263546980916
1772618057191600400,7.633600341796875,0.0012765958070755003,-0.0062012840592302375,0.0023752731974003836
1772618057201633500,7.643633544921875,0.008007949888706206,0.014661562559008598,-0.008764663707255385
1772618057211665400,7.65366552734375,0.0020195231288671492,0.006054952657409012,-0.006304808365786447
1772618057221697300,7.663697265625,0.0048632221221923825,-0.00250809209709987,-0.003978118983888998
1772618057231730200,7.673730224609375,-0.006061491996049881,-0.004861139762960374,0.008487239571940154
1772618057241762300,7.68376220703125,-0.01129822360575199,0.010537559697870165,0.0012735179340001195
1772618057251795200,7.693795166015625,0.006209376034140586,-0.008458762396126985,-0.0018080814684275537
1772618057261827300,7.703827392578125,0.0023211364239454266,-0.02214013654505834,-0.0016176095307804644
1772618057271860500,7.713860595703125,0.005164250895380974,-0.011687423852737992,-0.0057442610067315394
1772618057281892400,7.723892333984375,0.0035176527321338653,0.004484926861710846,-0.010699554459704086
1772618057291924200,7.73392431640625,0.0032160394370555874,0.005458667264692485,0.004682632257742807
1772618057301957400,7.743957275390625,-0.008755553385615348,-0.008573748811613768,-0.0018419563385657966
1772618057311989200,7.7539892578125,-0.0012765958070755003,-0.008613788561057299,-0.0022904307584278283
1772618057322022400,7.7640224609375,-0.007565466818213462,0.00015946487803012132,0.008056730067031458
1772618057332054300,7.77405419921875,-0.0024795418560504914,0.007418605693429708,0.0015161401839926837
1772618057342086400,7.78408642578125,0.0035042087286710735,-0.008084814517199992,0.012318652694672345
1772618057352119600,7.79411962890625,0.0027530981004238128,-0.008427362610865383,0.0016541604151949286
1772618057362151400,7.8041513671875,0.016366028389334677,-0.0027089484314434227,-0.01508275167972315
1772618057372184300,7.814184326171875,0.000654079994559288,0.0037267289055511353,-0.0018940381522523238
1772618057382216400,7.824216552734375,-0.002041150438785553,0.003170629392750561,-0.009174637314211576
1772618057392249300,7.834249267578125,-0.012371990317106247,-0.00472299166759476,-0.004888064302504063
1772618057402281200,7.84428125,-0.004140168544650077,-0.0140749217774719,-0.0076318831179291
1772618057412313300,7.854313232421875,-0.0050385786890983575,0.0029705037107691165,0.005877139271935448
1772618057422346200,7.86434619140625,0.010527239233255386,-0.0027056787621229884,-0.004799719298770651
1772618057432378400,7.87437841796875,-0.003242342922091484,-0.005771678736619651,-0.010408243362931535
1772618057442411500,7.88441162109375,0.000647065731883049,-0.005880271943937987,0.008722436567302793
1772618057452443400,7.894443359375,-0.012820318606495856,-0.005584869193937629,0.003941485901083797
1772618057462475300,7.904475341796875,-0.0111801501840353,-0.014206293072178959,-0.005514151178440079
1772618057472508400,7.91450830078125,0.00004325461983680725,0.0010475362915545702,0.0018586426118854431
1772618057482540300,7.924540283203125,-0.0019049568384885787,0.00803045398145914,0.010287767921574414
1772618057492573200,7.9345732421875,-0.0013064064234495163,0.0005251746515743434,-0.005075403568148612
1772618057502605300,7.944605224609375,0.010512626186013221,-0.008416932548396289,0.008801091294083744
1772618057512638200,7.95463818359375,-0.011335048484802246,-0.02203368049589917,-0.016999220859492195
1772618057522670300,7.96467041015625,-0.010583937856554985,0.005705061507504433,-0.010873120928322896
1772618057532702500,7.974702392578125,0.011259645161032675,-0.0079728055100888,0.012703551225876434
1772618057542735400,7.9847353515625,0.020836451801657677,-0.006343925666622817,0.00172387378369458
1772618057552767200,7.994767333984375,0.010512041664123534,-0.003068064067419618,0.02368127417298965
1772618057562800400,8.00480029296875,0.01844108109772205,-0.01291762323481962,0.006564409150043502
1772618057572832300,8.014832275390624,0.006021744507551193,0.002488419282250106,-0.010798448256915434
1772618057582865200,8.024865234375,0.007819733840227126,0.0012148922150954603,-0.023462014532275498
1772618057592897500,8.0348974609375,-0.000405073669552803,-0.015705372523516416,0.008631424682447686
1772618057602929400,8.044929443359376,0.0048322424620389935,-0.00046811070209369063,0.0044756841093301775
1772618057612961500,8.05496142578125,0.006778115832805633,0.000826787946652621,0.0040602717088535425
1772618057622993400,8.064993408203126,-0.008036006939411163,-0.010967676477134227,-0.004520811025844887
1772618057633026600,8.075026611328125,-0.00175415019094944,0.0015292371275834739,0.0037412688875570893
1772618057643058400,8.085058349609374,-0.004753332006931304,-0.0023179763524793086,0.009538419992150738
1772618057653090600,8.095090576171875,0.005272971966862678,0.003790989780798554,-0.004758958030119538
1772618057663123700,8.105123779296875,0.001533200916647911,-0.004160791207570583,-0.008986393866268918
1772618057673155600,8.115155517578126,-0.004305588239431381,0.0023722638229839504,-0.004349135120213032
1772618057683188500,8.1251884765625,-0.007299509358406066,-0.01028106418615207,-0.015373163160774856
1772618057693220600,8.135220703125,0.0055704936087131495,0.0008853314671665429,0.006746880444325506
1772618057703253500,8.14525341796875,0.0030278233885765076,-0.0057474393445067105,-0.005578585583623498
1772618057713285400,8.155285400390625,-0.006997311541438103,0.000028276246413588524,0.0016157555004116147
1772618057723317500,8.1653173828125,-0.0054985974162817,0.007877692838851362,0.011780518096825107
1772618057733350400,8.175350341796875,0.00812543878853321,-0.011213376600202172,-0.008665390884131192
1772618057743382500,8.185382568359374,-0.0015980828464031219,-0.013082385342475026,0.0060632090291008345
1772618057753415700,8.195415771484376,-0.004137830457091331,0.005487893359176814,0.01371614406821318
1772618057763447600,8.205447509765625,-0.00818038384616375,0.016484649800322947,-0.002439218978816643
1772618057773480700,8.215480712890624,-0.0018897592693567274,0.01492898132354021,-0.002604191149026155
1772618057783512600,8.2255126953125,0.003949614408612251,-0.005850369996018707,-0.012650688527477904
1772618057793544400,8.23554443359375,-0.0015817162334918974,-0.003783500594086945,-0.008018553481111303
1772618057803577600,8.24557763671875,-0.005170680636167526,-0.004459006969165057,-0.011625564997131004
1772618057813609700,8.255609619140625,-0.00996200656592846,-0.0016861447223462164,-0.021128703613346442
1772618057823642400,8.265642333984376,-0.01400572899878025,-0.016203914896491915,-0.00232929233093746
1772618057833674500,8.275674560546875,0.008290273961424828,-0.0012435520539991556,0.004369091062853113
1772618057843706600,8.28570654296875,-0.0075707275152206415,-0.008917776476312428,0.005196116471523419
1772618057853739500,8.295739501953125,-0.000692073917388916,-0.004739924536086618,0.0024596498454920947
1772618057863771400,8.305771484375,0.0034960254222154616,0.0018630721918307244,-0.00861028142971918
1772618057873804500,8.315804443359376,0.006488777497410773,0.0006657338997349142,0.004857504767458886
1772618057883836400,8.32583642578125,-0.006828384715318679,0.0043819231449626385,0.002272767237573862
1772618057893869600,8.33586962890625,-0.0054822308033704754,-0.017747454544063658,-0.008368563362024723
1772618057903901700,8.345901611328125,0.0009527706801891326,-0.007112699815724045,-0.0019892467216122895
1772618057913933600,8.35593359375,-0.0054822308033704754,-0.005281228338554501,0.007784498130064457
1772618057923966700,8.365966796875,0.006789221748709678,-0.0015597235973924398,0.0020732443437911567
1772618057933998600,8.37599853515625,-0.002338087558746338,0.005884454928711057,-0.015493739066831767
1772618057944031500,8.386031494140624,-0.0026402853757143017,-0.0016552015948109327,0.00736187967066653
1772618057954063600,8.396063720703125,-0.0012958850294351577,0.008129950566869229,-0.006619317675055935
1772618057964095500,8.406095458984375,0.0012444471031427384,0.002836575132794678,0.005848579897731542
1772618057974128400,8.41612841796875,0.008129530441761016,-0.012930208721756934,0.00852100484422408
1772618057984160800,8.426160888671875,0.0012479542344808578,-0.0008888751311227678,0.008448989920783788
1772618057994193700,8.436193603515624,-0.00009878419935703278,-0.001973108437564224,-0.003943476928770542
1772618058004225500,8.4462255859375,0.005141454541683197,-0.001301383188460022,0.011590922942012548
1772618058014258700,8.4562587890625,0.006494622716307639,-0.000010247399378567933,0.002660734508698806
1772618058024290600,8.46629052734375,-0.010414426508545875,-0.0048055736508220434,0.004290746863326057
1772618058034322400,8.476322509765625,0.00305471139550209,0.016694621022883802,0.0010468147723469883
1772618058044355600,8.48635546875,0.009043722677230834,-0.01202988061485812,-0.0077135152530856425
1772618058054387500,8.496387451171875,-0.002779401585459709,-0.006115432406682521,-0.011701434111781418
1772618058064420400,8.50642041015625,-0.0005313303977251052,-0.006693469756655394,-0.007831652606884017
1772618058074452700,8.51645263671875,-0.007269114220142364,0.013335355456545949,-0.005680182794574648
1772618058084485600,8.526485595703125,-0.002028290957212448,-0.003093235041294247,-0.0044580388547852635
1772618058094517500,8.536517578125,0.008595978909730911,-0.00984906597705558,-0.010518727133236825
1772618058104549600,8.546549560546875,0.0008142389923334122,-0.01430540606509894,-0.005561725780367851
1772618058114582500,8.55658251953125,-0.0014303250640630722,-0.0026043007468804715,-0.008007228369498624
1772618058124614400,8.566614501953126,-0.011457798081636428,-0.006481416174862534,-0.006491901036258786
1772618058134647600,8.5766474609375,-0.008619359785318375,-0.0034722974867559967,-0.015029537354875356
1772618058144679400,8.586679443359374,-0.0021837737798690794,-0.003958802362065762,0.011955390606541185
1772618058154712300,8.59671240234375,-0.009964929175376891,-0.016214271893724798,0.01630509198233485
1772618058164744700,8.60674462890625,0.01322889940738678,-0.002870112076215446,0.007013431559177115
1772618058174776600,8.616776611328126,0.005897825866937637,-0.012478026241157203,0.004342056925455108
1772618058184809500,8.6268095703125,-0.000987257471680641,-0.009862181186955421,-0.0011272778637241572
1772618058194841600,8.636841552734374,-0.00772854842543602,-0.00872269229562953,-0.001978259536717087
1772618058204874500,8.64687451171875,-0.010877367845177649,-0.008835505020339042,-0.0019777115474455056
1772618058214906400,8.65690625,0.005730652606487274,-0.009980419005453586,-0.01577209935048595
1772618058224938800,8.666938720703126,0.0004962590843439102,0.0036887715153396125,-0.007814546208456159
1772618058234971600,8.6769716796875,-0.009235445857048033,0.0032502339676022526,-0.005061073648696765
1772618058245003500,8.68700341796875,-0.00459317300915718,0.006068542791344225,-0.004332777640456333
1772618058255036700,8.69703662109375,-0.0016039280652999878,-0.01568582757283002,0.000042551366938278075
1772618058265068500,8.707068603515625,-0.0020557634860277176,-0.007817560149449855,0.013773509411793202
1772618058275101700,8.717101806640626,-0.0038514147311449047,-0.0027561485740356145,0.010851986808748914
1772618058285133600,8.727133544921875,0.012306523865461348,-0.003858922184165567,-0.0023403069152962415
1772618058295165400,8.73716552734375,0.003929740664362907,-0.007966704562865197,-0.0016167692805640398
1772618058305198300,8.7471982421875,-0.0034019173979759213,-0.005146696972381323,-0.0082575133361388
1772618058315230700,8.757230712890625,0.0015372925698757171,-0.005838478628825396,-0.02354865163611248
1772618058325263600,8.767263671875,-0.011027589970827102,-0.006606449060328304,-0.013873992377892136
1772618058335295500,8.77729541015625,0.00289221431016922,0.011557824390009045,0.005230128338979557
1772618058345328600,8.78732861328125,-0.0017459668844938276,0.005521412036288529,0.0055956463162787256
1772618058355360500,8.797360595703125,-0.002345686343312263,0.001395198951754719,-0.005997906974237412
1772618058365392400,8.807392333984374,0.0025917700588703155,0.004722735939268022,0.0006684921124018729
1772618058375425500,8.817425537109376,0.0016974515676498412,0.00568478590445593,0.006125880735460668
1772618058385457400,8.82745751953125,-0.00847790548801422,0.0005961757948622107,0.005289767838036641
1772618058395490600,8.837490478515624,-0.0005453589230775832,-0.012009805941209196,-0.0013577530181966722
1772618058405522700,8.847522705078125,0.020105799439549446,-0.007101356437802314,0.004504206950915977
1772618058415555600,8.8575556640625,-0.0024871406406164168,-0.019167970600165427,-0.004241181233711541
1772618058425587700,8.867587646484376,-0.003084522011876106,0.005976444061100482,-0.008878997102193534
1772618058435619600,8.87761962890625,-0.0012859481573104857,0.0018280008784495292,-0.006022319896286353
1772618058445652500,8.887652587890624,0.010689736318588257,-0.00011610066033899784,-0.014374891104735433
1772618058455684600,8.8976845703125,0.009493220010399818,-0.002870988859049976,-0.004643240962270647
1772618058465717500,8.907717529296875,0.0032107787400484085,-0.006123981039319187,-0.00518987852698192
1772618058475749400,8.917749267578126,0.010242577072978019,0.00044127749409526585,-0.0018620127459056674
1772618058485781500,8.927781494140625,0.0030582185268402096,-0.016184022885933517,0.0029796185989864167
1772618058495814700,8.937814697265624,0.0018646248281002043,-0.0116722810825333,0.017745637046312913
1772618058505846500,8.947846435546875,-0.0012789338946342468,-0.010450557267852127,0.011594238277105614
1772618058515879700,8.957879638671875,0.01727612897157669,-0.013408658154774456,-0.0016033618097193538
1772618058525911600,8.96791162109375,0.010547697499394416,-0.0002623955295421183,-0.0024647187462542206
1772618058535944400,8.9779443359375,0.0024649288088083266,0.00966247563008219,-0.0070984520946629345
1772618058545976600,8.9879765625,-0.009209142372012138,-0.006430434906296432,-0.014315333804069087
1772618058556008700,8.9980087890625,-0.001132218900322914,0.003145184424240142,0.00029241620847024024
1772618058566041300,9.008041259765625,0.004705985733866692,0.002447338353190571,-0.010505228330846876
1772618058576073700,9.01807373046875,0.00246259072124958,-0.015570804624725132,-0.004051047222781926
1772618058586106600,9.028106689453125,-0.0011310498565435408,-0.023413572280667722,-0.0022091639494523406
1772618058596138500,9.038138427734374,0.003956044149398804,-0.01841919805947691,-0.01512175481612794
1772618058606171600,9.048171630859375,0.001412204885482788,-0.002255505575519055,-0.015649176223715765
1772618058616204000,9.0582041015625,0.008449848437309265,-0.010030103366076945,-0.018592426601378245
1772618058626236000,9.06823583984375,0.002466682374477386,-0.004706022266484797,-0.011696474808873609
1772618058636268800,9.078268798828125,-0.012048165190219878,-0.00817579900259152,-0.007261579367658123
1772618058646301000,9.088301025390624,-0.013543956705927849,-0.002210826183576137,-0.0048738165814429515
1772618058656333800,9.098333740234375,-0.0015717793613672256,0.0057387811140157275,0.010569754067575559
1772618058666366000,9.108365966796875,0.002618658065795898,-0.002386493277736008,0.016610997860040513
1772618058676399000,9.118399169921876,-0.004561608827114105,-0.008595814512949437,-0.0013087445110082625
1772618058686431000,9.128430908203125,-0.0006692775636911391,-0.016702530334703623,-0.01330575490272604
1772618058696462800,9.138462890625,-0.006654197192192077,-0.014044270910881458,-0.00451178746917285
1772618058706496000,9.14849609375,0.0027729718446731564,-0.015855777312256396,-0.01714337857053615
1772618058716527900,9.15852783203125,0.010405658680200576,-0.006592694529611617,-0.012142236681841313
1772618058726560800,9.168560791015626,-0.011742460241913794,0.0049813138102181255,-0.00942427382688038
1772618058736593000,9.178593017578125,-0.007404723298549651,-0.006179985542874783,-0.006319339214637875
1772618058746625000,9.188625,0.007856558719277382,-0.011870908927172422,-0.00846443408508785
1772618058756658000,9.198657958984375,-0.0005254851788282394,-0.01789612403344363,0.0017807094043120742
1772618058766690000,9.20868994140625,-0.0015770400583744047,0.005604030552133918,0.0013774075667373836
1772618058776723000,9.218722900390626,-0.0006792144358158111,0.00032813597582280636,0.012011906566750257
1772618058786754800,9.2287548828125,-0.008909867164492607,-0.005640161311440169,0.00397488584718667
1772618058796787000,9.238786865234376,-0.0012795184165239333,0.0035040260655805466,-0.0046984691476915025
1772618058806819800,9.24881982421875,-0.010109306082129477,-0.005637293500918895,-0.008598773655015974
1772618058816852000,9.25885205078125,-0.012053425887227057,0.005220273665245622,0.006709945967420935
1772618058826884900,9.268884765625,0.0003647416591644287,0.0015532207913696765,-0.005943217644933611
1772618058836917000,9.2789169921875,-0.0042763621449470515,-0.014093462081160395,0.00762549904291518
1772618058846950000,9.288949951171874,-0.0026268413722515104,-0.01808954598000273,0.01391662594322115
1772618058856982000,9.29898193359375,0.0021644845575094222,0.011568108322005718,0.007925212641851975
1772618058867014000,9.309013916015624,0.002911503532528877,-0.006925908539351076,-0.0014756620431318878
1772618058877046800,9.319046875,-0.0087619831264019,0.0022244163175113496,-0.002456873366516083
1772618058887079000,9.329078857421875,0.0050122752040624614,-0.002381031651329249,0.0012206643687561153
1772618058897111800,9.33911181640625,0.010254852032661438,0.006806099818274378,-0.012738312012003735
1772618058907144000,9.34914404296875,0.009058335724473,0.011861629642173648,-0.014259475430985913
1772618058917177000,9.359177001953125,-0.00006546645164489745,0.007986541774496436,-0.03353399341185577
1772618058927209000,9.369208984375,0.0077174425095319745,-0.008107903131842613,-0.014749259108770637
1772618058937240800,9.37924072265625,-0.006198270118236542,-0.00995411552041769,-0.01652759389290586
1772618058947274000,9.38927392578125,-0.005146715238690376,-0.0008525069097988307,-0.021151162040326743
1772618058957305900,9.399305908203125,0.0033802900880575176,-0.004814743337966502,-0.01095659796069376
1772618058967338800,9.4093388671875,0.007121814703941345,0.0021767960498109457,-0.01764432296315208
1772618058977371000,9.419370849609376,-0.0021527941197156905,0.009196155026275663,-0.02425483627724461
1772618058987403800,9.42940380859375,0.00113806411921978,0.005643832839559763,-0.0033288886943832036
1772618058997436000,9.439435791015624,0.002335164949297905,-0.0027552352585829792,-0.0020277886337134988
1772618059007468000,9.449468017578125,-0.0027495909690856933,-0.0049621159194037315,-0.009744591822428629
1772618059017501000,9.4595009765625,-0.007684124761819839,-0.005269994558487087,-0.006127387705957517
1772618059027532800,9.46953271484375,-0.004841010290384292,-0.004546411257982254,-0.002583659817650914
1772618059037566000,9.47956591796875,0.00428863710463047,-0.0013258235099725423,0.006066003774385899
1772618059047597800,9.489597900390624,-0.00902735606431961,0.001785129851102829,0.0007664908604696392
1772618059057631000,9.499630859375,0.004138414978981018,-0.0057623263863846655,-0.005807352838199585
1772618059067662800,9.509662841796874,0.0001017068088054657,-0.011405465106200427,-0.013103053671168163
1772618059077695000,9.519695068359376,-0.005282324317097664,-0.004614471525512635,-0.0054041879979427904
1772618059087728000,9.52972802734375,-0.012909750455617904,-0.026153317709174007,0.01550041540279053
1772618059097760000,9.539760009765626,0.0016056816309690475,-0.018241065013594925,-0.010685114942397921
1772618059107793000,9.54979296875,0.006848258459568024,-0.0007737425851635634,-0.016257005923753603
1772618059117825000,9.559824951171874,0.008497779232263565,-0.00881234334046021,-0.012908471813984215
1772618059127858000,9.56985791015625,0.005353635987639427,-0.02130653526512906,-0.007745389962382614
1772618059137889800,9.579889892578125,-0.0003337619990110397,0.0035376908731646834,-0.012483990191062912
1772618059147922000,9.589921875,-0.0010807809740304947,0.006507390866335481,-0.020243134684162212
1772618059157954800,9.599954833984375,0.0023626374781131744,0.0019700762302614747,-0.005503757648589089
1772618059167987000,9.609987060546874,-0.01140636015534401,-0.005994527707062661,-0.022783969140239058
1772618059178020000,9.62002001953125,-0.006021159985661506,-0.005213369000423699,-0.006674335797922685
1772618059188052000,9.630052001953125,-0.003776595929265022,-0.003090166301373392,-0.010320400682697071
1772618059198084900,9.6400849609375,0.00011398176848888397,0.001392349407542497,-0.010948268523765728
1772618059208117000,9.650116943359375,0.0002624503284692764,-0.008332779662590474,-0.003130744906933978
1772618059218148900,9.66014892578125,-0.0069195701301097865,-0.005927691282238811,0.016077658168319613
1772618059228181800,9.670181640625,0.010291092389822006,-0.003766805187612772,0.005736306029139086
1772618059238214000,9.6802138671875,0.010596212816238402,-0.013100322857964784,0.001886042075464502
1772618059248246800,9.690246826171874,-0.0034679683715105056,-0.009697145084664224,0.004347472886089236
1772618059258279000,9.70027880859375,-0.011398761370778084,-0.0036922238477505743,0.006918227556394413
1772618059268311000,9.71031103515625,-0.0057137014716863626,-0.008616291045397519,0.0021863949952181426
1772618059278344000,9.720343994140626,-0.013045359534025192,-0.007421601368114351,-0.02509189902273938
1772618059288375800,9.730375732421875,0.0034130233138799666,0.000387939871661365,0.0005553231946658343
1772618059298409000,9.740408935546874,0.0002688800692558288,0.004653634492121636,-0.010345315928244963
1772618059308440800,9.75044091796875,0.0056564183264970775,-0.009555562923196703,-0.009189040298899635
1772618059318473700,9.7604736328125,-0.0088578447163105,0.0019769991613924503,0.01273261292357929
1772618059328506000,9.770506103515626,-0.008405424773693083,-0.005332501868065447,-0.019562669006176293
1772618059338538000,9.7805380859375,-0.00137421096265316,-0.01993179457951337,-0.003436093662213534
1772618059348571000,9.79057080078125,-0.009454641565680504,-0.018282182475272565,0.007689339793054387
1772618059358603000,9.80060302734375,0.008948445609211922,-0.02249099580934271,-0.008481969741778448
1772618059368636000,9.810635986328125,0.0013134206861257552,-0.0024754867354407906,-0.014956618249136954
1772618059378667800,9.820667724609375,0.003407762616872787,-0.013642265981249511,-0.007054704284481704
1772618059388701000,9.830700927734375,0.004606032490730286,0.006185794229153543,-0.012666689814208074
1772618059398732800,9.84073291015625,0.0004138414978981018,0.011345916938688605,-0.007948821846302597
1772618059408765000,9.850764892578125,-0.0012356792747974395,-0.006941434902045875,-0.019773818405671044
1772618059418798000,9.860798095703124,0.0020540099203586576,-0.012979034565854817,-0.028835131538519635
1772618059428830000,9.870829833984375,0.0014548749834299086,0.008585494048334658,-0.018930472049862146
1772618059438862800,9.88086279296875,0.0016015899777412413,0.0003274053234606981,-0.02041946849860251
1772618059448895000,9.89089501953125,-0.00947042365670204,-0.00002142638051882386,-0.02133640068043023
1772618059458927900,9.900927978515625,-0.008577858731150627,0.0025496114175766705,-0.022253278063330797
1772618059468959700,9.910959716796874,-0.0093283848375082,-0.0005572868228890001,-0.0024629651805851607
1772618059478992000,9.920991943359375,-0.00708148269355297,-0.009042133508343249,0.027032794824289157
1772618059489024800,9.931024658203125,-0.007377250769734382,-0.016360493697691707,0.01711363188624382
1772618059499057000,9.941056884765626,-0.007377835291624069,-0.02149995721168816,0.03782122401068918
1772618059509090000,9.951090087890625,-0.0009387421548366546,-0.026494240101333708,0.042881064683524886
1772618059519122000,9.961121826171874,0.003853752818703651,-0.0198965588693507,0.020812641667807472
1772618059529155000,9.971155029296876,0.0038601825594902035,-0.010956698425393551,0.011772133860969916
1772618059539187000,9.98118701171875,-0.004966682496666908,-0.0038550497266463934,0.015287521570781245
1772618059549218800,9.99121875,0.001620294678211212,0.01384390776688233,0.003429061133228242
1772618059559252000,10.001251953125,0.010454173997044562,0.006611983751971274,-0.0007636230499483644
1772618059569283800,10.011283935546874,-0.006899696385860443,-0.003127246908750385,-0.002533080407883972
1772618059579316700,10.021316650390625,-0.00256020587682724,-0.0034660686753690243,-0.008145741791045293
1772618059589349000,10.03134912109375,0.0079167644739151,-0.009600461510848254,-0.015302235082723199
1772618059599382000,10.041382080078124,-0.011235095241665839,-0.0027051307728514075,-0.012552954640891402
1772618059609414000,10.051413818359375,-0.00015898995399475096,0.0034276728937402364,-0.021541330401692538
1772618059619445800,10.06144580078125,0.0026940613895654678,-0.009000924715120345,-0.012750011582951993
1772618059629478700,10.071478759765625,0.006136310797929764,-0.016646635429002344,-0.012699368241103366
1772618059639510500,10.081510498046875,-0.00029576807618141173,-0.009431918277218938,-0.012066230569873004
1772618059649543700,10.091543701171876,0.0013414777368307112,-0.016055683798529206,-0.019728271364048124
1772618059659575800,10.101575927734375,-0.01976443865597248,-0.01823753961594775,-0.006100773693667724
1772618059669608700,10.111608642578124,-0.00016425065100193021,-0.008167268636263906,0.010371455016499385
1772618059679640800,10.121640869140625,-0.004352349990606308,-0.011023242589272559,0.006649064359348267
1772618059689672700,10.131672607421875,-0.0037508769661188123,-0.01814834522884339,-0.010823619230790064
1772618059699705600,10.14170556640625,-0.002104278802871704,-0.007999876180104911,-0.024897974752681327
1772618059709737700,10.15173779296875,0.009864391410350799,-0.0013581000780686736,-0.025754801644571123
1772618059719770600,10.1617705078125,0.006722586253285407,-0.008404931583348662,-0.003856136572035029
1772618059729802500,10.171802490234375,0.006873977422714233,-0.020130787750333546,0.003942070422973483
1772618059739835600,10.181835693359375,0.013160510346293449,-0.013635361316427588,-0.011987575843092053
1772618059749867800,10.19186767578125,-0.001356090784072876,-0.012846823020931333,-0.0243696856954135
1772618059759899600,10.201899658203125,0.00447509958744049,-0.019164372137282042,-0.02631070022797212
1772618059769932800,10.211932861328124,0.005070142871141433,0.002531436440069228,-0.030828104587178676
1772618059779964700,10.221964599609375,0.17157354123592375,0.009197013542801141,-0.04657558095306158
1772618059789997800,10.231997802734375,-0.28259470635354517,-0.06096398912649601,-0.03423950219955295
1772618059800029700,10.24202978515625,0.08897183039486407,0.0033022564157843587,-0.025436072817910462
1772618059810061600,10.2520615234375,-0.00019406126737594602,0.02016485441671684,-0.042879046256374564
1772618059820094700,10.2620947265625,0.013846739044785498,0.02317033810932189,-0.03293778108437546
1772618059830126800,10.272126953125,-0.06504442684054375,-0.030231873993389308,-0.0069473988519515835
1772618059840159700,10.28215966796875,0.06606091040670871,-0.035467436559312046,0.0037632432573474943
1772618059850191600,10.292191650390626,-0.01637596526145935,0.008838975619059055,-0.02499766313433647
1772618059860224800,10.302224853515625,-0.05964928979873657,0.03097496571196243,-0.0349478057325352
1772618059870256600,10.312256591796874,0.010813070437312125,-0.006045289779920131,0.04084251719377935
1772618059880289800,10.322289794921875,0.07368249132633209,-0.005498981008771806,0.07560228954092599
1772618059890321700,10.33232177734375,-0.041698038044571874,0.0013405461550690233,0.04435785010466352
1772618059900353800,10.342353759765626,-0.0270616099268198,0.00550643366286531,0.045366661821026354
1772618059910386700,10.35238671875,0.03983341321647167,0.016490239290893077,0.06075568013805896
1772618059920418800,10.362418701171874,-0.008049450942873954,0.012041534520033747,0.03360724131115712
1772618059930451700,10.37245166015625,-0.03814940565228462,-0.002630421568825841,-0.017110965005122124
1772618059940483800,10.38248388671875,-0.0010457096606492995,-0.023681666898634282,-0.045138552153576164
1772618059950515700,10.392515625,0.01886778207719326,-0.011860679794102906,-0.02607129284837283
1772618059960548600,10.402548583984375,-0.03321253377199173,-0.0023497597302310166,-0.019351209079427643
1772618059970580700,10.412580810546874,-0.017956512451171875,0.020760756216943264,-0.017385370632866395
1772618059980613600,10.422613525390625,0.023807576566934583,0.023581951117515564,-0.017882963157771155
1772618059990645800,10.432645751953125,-0.008058218771219252,0.011268029396887869,-0.022208178546279666
1772618060000678700,10.4426787109375,-0.020635960793495178,0.015236366772279143,-0.04931172791868448
1772618060010710800,10.452710693359375,0.020812486404180524,0.00011266659423708915,-0.03941234739334322
1772618060020742700,10.46274267578125,0.00824701934158802,-0.016802465311530977,-0.0009733385441824794
1772618060030775800,10.47277587890625,-0.016746552139520643,-0.01771252936115488,0.014554649852123111
1772618060040807700,10.4828076171875,-0.010465864434838294,-0.00794957076497376,0.021845848039910194
1772618060050840600,10.492840576171876,0.012138766083121299,0.004171367400512099,0.04737854049955494
1772618060060872700,10.502872802734375,-0.01688625287115574,0.003890760360844433,0.02575325814145617
1772618060070905600,10.512905517578124,-0.008961305090785026,-0.010221296822931616,0.005669670533714815
1772618060080937700,10.522937744140625,0.025008769050240517,-0.023089692354854197,-0.0029913912351708857
1772618060090969900,10.532969970703125,0.010054945546388626,-0.01772242970066145,-0.008437728741252794
1772618060101002800,10.543002685546876,-0.015841127732396126,-0.020685462491028008,-0.00018523864010348915
1772618060111034600,10.55303466796875,0.007350947284698486,0.005513977648504078,0.01745445381370373
1772618060121067800,10.56306787109375,0.014088731107115745,-0.007419610340427607,0.00527534658703953
1772618060131099600,10.573099609375,-0.008056465205550194,0.0025149602293036877,-0.007880615448299795
1772618060141132500,10.583132568359375,-0.0055716626524925225,0.0012662753424607218,-0.024584086497919634
1772618060151164700,10.59316455078125,-0.6224328104078769,-0.012976988739240913,-0.24888753919871523
1772618060161196800,10.60319677734375,0.8749071037858724,-0.06007113193999976,0.2814788175335154
1772618060171229700,10.613229736328124,-0.2686994519919157,-0.23422276176931336,0.07491184132504276
1772618060181261800,10.62326171875,0.15336393080651758,0.13865763405663892,-0.11027188112027943
1772618060191294700,10.633294677734375,0.10754735152721405,0.15004194677695631,0.053042868137871846
1772618060201326600,10.64332666015625,-0.4220756577581167,-0.003924443434737622,-0.17059340762477368
1772618060211359700,10.65335986328125,0.3565074993044138,-0.015930577847827226,0.09402626424022019
1772618060221391600,10.6633916015625,-0.030167174726724623,0.0026768362601287663,-0.019850774365710092
1772618060231423700,10.673423828125,-0.16530279040336607,0.012365944168809801,-0.08436373381121083
