time,seconds_elapsed,z,y,x
1772618049587040500,0.02904052734375,0.0004303078167140484,-0.011805009096860886,-0.004475075285881758
1772618049597072400,0.039072265625,-0.0016077128238976002,-0.022412462159991264,-0.005098599940538406
1772618049607105500,0.04910546875,-0.001378414686769247,0.007265272084623575,0.0033851659391075373
1772618049617137400,0.059137451171875,0.0019579867366701365,0.02474154159426689,0.005360495764762163
1772618049627169500,0.06916943359375,0.0013696944806724787,-0.01368947047740221,-0.0036812028847634792
1772618049637202400,0.079202392578125,0.0009169233962893486,-0.016789700835943222,-0.0016223301645368338
1772618049647234600,0.089234619140625,-0.0011065462604165077,0.01529606245458126,0.0027258130721747875
1772618049657267500,0.099267333984375,-0.0016163978725671768,0.01940927654504776,0.0025137639604508877
1772618049667299600,0.109299560546875,-0.000500799622386694,-0.01735219918191433,-0.004471174906939268
1772618049677331500,0.11933154296875,0.0006364299915730953,-0.008979294449090958,-0.0003145760274492204
1772618049687364600,0.129364501953125,-0.001448825467377901,0.018765250220894814,0.0032599186524748802
1772618049697396500,0.139396484375,0.0013339656870812178,0.005963160190731287,-0.0015343192499130964
1772618049707429600,0.1494296875,0.002450629137456417,-0.016882767900824547,-0.0027564438059926033
1772618049717461500,0.15946142578125,0.002467626938596368,0.0002805902622640133,0.0018620885675773025
1772618049727493600,0.16949365234375,0.0016095563769340515,0.013550855219364166,0.0031529227271676064
1772618049737526500,0.179526611328125,-0.0007897522300481796,-0.005742714740335941,-0.0018908401252701879
1772618049747558700,0.18955859375,-0.001808944158256054,-0.011433890089392662,-0.0018186684465035796
1772618049757591600,0.199591552734375,-0.002496527973562479,0.010096488520503044,0.003120729001238942
1772618049767623400,0.20962353515625,0.00041750306263566017,0.007344909477978945,-0.0009469830547459424
1772618049777655600,0.219655517578125,0.00033475784584879875,-0.012231472879648209,-0.0027081621810793877
1772618049787688400,0.2296884765625,0.00043436046689748764,-0.0030108103528618813,-0.0021829865872859955
1772618049797720300,0.23972021484375,-0.0006793169304728508,0.012412812560796738,0.0037725772708654404
1772618049807753500,0.24975341796875,-0.0024127685464918613,-0.0008550556376576424,0.00020207720808684826
1772618049817785600,0.25978564453125,0.0002834019251167774,-0.00988975539803505,-0.004192874301224947
1772618049827817500,0.2698173828125,-0.0008199457079172134,0.00770947802811861,-0.004155856557190418
1772618049837850600,0.2798505859375,-0.0019599772058427334,0.005438730586320162,0.003322987351566553
1772618049847882500,0.289882568359375,0.0012347507290542126,-0.007535923738032579,-0.003162875073030591
1772618049857915600,0.29991552734375,0.0022449996322393417,-0.0025326726026833057,-0.00017272360855713487
1772618049867947500,0.309947509765625,-0.00029112864285707474,0.008900010958313942,0.002445430029183626
1772618049877979400,0.3199794921875,-0.00005792081356048584,-0.0011248337104916573,-0.00009033788228407502
1772618049888012500,0.330012451171875,0.00044008996337652206,-0.00691561121493578,0.0006966262590140104
1772618049898044700,0.340044677734375,0.0008362159132957458,0.0006420817226171494,0.0011042621918022633
1772618049908077600,0.35007763671875,-0.0027513280510902405,0.004438151605427265,0.003096839413046837
1772618049918109700,0.360109619140625,0.00009091617539525032,-0.005244394764304161,-0.0045246887020766735
1772618049928141600,0.3701416015625,-0.0018678386695683002,-0.0021516657434403896,0.0005185392801649868
1772618049938174500,0.380174560546875,0.00003061490133404732,0.007277421187609434,0.0024172640405595303
1772618049948206300,0.390206298828125,0.0019233233761042356,0.0003563985228538513,0.0023986217565834522
1772618049958239500,0.400239501953125,0.000007933471351861954,-0.0035507071297615767,-0.0032235467806458473
1772618049968271600,0.410271728515625,0.0019065011292696,0.0040345084853470325,-0.001313527813181281
1772618049978303500,0.420303466796875,0.0019433938432484865,0.002433581743389368,0.0011167638003826141
1772618049988336600,0.430336669921875,-0.0011147139593958855,-0.0031571928411722183,-0.0018220344791188836
1772618049998368500,0.440368408203125,0.00035833101719617844,-0.0024382127448916435,-0.0013400656171143055
1772618050008401700,0.450401611328125,-0.00027177296578884125,0.0014659813605248928,0.0015665083192288876
1772618050018433500,0.46043359375,0.0013197290245443583,0.0011485419236123562,-0.001097702537663281
1772618050028465400,0.47046533203125,0.0016795219853520393,-0.0028549879789352417,-0.0024623062927275896
1772618050038498600,0.48049853515625,-0.000275507103651762,0.0037859436124563217,0.0014896215870976448
1772618050048530700,0.49053076171875,0.001818003598600626,0.0024469057098031044,0.002781254705041647
1772618050058563600,0.5005634765625,-0.001841830089688301,-0.00317838741466403,-0.0005119011038914323
1772618050068595700,0.510595703125,0.001059151254594326,-0.0001951144076883793,-0.0014072558842599392
1772618050078627600,0.520627685546875,-0.002604864537715912,0.004777612630277872,0.0008738049655221403
1772618050088660500,0.530660400390625,-0.0015734219923615456,-0.002849946729838848,0.0014626297634094954
1772618050098692600,0.540692626953125,0.0008066161535680294,-0.0009915833361446857,-0.0000383125152438879
1772618050108725500,0.5507255859375,0.0011158091947436333,0.0009993952699005604,0.0007204220746643841
1772618050118757400,0.56075732421875,0.002488065045326948,0.0015375716611742973,0.0023661635350435972
1772618050128789500,0.57078955078125,0.0022182867396622896,-0.004268386401236057,0.0005605404148809612
1772618050138822700,0.58082275390625,-0.0003427332267165184,-0.002058996818959713,-0.00008255161810666323
1772618050148854500,0.5908544921875,-0.002270062919706106,0.00199113879352808,0.00016299181152135134
1772618050158887700,0.6008876953125,-0.0001663239672780037,0.0004890239797532558,0.0012681098887696862
1772618050168919600,0.61091943359375,0.001804947853088379,-0.0028505800291895866,0.0018119273008778691
1772618050178951400,0.620951416015625,-0.00024580443277955055,0.0005485042929649353,0.0004301068838685751
1772618050188984600,0.630984619140625,-0.0008830991573631763,0.0011530416086316109,-0.0008988104527816176
1772618050199016400,0.641016357421875,-0.0017300378531217575,-0.0008905930444598198,-0.002822702284902334
1772618050209049300,0.65104931640625,-0.0009542587213218212,0.0018407446332275867,-0.0009917791467159986
1772618050219081700,0.661081787109375,0.0006189686246216297,-0.0015074554830789566,0.0007577163632959127
1772618050229113600,0.671113525390625,-0.00018477346748113632,-0.000284531619399786,-0.000019926694221794605
1772618050239146500,0.681146484375,-0.0010487334802746773,0.0002924911677837372,-0.0023701293393969536
1772618050249178600,0.6911787109375,0.0012098932638764381,0.0038179834373295307,-0.00003933068364858627
1772618050259211500,0.70121142578125,-0.0012790719047188759,0.0013334299437701702,0.0025950265116989613
1772618050269243400,0.711243408203125,-0.0002468307502567768,0.0002998565323650837,-0.0024356849025934935
1772618050279275800,0.72127587890625,-0.0016547790728509426,0.0006442861631512642,-0.00028701231349259615
1772618050289308700,0.73130859375,-0.00009949319064617157,0.0005553369410336018,-0.001021512201987207
1772618050299340500,0.741340576171875,-0.0005137682892382145,0.00013813888654112816,-0.0014085551956668496
1772618050309373700,0.751373779296875,-0.0006442628800868988,-0.0016080960631370544,-0.0010165378917008638
1772618050319405600,0.761405517578125,-0.0017348779365420341,0.00016455119475722313,0.0012135966680943966
1772618050329437400,0.7714375,0.0019107232801616192,0.00032886816188693047,0.000007184804417192936
1772618050339470600,0.781470703125,0.0007645301520824432,0.002742535900324583,-0.0006885526236146688
1772618050349502500,0.79150244140625,0.00003668805584311485,0.0005148020572960377,-0.0011809711577370763
1772618050359535400,0.801535400390625,0.0003631473518908024,0.0013796952553093433,-0.0005764616071246564
1772618050369567700,0.811567626953125,0.002829500939697027,0.0006534508429467678,-0.000023323053028434515
1772618050379599600,0.821599609375,-0.003691298421472311,0.0025085825473070145,-0.0009229880524799228
1772618050389632500,0.831632568359375,-0.0004427745006978512,-0.0018680565990507603,0.0009044730686582625
1772618050399664600,0.84166455078125,0.0010173274204134941,0.0017335470765829086,0.000500404741615057
1772618050409697500,0.851697509765625,-0.0009691244922578335,-0.00015383539721369743,0.00008868006989359856
1772618050419729400,0.8617294921875,0.0001305774785578251,0.0012726266868412495,-0.0007305721519514918
1772618050429761500,0.871761474609375,0.0005058166570961475,-0.0006789378821849823,0.0009562740451656282
1772618050439794400,0.88179443359375,-0.00007034977898001671,0.0009803688153624535,-0.0021370514295995235
1772618050449826600,0.89182666015625,-0.0017287004739046097,0.0015257848426699638,-0.003848132211714983
1772618050459859700,0.901859619140625,-0.0015395181253552437,0.0017276783473789692,-0.0015189658151939511
1772618050469891600,0.9118916015625,0.003472817363217473,-0.0008779587224125862,0.0008488507010042667
1772618050479923500,0.92192333984375,-0.0004762308672070503,-0.0011028931476175785,-0.0001465135719627142
1772618050489956600,0.93195654296875,0.0011994303204119205,0.0006662448868155479,0.001079073059372604
1772618050499988500,0.941988525390625,-0.00028431927785277367,-0.0022402354516088963,0.0015155227156355977
1772618050510021400,0.952021484375,0.0015410115011036396,0.0009851190261542797,0.0017253797268494964
1772618050520053500,0.962053466796875,0.001299767754971981,-0.00042449263855814934,0.0011673500994220376
1772618050530085600,0.972085693359375,-0.0004589837044477463,0.0003395681269466877,0.0028496687300503254
1772618050540118500,0.982118408203125,-0.00009579211473464966,-0.0001938100904226303,-0.001620318740606308
1772618050550150700,0.992150634765625,-0.0018164603970944881,0.0005598645657300949,0.0006289870943874121
1772618050560183600,1.00218359375,-0.0013453997671604156,-0.0019022440537810326,0.0020165536552667618
1772618050570215400,1.01221533203125,-0.0004588332958519459,-0.0003629373386502266,-0.00004633079515770078
1772618050580247600,1.02224755859375,0.00005989382043480873,0.0004389719106256962,0.0014685213100165129
1772618050590280400,1.032280517578125,0.0006319410167634487,0.00186163280159235,-0.001655100379139185
1772618050600312600,1.0423125,-0.000578505452722311,0.00021908385679125786,0.0017380440840497613
1772618050610345500,1.052345458984375,-0.0015678699128329754,0.0018060612492263317,-0.00020739505998790264
1772618050620377300,1.06237744140625,-0.0005590389482676983,0.000999494455754757,-0.002354810480028391
1772618050630409500,1.072409423828125,-0.0012754290364682674,0.00008203554898500443,0.001373082515783608
1772618050640442400,1.0824423828125,0.0008337837643921375,0.003332432359457016,0.0012158965691924095
1772618050650474200,1.09247412109375,-0.001447746530175209,0.001047440804541111,-0.000407033774536103
1772618050660507400,1.10250732421875,0.0026925080455839634,-0.0009167981334030628,-0.0002813072642311454
1772618050670539300,1.112539306640625,0.0020829106215387583,-0.0006126654334366322,0.0007072581211104989
1772618050680571400,1.1225712890625,0.00156806455925107,0.0014161868020892143,0.0011894330382347107
1772618050690604500,1.1326044921875,-0.0016591539606451988,0.0008406778797507286,0.0000903464388102293
1772618050700636400,1.142636474609375,-0.00027274293825030327,0.0018736454658210278,-0.00040483870543539524
1772618050710669600,1.152669677734375,0.0011584395542740822,0.0009631109423935413,0.0010902597568929195
1772618050720701400,1.162701416015625,0.0012318422086536884,0.00013234559446573257,0.00007942499360069633
1772618050730733300,1.1727333984375,0.002533062594011426,0.0009765680879354477,0.0030049073975533247
1772618050740766500,1.182766357421875,0.00022803433239459991,0.000595778226852417,0.0012863889569416642
1772618050750798300,1.19279833984375,0.00015612877905368805,-0.003263674909248948,0.002857387997210026
1772618050760831200,1.202831298828125,0.0005913795903325081,-0.0013034623116254807,0.0008203058387152851
1772618050770863600,1.212863525390625,0.00018897559493780136,-0.000044053420424461365,-0.00001113303005695343
1772618050780895500,1.2228955078125,0.0016464062500745058,0.002330777235329151,0.0008779381169006228
1772618050790928400,1.232928466796875,0.0008346745744347572,0.0005153007805347443,0.0010521088261157274
1772618050800960300,1.242960205078125,-0.000003966968506574631,0.0016857730224728584,-0.0016421996988356113
1772618050810993400,1.252993408203125,-0.00015203887596726418,-0.00004448229447007179,-0.0020675065461546183
1772618050821025300,1.263025390625,-0.0023674429394304752,0.0016612843610346317,0.00273346621543169
1772618050831057400,1.273057373046875,0.0010507246479392052,0.001462079118937254,-0.0008127991459332407
1772618050841090600,1.283090576171875,-0.00015394575893878937,-0.0017736414447426796,-0.0024781832471489906
1772618050851122400,1.293122314453125,0.0012716441415250301,0.0005012308247387409,-0.0015844263834878802
1772618050861155600,1.303155517578125,0.0009892540983855724,0.0004102415405213833,0.003689951729029417
1772618050871187500,1.3131875,0.0020558498799800873,-0.0010078917257487774,-0.0005165112670511007
1772618050881219300,1.32321923828125,0.00020801881328225136,0.001004200428724289,-0.0005096029490232468
1772618050891252500,1.33325244140625,-0.0024815076030790806,0.002359217032790184,0.0005729719996452332
1772618050901284400,1.343284423828125,0.00031577982008457184,-0.00020697899162769318,-0.0003424017340876162
1772618050911316500,1.35331640625,0.00017037102952599525,-0.000005910173058509827,0.0009593513677828014
1772618050921349600,1.363349609375,-0.0018593408167362213,0.0012568426318466663,-0.002253767102956772
1772618050931381500,1.373381591796875,-0.0008484045974910259,0.0014129034243524075,0.0003800991107709706
1772618050941414400,1.383414306640625,0.0011385604739189148,0.0008921395055949688,-0.0021169306710362434
1772618050951446500,1.393446533203125,0.0006413483060896397,-0.001071142964065075,0.0012956438586115837
1772618050961478400,1.403478515625,0.0004488173872232437,-0.0013532452285289764,-0.000031455245334655046
1772618050971511300,1.41351123046875,-0.0015618694014847279,0.00021402491256594658,-0.0013292136136442423
1772618050981543400,1.42354345703125,-0.0010609226301312447,-0.0005337269976735115,-0.0009933548280969262
1772618050991576300,1.433576416015625,-0.001241218764334917,-0.001932152546942234,0.0007369008962996304
1772618051001608400,1.4436083984375,-0.0003356346860527992,0.0016446695663034916,-0.002234003972262144
1772618051011640300,1.453640380859375,0.0022281904239207506,0.0004209470935165882,-0.002313632518053055
1772618051021673500,1.463673583984375,-0.000946282409131527,-0.0021912362426519394,-0.00009229523129761219
1772618051031705300,1.473705322265625,-0.001463468186557293,0.0003544790670275688,-0.0013519703643396497
1772618051041738500,1.483738525390625,-0.0012288191355764866,-0.0011386098340153694,-0.00021686003310605884
1772618051051770400,1.493770263671875,-0.0009438609704375267,0.0013091014698147774,-0.00009382196003571153
1772618051061802500,1.503802490234375,-0.00012776628136634827,0.002818006556481123,0.00026179978158324957
1772618051071835400,1.51383544921875,0.0003350907936692238,0.00021689757704734802,0.002783014439046383
1772618051081867500,1.523867431640625,0.002137626288458705,0.00008769240230321884,-0.0022934437729418278
1772618051091900400,1.533900390625,0.0021903568413108587,-0.0004217703826725483,0.0025793418753892183
1772618051101932500,1.5439326171875,0.00011757528409361839,0.0006258077919483185,-0.0010263769654557109
1772618051111964400,1.55396435546875,-0.0012872419320046902,-0.00022267550230026245,-0.0012277119094505906
1772618051121997300,1.563997314453125,-0.00009551225230097771,0.0010677110403776169,0.0011167929042130709
1772618051132029400,1.574029541015625,0.001527684275060892,-0.000500890426337719,0.00439940532669425
1772618051142062300,1.584062255859375,-0.00023275380954146385,-0.00009754393249750137,-0.0007037699106149375
1772618051152094500,1.594094482421875,0.00009028753265738487,0.00022203568369150162,-0.002380229765549302
1772618051162126300,1.604126220703125,-0.0019822288304567337,0.0005281455814838409,-0.0001552149187773466
1772618051172159500,1.614159423828125,-0.00039631640538573265,0.0008653020486235619,-0.0024697682820260525
1772618051182191400,1.62419140625,0.001979824621230364,0.00007129134610295296,0.0006822413415648043
1772618051192224500,1.634224609375,-0.0014034551568329334,0.0009677112102508545,0.0003256439813412726
1772618051202256400,1.64425634765625,0.0020593004301190376,-0.0013544908724725246,0.0015550147509202361
1772618051212288300,1.654288330078125,0.00048137735575437546,-0.002356904558837414,0.00029933429323136806
1772618051222321400,1.6643212890625,0.0012970177922397852,0.0008594300597906113,0.0017734323628246784
1772618051232353500,1.674353515625,0.0011092647910118103,-0.0008260845206677914,-0.0012170311529189348
1772618051242386400,1.684386474609375,-0.002083731349557638,0.0009813960641622543,0.0027893115766346455
1772618051252418600,1.69441845703125,0.0023640142753720284,-0.000494793988764286,0.0017216503620147705
1772618051262450400,1.704450439453125,-0.0013790149241685867,0.0017402893863618374,-0.001221085200086236
1772618051272483300,1.7144833984375,0.0013701661955565214,-0.0013508414849638939,0.0003019766299985349
1772618051282515500,1.724515380859375,-0.00016732420772314072,0.0004680398851633072,-0.0022133123129606247
1772618051292547600,1.734547607421875,0.002024190966039896,0.00007522385567426682,-0.001039124559611082
1772618051302580500,1.74458056640625,0.0015108559746295214,-0.0005552680231630802,0.0025806135963648558
1772618051312612600,1.754612548828125,-0.003828515764325857,0.00008202623575925827,0.001751571660861373
1772618051322645500,1.7646455078125,-0.001858364325016737,0.0005340962670743465,0.000599583494476974
1772618051332677400,1.774677490234375,-0.0016706115566194057,-0.0002898857928812504,-0.002138146199285984
1772618051342709200,1.784709228515625,-0.00040823454037308693,-0.0004704603925347328,0.0011208223877474666
1772618051352742400,1.794742431640625,0.0003963061608374119,0.0011681830510497093,-0.0026249135844409466
1772618051362774300,1.804774169921875,-0.0006623491644859314,0.00011397711932659149,0.0007276615360751748
1772618051372807400,1.814807373046875,0.0010860157199203968,0.002493778243660927,0.00008823664393275976
1772618051382839600,1.824839599609375,-0.001377541571855545,-0.0012775217182934284,-0.0013664171565324068
1772618051392871400,1.834871337890625,-0.0018095062114298344,0.000025562942028045654,-0.0006937027210369706
1772618051402904600,1.844904541015625,-0.0006598015315830708,-0.001015515998005867,-0.0014183210441842675
1772618051412936400,1.8549365234375,0.00184143939986825,-0.00027995090931653976,-0.0017094046343117952
1772618051422969300,1.86496923828125,0.0005508032627403736,-0.0017668744549155235,-0.0007847507367841899
1772618051433001500,1.87500146484375,0.00020086392760276794,0.0003953459672629833,0.0018680240027606487
1772618051443033300,1.885033447265625,0.0011784892994910479,0.0007375157438218594,-0.0011963623110204935
1772618051453066200,1.895066162109375,-0.0009903893806040287,-0.0019472166895866394,-0.0019361884333193302
1772618051463098600,1.9050986328125,-0.00010020006448030472,-0.002189608756452799,0.0014388753334060311
1772618051473131500,1.915131591796875,0.0020215401891618967,0.00031003449112176895,0.002550212200731039
1772618051483163400,1.925163330078125,0.0009869234636425972,-0.00008696038275957108,0.0014624616596847773
1772618051493195500,1.935195556640625,-0.00042907893657684326,-0.00010533584281802177,0.0006145111983641982
1772618051503228400,1.945228515625,0.0006291070021688938,-0.00027000438421964645,0.0010594399645924568
1772618051513260300,1.95526025390625,-0.0016588149592280388,-0.00033205607905983925,-0.0022833598777651787
1772618051523293400,1.96529345703125,-0.0003841351717710495,-0.000855456106364727,0.0004902157816104591
1772618051533325300,1.9753251953125,0.001089391764253378,0.00010248320177197456,0.00036957458360120654
1772618051543357400,1.985357421875,-0.0014058868400752544,0.000920815858989954,-0.00038916117046028376
1772618051553390600,1.995390625,-0.0002548685297369957,0.0010015103034675121,0.0015006179455667734
1772618051563422500,2.00542236328125,-0.000292816199362278,0.00043448852375149727,0.0019518102053552866
1772618051573455400,2.015455322265625,-0.00043183332309126854,-0.0011415700428187847,0.0002561756409704685
1772618051583487500,2.025487548828125,-0.0014087161980569363,-0.001835864968597889,0.0029220744036138058
1772618051593519400,2.035519287109375,0.0009263437241315842,0.0010778997093439102,0.003868028987199068
1772618051603552800,2.045552734375,0.00030963122844696045,-0.00036317063495516777,-0.0006869498174637556
1772618051613584600,2.055584716796875,0.000058228615671396255,-0.0017485469579696655,0.0010901776840910316
1772618051623617000,2.065616943359375,0.00009115925058722496,-0.0010918411426246166,-0.0012588421814143658
1772618051633650000,2.07564990234375,-0.0010731746442615986,0.00157984159886837,-0.002744886092841625
1772618051643681800,2.085681884765625,-0.0007239650003612041,-0.00015440909191966057,0.0016007829690352082
1772618051653715000,2.09571484375,-0.00023021502420306206,-0.0022926609963178635,0.0023954701609909534
1772618051663746800,2.105746826171875,-0.0014960793778300285,0.00009153364226222038,-0.0008224989287555218
1772618051673778700,2.11577880859375,0.0000610710121691227,0.0004787570796906948,-0.0008211673703044653
1772618051683811800,2.125811767578125,-0.0007641464471817017,0.0006601712666451931,-0.0014676586724817753
1772618051693844000,2.135843994140625,-0.0013492428697645664,-0.003546025138348341,-0.0011805699905380607
1772618051703876600,2.145876708984375,-0.00006146496161818504,0.0026614991948008537,-0.003483203938230872
1772618051713909000,2.155908935546875,-0.0014167479239404202,0.0016899779438972473,-0.0024613491259515285
1772618051723940900,2.16594091796875,-0.0017663906328380108,0.0007544942200183868,-0.0004429375403560698
1772618051733973800,2.175973876953125,-0.0009296252392232418,0.00140323955565691,-0.0010394856799393892
1772618051744006000,2.186005859375,-0.0005132006481289864,0.000015929806977510452,0.001475734869018197
1772618051754038800,2.196038818359375,-0.000519325491040945,-0.0003736908547580242,-0.000937355391215533
1772618051764070700,2.206070556640625,0.00014577805995941162,0.0015478436835110188,0.00006154185393825173
1772618051774103000,2.21610302734375,-0.0011301422491669655,-0.00006469991058111191,-0.0018141225446015596
1772618051784136000,2.226135986328125,0.002261747606098652,-0.00028488971292972565,0.001716539147309959
1772618051794167800,2.236167724609375,0.0003967359662055969,0.00024641072377562523,-0.0014057508669793606
1772618051804200000,2.246199951171875,-0.0006739790551364422,-0.0020830221474170685,0.003001575358211994
1772618051814232800,2.25623291015625,-0.00022550299763679504,-0.0003362544812262058,0.0005205748020671308
1772618051824264700,2.2662646484375,-0.0008115400560200214,-0.0022516343742609024,0.004635896533727646
1772618051834297900,2.2762978515625,0.0008340268395841122,0.0003955475986003876,0.002969556488096714
1772618051844329700,2.286329833984375,0.0010651894845068455,0.00033109914511442184,0.0012835090747103095
1772618051854361900,2.29636181640625,-0.0008187307976186275,0.0018506990745663643,-0.0022302656434476376
1772618051864395000,2.30639501953125,-0.00010005943477153778,0.0019237091764807701,-0.0007968075224198401
1772618051874427000,2.316427001953125,-0.0008769035339355469,-0.001811640802770853,-0.0010175835341215134
1772618051884459800,2.326459716796875,0.0010100393556058407,-0.0012398292310535908,-0.0005445394781418145
1772618051894492000,2.336491943359375,-0.0009186221286654472,0.0014986996538937092,0.0001153917983174324
1772618051904523800,2.346523681640625,0.00020203599706292152,0.000004560686647891998,0.000877010403200984
1772618051914556700,2.356556640625,0.000024403445422649384,0.000893524382263422,-0.0014037208165973425
1772618051924588800,2.3665888671875,-0.0006093746051192284,0.0009524342603981495,-0.002364490879699588
1772618051934621700,2.37662158203125,0.00029716547578573227,0.0024877474643290043,0.000377766031306237
1772618051944653800,2.38665380859375,-0.0011709458194673061,0.0006453734822571278,-0.00019250705372542143
1772618051954686000,2.39668603515625,0.0010772948153316975,-0.0007421332411468029,0.0019800998270511627
1772618051964718800,2.40671875,-0.0006539463065564632,0.00139569491147995,-0.002902961801737547
1772618051974750700,2.416750732421875,0.0027373230550438166,-0.000551875215023756,0.002350922441110015
1772618051984784000,2.426783935546875,-0.001552029512822628,-0.001871185377240181,-0.0016618515364825726
1772618051994815700,2.436815673828125,-0.00039674993604421616,0.00014642532914876938,-0.0007646325975656509
1772618052004847900,2.446847900390625,0.001936586806550622,0.0017509195022284985,0.0025031049735844135
1772618052014880800,2.456880859375,-0.0026578987017273903,0.002457988914102316,-0.0022564963437616825
1772618052024913000,2.466912841796875,-0.0008328654803335667,-0.00021824659779667854,-0.0014800084754824638
1772618052034944800,2.47694482421875,-0.0029242453165352345,0.0002890857867896557,-0.0016136991325765848
1772618052044978000,2.48697802734375,-0.0028700418770313263,-0.0003599356859922409,-0.0022268942557275295
1772618052055009800,2.497009765625,0.0005433317273855209,0.001783642452210188,-0.0008255388820543885
1772618052065042700,2.507042724609375,-0.0023746625520288944,-0.0017238534055650234,-0.0022955185268074274
1772618052075074800,2.51707470703125,0.001979605993255973,-0.0013811048120260239,0.0011093327775597572
1772618052085107000,2.52710693359375,-0.0009613102301955223,-0.0011325781233608723,-0.0013761245645582676
1772618052095139800,2.537139892578125,0.0019545848481357098,0.001487972680479288,0.0007480126805603504
1772618052105172000,2.547171875,-0.0025793081149458885,0.0000196089968085289,0.0016571169253438711
1772618052115204900,2.557204833984375,-0.00041096238419413567,0.0003088284283876419,0.0011367350816726685
1772618052125236700,2.56723681640625,-0.0017525022849440575,0.0007313336245715618,-0.0007732762605883181
1772618052135268900,2.577268798828125,0.0033059059642255306,0.0005526356399059296,-0.0009618280455470085
1772618052145301800,2.5873017578125,-0.0012992285192012787,-0.0015388638712465763,0.002033255062997341
1772618052155333600,2.597333740234375,-0.0004909592680633068,0.0003724866546690464,-0.0022919848561286926
1772618052165366800,2.60736669921875,0.0005797604098916054,0.0012817555107176304,-0.0009575384901836514
1772618052175399000,2.61739892578125,-0.0007009538821876049,0.00025484059005975723,-0.00032849988201633096
1772618052185430800,2.6274306640625,-0.0009694625623524189,0.0015024500899016857,-0.0002801952068693936
1772618052195464000,2.6374638671875,-0.0011143381707370281,0.0012393300421535969,-0.0010367992799729109
1772618052205495800,2.647495849609375,0.0001969323493540287,0.0007100137881934643,0.0008513699285686016
1772618052215528700,2.65752880859375,0.0027748721186071634,-0.002090033609420061,0.0015136981382966042
1772618052225560800,2.667560791015625,0.000029056333005428314,-0.00009670061990618706,-0.0007430179393850267
1772618052235593000,2.677593017578125,-0.0011001238599419594,0.0009278175421059132,-0.0001685741008259356
1772618052245625900,2.6876259765625,0.0021394588984549046,0.0035741114988923073,0.0009347694576717913
1772618052255658000,2.697657958984375,-0.0008118562400341034,-0.00035857874900102615,0.0005584647296927869
1772618052265689900,2.70768994140625,-0.0009904834441840649,-0.0009602028876543045,0.0007964618853293359
1772618052275722800,2.71772265625,0.003115045838057995,0.00031092390418052673,-0.0015689576976001263
1772618052285755000,2.7277548828125,0.0005667512305080891,0.0002002953551709652,0.0034068869426846504
1772618052295787800,2.737787841796875,0.0011401297524571419,0.0014333389699459076,-0.0006176820024847984
1772618052305819600,2.747819580078125,-0.0010298565030097961,0.00018580956384539604,0.0007897389004938304
1772618052315852000,2.75785205078125,-0.0015212097205221653,0.0009629200212657452,0.0011026603169739246
1772618052325885000,2.767885009765625,-0.001813029870390892,0.00042310962453484535,0.0016383404145017266
1772618052335916800,2.777916748046875,0.0015422864817082882,0.0012713265605270863,-0.0013617106014862657
1772618052345950000,2.787949951171875,0.0011923816055059433,0.0008050417527556419,0.0028074723668396473
1772618052355981800,2.79798193359375,-0.0004907362163066864,0.0021568629890680313,0.0013406035723164678
1772618052366013700,2.808013671875,-0.0005961344577372074,0.0014053336344659328,-0.0005449831951409578
1772618052376046800,2.818046875,0.0016619600355625153,-0.0014122910797595978,0.0012547810329124331
1772618052386078700,2.82807861328125,0.0006320658139884472,-0.00020502787083387375,0.00023298937594518065
1772618052396111600,2.838111572265625,-0.001183144748210907,-0.0010596360079944134,-0.0005507788737304509
1772618052406144000,2.84814404296875,0.00008427305147051811,0.0003579328767955303,-0.0022473535500466824
1772618052416175900,2.85817578125,0.0006227642297744751,-0.0002380823716521263,0.0013521750224754214
1772618052426208800,2.868208740234375,0.002369908383116126,0.0013740239664912224,-0.00025972159346565604
1772618052436241000,2.878240966796875,-0.002482637297362089,0.0002347235567867756,0.001439108862541616
1772618052446272800,2.888272705078125,0.002147322054952383,0.0037392964586615562,-0.0030091642402112484
1772618052456305700,2.8983056640625,0.0007361131720244884,-0.000547328032553196,-0.000794479507021606
1772618052466337800,2.908337890625,0.0008471384644508362,-0.001167860347777605,0.002578631741926074
1772618052476370700,2.91837060546875,0.0020354411099106073,-0.0016861115582287312,0.00000122428173199296
1772618052486402800,2.92840283203125,-0.001746822614222765,0.00005353288725018501,-0.0034301183186471462
1772618052496435000,2.93843505859375,0.0021373978815972805,-0.0019113472662866116,0.0002048300812020898
1772618052506467800,2.9484677734375,0.000491162296384573,0.001522338017821312,-0.001006946200504899
1772618052516499700,2.958499755859375,-0.0016737212426960468,0.0011015590280294418,-0.00048256973968818784
1772618052526532900,2.968532958984375,-0.00021969247609376907,0.001324519980698824,-0.0005161751760169864
1772618052536564700,2.978564697265625,0.00017578713595867157,0.00289685046300292,-0.002773736836388707
1772618052546596900,2.988596923828125,0.000024572480469942093,0.00012675905600190163,0.00036363990511745214
1772618052556630000,2.998630126953125,0.0006719869561493397,0.0008021369576454163,0.0019450249383226037
1772618052566662000,3.008661865234375,0.0012037917040288448,-0.000005370005965232849,0.0011665248312056065
1772618052576694800,3.01869482421875,0.0005017821677029133,-0.0006280173547565937,0.0013635987415909767
1772618052586727000,3.028726806640625,-0.0005958108231425285,0.0006597442552447319,-0.0023242924362421036
1772618052596758800,3.0387587890625,0.002527011791244149,-0.0017120670527219772,0.00041796447476372123
1772618052606791400,3.04879150390625,0.0016381421592086554,0.0004577650688588619,0.0022009573876857758
1772618052616823600,3.058823486328125,0.0004764711484313011,0.00043246475979685783,0.0005905440775677562
1772618052626855700,3.068855712890625,0.0030934116803109646,-0.002682934980839491,0.00010531733278185129
1772618052636888600,3.078888671875,-0.0008691055700182915,0.0015970314852893353,0.0007234369404613972
1772618052646920700,3.088920654296875,0.00016722502186894417,-0.0024348655715584755,-0.0003646692493930459
1772618052656953600,3.09895361328125,0.00045005278661847115,0.001696229912340641,-0.0013929157285019755
1772618052666985500,3.1089853515625,-0.0017878315411508083,0.0005297954194247723,0.000733252614736557
1772618052677017600,3.119017578125,-0.00012761680409312248,0.00027732737362384796,0.0019279465777799487
1772618052687050500,3.129050537109375,-0.0017135408706963062,-0.00037454767152667046,-0.001858506933785975
1772618052697082600,3.13908251953125,-0.00071325758472085,0.0022199037484824657,-0.0008438425720669329
1772618052707115800,3.14911572265625,-0.0016263225115835667,0.0003392435610294342,-0.0019045152002945542
1772618052717147600,3.159147705078125,0.00040114205330610275,0.0005717375315725803,-0.001588398008607328
1772618052727179500,3.169179443359375,-0.0007638148963451385,0.003031452652066946,0.00030264980159699917
1772618052737212700,3.179212646484375,-0.0017305421642959118,-0.00047193607315421104,-0.0020811455324292183
1772618052747244500,3.18924462890625,-0.0006879582069814205,0.001846354454755783,0.00003417028347030282
1772618052757277400,3.19927734375,-0.0007627932354807854,0.001347011886537075,-0.0021842429414391518
1772618052767309600,3.2093095703125,0.0032323654741048813,-0.0026451582089066505,0.0022359080612659454
1772618052777341700,3.219341796875,0.0017172929365187883,-0.00002940138801932335,0.0003394709201529622
1772618052787374600,3.22937451171875,-0.00023143412545323372,0.0005309781990945339,0.0006564711220562458
1772618052797406700,3.23940673828125,-0.0007574083283543587,0.0011411081068217754,-0.001374455401673913
1772618052807439600,3.249439697265625,0.00005475897341966629,-0.0013751420192420483,0.0016266467282548547
1772618052817471500,3.259471435546875,0.000037182122468948364,0.00030904123559594154,0.0000263532274402678
1772618052827503600,3.269503662109375,0.004122027661651373,0.0007637017406523228,0.00025187188293784857
1772618052837536500,3.27953662109375,0.00011849775910377502,0.0020848955027759075,0.0005637280410155654
1772618052847568400,3.289568359375,0.0010661394335329533,-0.0006222492083907127,0.0024323223624378443
1772618052857600800,3.299600830078125,-0.0011181854642927647,-0.0001239716075360775,-0.0013720032293349504
1772618052867633700,3.309633544921875,0.0010458854958415031,0.0002022935077548027,-0.00034849660005420446
1772618052877665500,3.31966552734375,0.0010554729960858822,-0.0019210446625947952,0.001325033837929368
1772618052887698700,3.32969873046875,0.00006495462730526924,-0.0004582814872264862,0.00233976892195642
1772618052897730600,3.33973046875,0.0007933289743959904,-0.0011538988910615444,-0.0006781251286156476
1772618052907762400,3.349762451171875,0.0002356329932808876,0.001292654313147068,0.0013802936300635338
1772618052917795600,3.359795654296875,-0.0004037921316921711,0.001790665090084076,-0.0010884564835578203
1772618052927827700,3.36982763671875,0.0001715053804218769,-0.0014347322285175323,-0.0013644075952470303
1772618052937860600,3.379860595703125,-0.0012974943965673447,-0.000032578129321336746,-0.00048423281987197697
1772618052947892700,3.389892822265625,0.0022652861662209034,-0.0006360555998980999,0.0014180939178913832
1772618052957924600,3.399924560546875,-0.001378451008349657,-0.001412899699062109,0.0011355325113981962
1772618052967957500,3.40995751953125,0.00014801137149333954,-0.0006681634113192558,-0.00020246347412467003
1772618052977989600,3.41998974609375,0.0004430897533893585,-0.000039657577872276306,0.000023372587747871876
1772618052988022500,3.4300224609375,0.00005149981006979942,0.0022263387218117714,0.00086574925808236
1772618052998054400,3.440054443359375,0.0011141011491417885,-0.0005042003467679024,0.0008159481803886592
1772618053008086800,3.450086669921875,0.0002970239147543907,-0.001239097211509943,-0.0013256834354251623
1772618053018119700,3.46011962890625,-0.00007741665467619896,0.0023303376510739326,0.002325244015082717
1772618053028151600,3.470151611328125,0.000009178649634122849,-0.0009280731901526451,0.001517213648185134
1772618053038184700,3.480184814453125,0.00015565240755677223,0.0006621005013585091,0.0026202951557934284
1772618053048216600,3.490216552734375,0.0005981749854981899,-0.0016565285623073578,0.002748312894254923
1772618053058248400,3.50024853515625,-0.0019539319910109043,-0.0007417327724397182,0.0026106275618076324
1772618053068281600,3.510281494140625,0.0007253112271428108,-0.00038742879405617714,-0.000748632475733757
1772618053078313500,3.5203134765625,-0.0011397004127502441,0.000627235509455204,-0.002836816944181919
1772618053088346400,3.530346435546875,-0.0002112286165356636,-0.0011893697082996368,0.0013107832055538893
1772618053098378800,3.540378662109375,0.001959513872861862,-0.0007270453497767448,-0.0022613147739320993
1772618053108410600,3.55041064453125,-0.0009470600634813309,-0.0025737686082720757,-0.000753030355554074
1772618053118443500,3.560443603515625,-0.0011601131409406662,0.0000201505608856678,-0.0019005865324288607
1772618053128475600,3.5704755859375,-0.001708869356662035,0.00035311048850417137,0.00421355152502656
1772618053138507500,3.580507568359375,-0.0008675768040120602,-0.0023369486443698406,0.0012302784016355872
1772618053148540400,3.59054052734375,0.000512879341840744,0.002020176500082016,0.00007437064778059721
1772618053158572800,3.60057275390625,0.00019037025049328804,-0.00037294020876288414,0.0037972035352140665
1772618053168605400,3.61060546875,0.000057592522352933884,0.0010492135770618916,-0.0020447219721972942
1772618053178637600,3.620637451171875,0.00046132784336805344,0.00012003723531961441,0.0012309662997722626
1772618053188669700,3.630669677734375,0.0008161002770066261,-0.00036360137164592743,-0.0008235343848355114
1772618053198702600,3.64070263671875,0.0004461873322725296,-0.0040249149315059185,-0.0022211612667888403
1772618053208734500,3.650734375,0.0006795851513743401,-0.0013510966673493385,-0.00018619542242959142
1772618053218767600,3.660767578125,-0.00019206758588552475,-0.002582542598247528,-0.0024858349934220314
1772618053228799500,3.670799560546875,-0.001321233343333006,-0.0005548936314880848,-0.00024555495474487543
1772618053238831600,3.68083154296875,-0.0008868719451129436,0.0009484607726335526,-0.0006796502275392413
1772618053248864800,3.69086474609375,0.0003505554050207138,0.000005209818482398987,0.0004864699440076947
1772618053258896600,3.700896728515625,-0.0006164382211863995,-0.0009697736240923405,0.00006222841329872608
1772618053268929500,3.710929443359375,0.0016487722750753164,-0.0009239101782441139,0.0023068112786859274
1772618053278961700,3.720961669921875,-0.0006881514564156532,0.002241256646811962,-0.001915097702294588
1772618053288993500,3.73099365234375,-0.0008712480776011944,0.0015045884065330029,-0.0009432562510482967
1772618053299026400,3.7410263671875,0.0011476941872388124,0.0013080467469990253,0.0007598352967761457
1772618053309058600,3.75105859375,-0.00046694278717041016,-0.0017566611059010029,0.0012935169506818056
1772618053319091500,3.761091552734375,0.00020550517365336418,-0.00008845701813697815,0.0009848566260188818
1772618053329123600,3.77112353515625,0.0018886846955865622,0.0024306587874889374,-0.000615833792835474
1772618053339155700,3.78115576171875,0.0021185153163969517,-0.0013965703547000885,-0.0023096040822565556
1772618053349188600,3.791188720703125,0.00003490038216114044,-0.0025720829144120216,-0.0008358866325579584
1772618053359220500,3.801220458984375,-0.0009177122265100479,0.0006633913144469261,-0.0017655962146818638
1772618053369253600,3.811253662109375,0.002168261678889394,0.0003794892691075802,-0.0006886952323839068
1772618053379285500,3.821285400390625,-0.001769754569977522,0.002564879134297371,-0.00041332439286634326
1772618053389317600,3.831317626953125,-0.0011924775317311287,0.0014468017034232616,0.0005175796104595065
1772618053399350500,3.8413505859375,-0.001907003577798605,0.0025701229460537434,-0.001346366829238832
1772618053409382700,3.851382568359375,0.0007865061052143574,-0.00194826303049922,-0.0000566179514862597
1772618053419414500,3.86141455078125,-0.0013895626179873943,0.00033087050542235374,0.00012341170804575086
1772618053429447700,3.87144775390625,0.000753648579120636,-0.0022532506845891476,0.0014486853033304214
1772618053439479600,3.8814794921875,-0.0016511855646967888,-0.0003778524696826935,0.0027072951197624207
1772618053449512400,3.891512451171875,-0.0006147543899714947,-0.001959611661732197,-0.002076495438814163
1772618053459544600,3.901544677734375,-0.00038865208625793457,0.00005400460213422775,-0.0034024836495518684
1772618053469576700,3.91157666015625,0.0004266388714313507,0.0009910184890031815,-0.0029084302950650454
1772618053479609600,3.921609619140625,-0.0005725789815187454,-0.0011829198338091373,-0.001354742213152349
1772618053489641700,3.931641845703125,-0.000287509523332119,0.0001267637126147747,-0.0031831052619963884
1772618053499674600,3.941674560546875,0.0009503276087343693,0.0010404940694570541,0.0008928627357818186
1772618053509706500,3.95170654296875,-0.00011300807818770409,-0.0010373089462518692,0.0008584904717281461
1772618053519738600,3.961738525390625,-0.003976989071816206,0.000470838975161314,-0.0017066661966964602
1772618053529771500,3.971771484375,-0.0012364373542368412,0.0009534577839076519,-0.00020150362979620695
1772618053539803400,3.981803466796875,0.001083974726498127,-0.0002636066637933254,-0.0033714640885591507
1772618053549836500,3.99183642578125,-0.0007105362601578236,-0.00009942613542079926,0.0011941310949623585
1772618053559868700,4.00186865234375,0.00035046739503741264,-0.00041208090260624886,0.0012058489955961704
1772618053569900500,4.011900634765625,0.00013033393770456314,0.0009544133208692074,-0.0014221527380868793
1772618053579933700,4.02193359375,0.001229953020811081,-0.0008946191519498825,0.0016953436424955726
1772618053589965600,4.031965576171875,0.0017713017296046019,-0.0013099387288093567,0.0000072756665758788586
1772618053599998500,4.04199853515625,0.0013212275225669146,-0.003417298197746277,-0.00015943823382258415
1772618053610031400,4.05203125,-0.0013732337392866611,-0.0013033924624323845,-0.0011574339587241411
1772618053620063200,4.062063232421875,0.0010648900642991066,-0.00012387847527861595,0.0017243726179003716
1772618053630096400,4.072096435546875,-0.0013447641395032406,0.00006735743954777718,-0.0010140149388462305
1772618053640128300,4.082128173828125,-0.00017936481162905693,0.0009219660423696041,-0.0009237338090315461
1772618053650161200,4.0921611328125,-0.0006637987680733204,-0.00022599194198846817,0.0029362731147557497
1772618053660193500,4.102193603515625,-0.0006624669767916203,0.0005865385755896568,0.0006512809777632356
1772618053670225400,4.112225341796875,-0.0014896253123879433,0.0002119317650794983,0.0013940178323537111
1772618053680258300,4.12225830078125,-0.0011940142139792442,-0.0011667869985103607,0.0012813662178814411
1772618053690290400,4.13229052734375,-0.00037292996421456337,0.00010973401367664337,0.0017669969238340855
1772618053700322300,4.142322265625,-0.00045735202729701996,-0.0007728375494480133,0.0027422464918345213
1772618053710355200,4.152355224609375,-0.0007230094633996487,0.0002740924246609211,-0.0020807625260204077
1772618053720387300,4.16238720703125,-0.00483892485499382,0.0012107258662581444,0.003928660415112972
1772618053730420200,4.172420166015625,0.00120760896243155,0.001962169073522091,0.00007706304313614964
1772618053740452400,4.182452392578125,-0.0028481190092861652,0.0005738632753491402,0.0016179680824279785
1772618053750484200,4.192484130859375,-0.0001691635698080063,0.00022103497758507729,-0.0013377009890973568
1772618053760517400,4.202517333984375,0.0010010292753577232,0.00033981213346123695,-0.00027057231636717916
1772618053770549200,4.21254931640625,-0.0006948993541300297,-0.0006104796193540096,-0.0022687381133437157
1772618053780582400,4.22258251953125,0.0012167177628725767,-0.001617154572159052,-0.0014271789696067572
1772618053790614300,4.2326142578125,0.0011819512583315372,-0.00004182709380984306,0.0008077793754637241
1772618053800646400,4.242646484375,-0.0008793352171778679,-0.0034352270886301994,0.000021614250726997852
1772618053810679600,4.252679443359375,-0.0015818499960005283,-0.000337773934006691,0.0016139454673975706
1772618053820711400,4.26271142578125,-0.0007352312095463276,-0.0009596222080290318,-0.000756001565605402
1772618053830744300,4.272744384765625,-0.0019284673035144806,0.00025387201458215714,-0.0027629020623862743
1772618053840776400,4.2827763671875,-0.0015686741098761559,-0.00130807189270854,0.001168456394225359
1772618053850808300,4.292808349609375,0.001210791990160942,0.0014889100566506386,0.0015419360715895891
1772618053860841200,4.30284130859375,0.0012065309565514326,-0.0012807776220142841,0.0011509840842336416
1772618053870873300,4.312873291015625,-0.0020615379326045513,0.0012802272103726864,-0.003554239869117737
1772618053880906200,4.32290625,0.0010354523546993732,-0.0005826535634696484,-0.001049803220666945
1772618053890938400,4.3329384765625,-0.0007386449724435806,0.0009586550295352936,-0.00012244400568306446
1772618053900970200,4.34297021484375,0.0023562144488096237,0.0005455994978547096,0.0015396347735077143
1772618053911003400,4.35300341796875,-0.0002746758982539177,-0.0000075069256126880646,-0.0022873645648360252
1772618053921035300,4.36303515625,-0.00005975877866148949,-0.0016610636375844479,-0.0004178255330771208
1772618053931068400,4.373068359375,-0.00036714039742946625,0.0013596410863101482,-0.00016654847422614694
1772618053941100300,4.383100341796875,0.0041671572253108025,-0.00034771161153912544,0.002707534935325384
1772618053951132400,4.39313232421875,-0.0000965287908911705,-0.0008379081264138222,-0.0006014470709487796
1772618053961165300,4.403165283203125,-0.001796957105398178,0.0006521302275359631,-0.0013679048279300332
1772618053971197400,4.413197509765625,0.00011258386075496674,0.0005491957999765873,-0.0020852789748460054
1772618053981230300,4.423230224609375,-0.0021476405672729015,0.001143879722803831,-0.0004564897099044174
1772618053991262500,4.433262451171875,-0.001515628769993782,-0.002294657751917839,-0.0021592730190604925
1772618054001294300,4.44329443359375,-0.0002721985802054405,0.0004103151150047779,0.0012732753530144691
1772618054011327200,4.4533271484375,0.0021003701258450747,0.0007096258923411369,0.00037256762152537704
1772618054021359400,4.463359375,0.000819389708340168,0.0012534428387880325,-0.0012959027662873268
1772618054031392300,4.473392333984375,-0.0011414038017392159,0.0008509522303938866,0.0022433879785239697
1772618054041424400,4.48342431640625,-0.0017917472869157791,0.0010978272184729576,0.0002910246839746833
1772618054051456500,4.49345654296875,0.0022354924585670233,-0.0007899566553533077,0.0007246269378811121
1772618054061489400,4.503489501953125,0.0023904885165393353,-0.0018624113872647285,0.0016364933690056205
1772618054071521300,4.513521240234375,-0.0006350921466946602,0.002541564404964447,-0.0032631545327603817
1772618054081554400,4.523554443359375,0.00016492139548063278,0.0025879032909870148,-0.000052181072533130646
1772618054091586300,4.53358642578125,-0.00030891643837094307,-0.001489349640905857,0.0008341364446096122
1772618054101618200,4.5436181640625,-0.00010225502774119377,0.0021445336751639843,0.0014996605459600687
1772618054111651300,4.5536513671875,-0.0005294936709105968,0.0008198367431759834,-0.00038455601315945387
1772618054121683500,4.563683349609375,0.00021778931841254234,-0.00010933959856629372,-0.0018407724564895034
1772618054131716400,4.57371630859375,-0.0007622274570167065,0.0006508482620120049,-0.0033834981732070446
1772618054141748500,4.58374853515625,-0.0003265347331762314,-0.00021680910140275955,-0.0009565594955347478
1772618054151780400,4.5937802734375,-0.0011425921693444252,-0.001203903928399086,0.0004847925156354904
1772618054161813200,4.603813232421875,-0.0011351355351507664,0.0010637780651450157,0.0009316708892583847
1772618054171845400,4.613845458984375,0.0008674152195453644,-0.0007017129100859165,-0.002553084399551153
1772618054181878300,4.623878173828125,-0.0012814896181225777,-0.001823702361434698,-0.002266528084874153
1772618054191910100,4.63391015625,-0.0018603024072945118,-0.0003649182617664337,0.00033251248532906175
1772618054201942500,4.643942626953125,0.0018201861530542374,-0.0016102120280265808,0.002951198723167181
1772618054211975400,4.653975341796875,0.0014549116604030132,0.00015351036563515663,0.0020470796152949333
1772618054222007300,4.66400732421875,-0.0011318167671561241,0.00048347609117627144,0.0012036567786708474
1772618054232040400,4.67404052734375,-0.0005551641806960106,0.0014052670449018478,-0.00015072221867740154
1772618054242072300,4.684072265625,0.0012877429835498333,0.0004321485757827759,0.002187000587582588
1772618054252104200,4.694104248046875,-0.0012537715956568718,-0.0032201814465224743,0.0013583670370280743
1772618054262137300,4.704137451171875,0.0028951673302799463,0.0013484712690114975,-0.0012840214185416698
1772618054272169500,4.71416943359375,0.00023138662800192833,-0.0009167511016130447,0.0003412251244299114
1772618054282202400,4.724202392578125,-0.0020320340991020203,-0.001594791654497385,-0.0011576018296182156
1772618054292234500,4.734234375,-0.0006385426968336105,0.00009382562711834908,0.001032570842653513
1772618054302266400,4.744266357421875,0.0011513680219650269,-0.0004590465687215328,-0.00241648918017745
1772618054312299300,4.75429931640625,-0.0005306564271450043,-0.0001648375764489174,0.002381569007411599
1772618054322331400,4.764331298828125,-0.0015258798375725746,-0.0007704403251409531,0.0008625019690953195
1772618054332364300,4.7743642578125,-0.0020457208156585693,-0.0022279145196080208,0.0016687866300344467
1772618054342396200,4.784396240234375,-0.0013959095813333988,-0.0008342824876308441,0.00017794896848499775
1772618054352428500,4.794428466796875,0.0005493359640240669,-0.00015902332961559296,0.0025650805328041315
1772618054362461400,4.80446142578125,-0.0017335256561636925,0.0001011677086353302,0.0003711683675646782
1772618054372493300,4.814493408203125,-0.0013339458964765072,-0.0019526127725839615,-0.0022903955541551113
1772618054382526500,4.8245263671875,0.0001118839718401432,-0.0007211673073470592,0.0006835561944171786
1772618054392558300,4.834558349609375,0.0031380897853523493,0.00035645533353090286,-0.001164322136901319
1772618054402590200,4.844590087890625,0.0010440461337566376,0.0022379783913493156,-0.00039706542156636715
1772618054412623400,4.854623291015625,0.0009187813848257065,-0.0014111492782831192,-0.001291320426389575
1772618054422655200,4.8646552734375,-0.0002061375416815281,0.002978272270411253,-0.0010018348693847656
1772618054432688000,4.874688232421875,-0.0003124931827187538,0.0006494214758276939,-0.0011699860915541649
1772618054442720500,4.884720458984375,-0.002851550467312336,-0.0003426061011850834,-0.00145308009814471
1772618054452752400,4.89475244140625,0.0019202593248337507,0.00001676846295595169,0.0010198659729212523
1772618054462785300,4.904785400390625,0.0013647237792611122,-0.0006386353634297848,0.001632126746699214
1772618054472817400,4.9148173828125,-0.0005456553772091866,0.0021117208525538445,-0.0005033608758822083
1772618054482850300,4.924850341796875,-0.0014825551770627499,0.0006182203069329262,-0.0009683488169685006
1772618054492882200,4.934882080078125,0.0013746130280196667,0.0008994755335152149,0.0004238838446326554
1772618054502914300,4.944914306640625,0.0017384006641805172,-0.0014507644809782505,-0.00038651609793305397
1772618054512947200,4.954947265625,-0.00017776666209101677,-0.00024255458265542984,0.0032494536135345697
1772618054522979300,4.964979248046875,-0.001187371090054512,-0.001281453762203455,0.0012552784755825996
1772618054533012500,4.975012451171875,0.0002832198515534401,0.0013926518149673939,0.0014194168616086245
1772618054543044400,4.98504443359375,0.0005948096513748169,-0.0006838142871856689,-0.00011509651085361838
1772618054553076200,4.995076171875,0.001118829008191824,-0.0007643685676157475,-0.0021353019401431084
1772618054563109400,5.005109375,-0.0006340635009109974,0.00018691224977374077,5.533220246434212e-7
1772618054573141200,5.015141357421875,0.0007198355160653591,-0.0002197418361902237,-0.00003793800715357065
1772618054583174100,5.025174072265625,-0.001405633520334959,-0.0020879493094980717,-0.0018235875759273767
1772618054593206500,5.03520654296875,0.0009269434958696365,0.00004340521991252899,0.00045109866186976433
1772618054603238400,5.04523828125,0.0015607760287821293,-0.001021592877805233,0.0012457858538255095
1772618054613271000,5.05527099609375,0.0009942594915628433,-0.0002050544135272503,-0.00040722679113969207
1772618054623303000,5.065302978515625,0.0008043758571147919,0.0017995070666074753,0.0011549834161996841
1772618054633335800,5.075335693359375,-0.00007304875180125237,0.0011808141134679317,0.0037695460487157106
1772618054643368000,5.085367919921875,-0.000018187332898378372,-0.002284224610775709,-0.0005575580871663988
1772618054653400000,5.095400146484375,0.0006783627904951572,0.0013118665665388107,-0.0033314882311969995
1772618054663433000,5.105432861328125,0.0004549236036837101,-0.001743844710290432,0.0006810965132899582
1772618054673465000,5.115465087890625,-0.0005268021486699581,-0.0007550357840955257,-0.00009136565495282412
1772618054683498000,5.125498046875,0.0032887086272239685,-0.0005704783834517002,-0.002344932407140732
1772618054693529900,5.13552978515625,-0.0013625971041619778,-0.00033758487552404404,-0.0006532130646519363
1772618054703562000,5.14556201171875,-0.0004691062495112419,0.00147709297016263,-0.0007698595291003585
1772618054713595000,5.155594970703125,0.0015211945865303278,-0.0015519224107265472,-0.0008882057154551148
1772618054723626800,5.165626708984375,0.0013539479114115238,-0.001872566994279623,-0.002548686694353819
1772618054733660000,5.175659912109375,-0.002450297586619854,-0.0015606563538312912,-0.004475830122828484
1772618054743692000,5.185692138671875,0.0000858306884765625,-0.00040937215089797974,-0.00020065734861418605
1772618054753724000,5.195723876953125,-0.0014384128153324127,-0.0002685864455997944,0.0005289043765515089
1772618054763757000,5.205757080078125,0.001024478580802679,-0.0015785954892635345,-0.003153714817017317
1772618054773789000,5.215788818359375,-0.0007721795700490475,-0.001348976045846939,-0.000040381914004683495
1772618054783821800,5.22582177734375,0.00012796884402632713,0.000003643333911895752,-0.0019176441710442305
1772618054793854000,5.23585400390625,-0.0006438717246055603,-0.0020829238928854465,-0.000781810435000807
1772618054803885800,5.2458857421875,0.0020381975919008255,-0.0035742942709475756,0.0007007713429629803
1772618054813918700,5.255918701171875,0.001969629433006048,0.0009153787977993488,0.002533121034502983
1772618054823951000,5.265951171875,0.0025509975384920835,-0.0016742791049182415,-0.0019015750149264932
1772618054833984000,5.27598388671875,0.0009655486792325974,0.00022054743021726608,0.00017739390023052692
1772618054844015900,5.286015869140625,-0.0007111774757504463,-0.0011376645416021347,0.0006929818773642182
1772618054854048000,5.296048095703125,0.0003976356238126755,-0.0010435818694531918,0.0017289869720116258
1772618054864081000,5.306080810546875,0.0011814041063189507,-0.000015601515769958496,0.00278732692822814
1772618054874112800,5.31611279296875,0.0008683190681040287,-0.00012164190411567688,0.0007315678521990776
1772618054884146000,5.32614599609375,0.00014101015403866768,0.0006919540464878082,-0.0024463823065161705
1772618054894177800,5.336177734375,-0.0012625069357454777,0.00045896274968981743,0.0013331212103366852
1772618054904210000,5.3462099609375,0.00005655689164996147,0.002333561424165964,0.0007578784134238958
1772618054914243000,5.3562431640625,0.00009856652468442917,-0.00020647142082452774,-0.0014298900496214628
1772618054924275000,5.36627490234375,-0.001711317803710699,-0.0028600450605154037,0.002157654147595167
1772618054934307800,5.376307861328125,-0.0007640458643436432,0.0017246147617697716,0.0024115315172821283
1772618054944340000,5.386340087890625,0.0013028336688876152,0.0012660184875130653,-0.0016463270876556635
1772618054954371800,5.396371826171875,-0.001504985149949789,0.002220598980784416,-0.00041211757343262434
1772618054964404700,5.40640478515625,0.0003855926916003227,0.0005353502929210663,-0.0000222307862713933
1772618054974437000,5.41643701171875,0.0001544114202260971,-0.001047179102897644,0.00008644734043627977
1772618054984470000,5.426469970703125,-0.002479721326380968,-0.0008751386776566505,-0.0021319659426808357
1772618054994502000,5.436501953125,0.001156727783381939,-0.00035401154309511185,0.0007659437251277268
1772618055004534000,5.446533935546875,0.0005601798184216022,0.001585568767040968,-0.0015757738146930933
1772618055014567000,5.45656689453125,0.0014495847281068563,0.0024139168672263622,-0.0009300676756538451
1772618055024598800,5.466598876953125,0.0009430511854588985,0.000747311394661665,0.00023373373551294208
1772618055034632000,5.4766318359375,-0.0004916577599942684,-0.002569042146205902,-0.00022165605332702398
1772618055044663800,5.486663818359375,0.000930469948798418,-0.0000733938068151474,-0.0005079458351247013
1772618055054697000,5.496697021484375,0.0014996207319200039,-0.0009814072400331497,0.002677688840776682
1772618055064729000,5.50672900390625,-0.0014943047426640987,-0.00010123243555426598,-0.00032023160019889474
1772618055074761000,5.516760986328125,0.0004906905815005302,0.00160883367061615,-0.001672654878348112
1772618055084793900,5.5267939453125,0.0006874981336295605,0.000021323561668395996,0.0006221909425221384
1772618055094826000,5.536825927734375,-0.001821551937609911,-0.0003169625997543335,-0.0018759466474875808
1772618055104859000,5.54685888671875,0.00007355352863669395,-0.0013987384736537933,0.00012275570770725608
1772618055114890800,5.556890869140625,0.0028549442067742348,-0.00011617643758654594,-0.00020160770509392023
1772618055124923000,5.5669228515625,-0.000673211645334959,0.00029288511723279953,0.001226911903358996
1772618055134955800,5.576955810546875,-0.0005540386773645878,-0.0011101756244897842,0.000750895356759429
1772618055144988000,5.58698779296875,-0.0002586944028735161,-0.0015085847117006779,0.00002305337693542242
1772618055155021000,5.59702099609375,-0.0004594107158482075,0.0005950145423412323,-0.0040072109550237656
1772618055165053000,5.607052978515625,0.0019893660210072994,0.000006988644599914551,-0.00044523293036036193
1772618055175084800,5.617084716796875,0.0001257834956049919,-0.00044658826664090157,-0.00024054577806964517
1772618055185118000,5.627117919921875,-0.00009499257430434227,0.0003494303673505783,0.0001402862835675478
1772618055195149800,5.63714990234375,0.0011764648370444775,0.0010427669622004032,0.0004690309287980199
1772618055205183000,5.647182861328125,0.000995902344584465,-0.0011764448136091232,-0.0005815861513838172
1772618055215214800,5.65721484375,-0.00008040294051170349,0.00103404326364398,0.0007660085102543235
1772618055225247700,5.667247802734375,0.00028604781255126,-0.0004794308915734291,0.001109023578464985
1772618055235280100,5.677280029296875,-0.0002494477666914463,-0.00028920406475663185,0.0018442145083099604
1772618055245312000,5.68731201171875,0.0012579013127833605,0.001618418376892805,0.0011097148526459932
1772618055255345000,5.697344970703125,-0.00011831335723400116,0.0021492373198270798,0.0037861354649066925
1772618055265376800,5.707376708984375,-0.001493037212640047,-0.0018127472139894962,0.0012028692290186882
1772618055275410000,5.717409912109375,-0.0010900944471359253,0.0015209210105240345,-0.0014080251567065716
1772618055285441800,5.72744189453125,-0.001948164775967598,0.0024224002845585346,-0.0012746008578687906
1772618055295474000,5.737473876953125,-0.0004904563538730145,-0.0013720421120524406,-0.001233767718076706
1772618055305507000,5.747507080078125,0.0008909250609576702,-0.0017060027457773685,-0.001760274637490511
1772618055315539000,5.7575390625,-0.0009754789061844349,0.00029434170573949814,-0.001182237290777266
1772618055325572000,5.767572021484375,0.0002024373970925808,0.0006378889083862305,-0.0007734420942142606
1772618055335604000,5.77760400390625,-0.0008989633060991764,0.0004846518859267235,-0.0064948867075145245
1772618055345635800,5.7876357421875,-0.0015216106548905373,-0.0011481321416795254,-0.00385915650986135
1772618055355669000,5.7976689453125,0.00018190592527389526,-0.00018832599744200706,-0.0007146851858124137
1772618055365700900,5.807700927734375,0.0001110658049583435,-0.0013899439945816994,-0.0019378750585019588
1772618055375733800,5.817733642578125,-0.002097079996019602,-0.0028356793336570263,-0.002214586129412055
1772618055385766100,5.82776611328125,-0.0016358206048607826,0.001963071059435606,0.001875496469438076
1772618055395798000,5.837798095703125,0.00007267715409398079,-0.0012430697679519653,0.0009564873180352151
1772618055405831000,5.847830810546875,-0.0018623755313456059,-0.0024420246481895447,0.0012901814188808203
1772618055415863000,5.857863037109375,-0.0009408271871507168,-0.000024312175810337067,0.00226277532055974
1772618055425896000,5.86789599609375,0.0007854336872696877,0.0016454895958304405,0.00041853636503219604
1772618055435927800,5.877927734375,0.001813687151297927,-0.003047038335353136,0.0006996566080488265
1772618055445959700,5.887959716796875,0.0013212687335908413,0.0016816705465316772,0.0010120454244315624
1772618055455992800,5.897992919921875,0.0012689416762441397,0.0007855826988816261,0.0044553764164447784
1772618055466025000,5.90802490234375,0.0017296685837209225,-0.00019392790272831917,0.0013514624442905188
1772618055476058000,5.91805810546875,-0.000196823850274086,-0.0012287148274481297,0.0007324328180402517
1772618055486090000,5.928090087890625,-0.0027071190997958183,0.00038223154842853546,0.00028875016141682863
1772618055496121900,5.938121826171875,0.00037379609420895576,0.003762179985642433,-0.00018528365762904286
1772618055506155000,5.948155029296875,0.0026484020054340363,-0.0021582930348813534,-0.002458291593939066
1772618055516187000,5.958186767578125,-0.0004653856158256531,-0.0010292697697877884,-0.00356730236671865
1772618055526219800,5.9682197265625,-0.0008070692420005798,-0.0007951776497066021,0.0008546102908439934
1772618055536252000,5.978251953125,0.0005121459253132343,-0.001668230164796114,0.00041993637569248676
1772618055546284800,5.988284912109375,0.0022951322607696056,-0.00304428581148386,0.001217819401063025
1772618055556317000,5.99831689453125,-0.0007161884568631649,0.0015905951149761677,0.002090614754706621
1772618055566349000,6.00834912109375,-0.0008341665379703045,0.00005475012585520744,-0.0007547064451500773
1772618055576382000,6.0183818359375,0.0005294880829751492,0.0009555104188621044,-0.00004440330667421222
1772618055586413800,6.028413818359375,-0.0004899702034890652,-0.00017952872440218925,-0.0011424246476963162
1772618055596447000,6.038447021484375,0.001687589567154646,-0.0002284492366015911,0.00047758378786966205
1772618055606478300,6.048478271484375,0.0020702858455479145,-0.0025153057649731636,-0.00007022841600701213
1772618055616510700,6.0585107421875,-0.00028844084590673447,0.00008236663416028023,-0.00014477514196187258
1772618055626543600,6.068543701171875,-0.0004980312660336494,0.000716465525329113,-0.001348257646895945
1772618055636575500,6.078575439453125,-0.0008060680702328682,-0.0015191584825515747,-0.0007319857832044363
1772618055646608600,6.088608642578125,0.0007974212057888508,-0.002432888839393854,-0.0010044272057712078
1772618055656640500,6.098640625,-0.001715752761811018,-0.0007076091133058071,0.0005282978527247906
1772618055666672400,6.10867236328125,-0.0005327765829861164,-0.002879150677472353,0.00021857221145182848
1772618055676705500,6.11870556640625,0.0002150856889784336,-0.0023044561967253685,8.064671419560909e-7
1772618055686737700,6.128737548828125,0.0006494470871984959,-0.00020322203636169434,0.0004926923429593444
1772618055696770300,6.138770263671875,0.0007555009797215462,0.00028495024889707565,-0.00240945047698915
1772618055706802700,6.148802734375,0.0006439140997827053,0.0017454284243285656,0.0005871383473277092
1772618055716835600,6.158835693359375,0.0021544871851801872,0.002656138502061367,-0.000522777670994401
1772618055726867500,6.168867431640625,-0.004097283352166414,0.0011426638811826706,-0.0017694034613668919
1772618055736899600,6.178899658203125,0.0006311573088169098,0.0014384263195097446,0.0006289892480708659
1772618055746932500,6.188932373046875,0.002258082153275609,-0.0004931646399199963,-0.0014509395696222782
1772618055756964400,6.19896435546875,-0.0006398586556315422,-0.0006896005943417549,-0.0020941586699336767
1772618055766997500,6.20899755859375,0.001701326109468937,0.0009152204729616642,0.0018726198468357325
1772618055777029600,6.219029541015625,0.00016281474381685257,0.001135118305683136,-0.0021355925127863884
1772618055787061500,6.2290615234375,-0.0006819400005042553,0.00008423486724495888,-0.0015065537299960852
1772618055797094700,6.2390947265625,-0.0006873123347759247,-0.001279957126826048,0.0001314000110141933
1772618055807126500,6.24912646484375,0.0007787579670548439,-0.0003451872617006302,-0.0018340128008276224
1772618055817159700,6.25915966796875,0.0003203912638127804,0.00027550244703888893,-0.0006166272796690464
1772618055827191600,6.269191650390625,0.0025252222549170256,-0.00011624861508607864,-0.00009544665226712823
1772618055837223400,6.279223388671875,-0.0015799086540937424,-0.0004693693481385708,-0.00006256229244172573
1772618055847256600,6.289256591796875,-0.00034180469810962677,-0.00034366827458143234,-0.00011715712025761604
1772618055857288700,6.299288818359375,-0.0016179890371859074,-0.0009014047682285309,-0.00040003249887377024
1772618055867321600,6.309321533203125,-0.0013913540169596672,0.0014333883300423622,-0.002330557908862829
1772618055877353500,6.319353515625,0.0009627812542021275,-0.00016495026648044586,-0.0012255185283720493
1772618055887385600,6.329385498046875,0.0008796905167400837,-0.0024659214541316032,0.002289055148139596
1772618055897418500,6.33941845703125,-0.002034542616456747,-0.00022568367421627045,-0.003330778330564499
1772618055907450400,6.349450439453125,-0.0016475855372846127,-0.001363385934382677,-0.001108370372094214
1772618055917483500,6.3594833984375,0.0015321963001042604,0.0008776704780757427,-0.0018015755340456963
1772618055927515400,6.369515380859375,-0.0025251293554902077,-0.000872559379786253,0.0012107258662581444
1772618055937548500,6.379548583984375,-0.0025175409391522408,0.0009641256183385849,-0.0018482902087271214
1772618055947580700,6.38958056640625,-0.00019526435062289238,0.000670112669467926,-0.0002714325673878193
1772618055957612500,6.399612548828125,-0.001241522841155529,0.0005161655135452747,-0.0005601656739600003
1772618055967645700,6.409645751953125,0.0005859383381903172,-0.000899038277566433,-0.0013937350595369935
1772618055977677600,6.419677490234375,-0.001861948985606432,-0.00021625356748700142,0.00229774066247046
1772618055987710500,6.42971044921875,0.0022989739663898945,0.00009533623233437538,0.0027392928022891283
1772618055997742600,6.43974267578125,-0.0014530098997056484,0.0010609296150505543,-0.0013692392967641354
1772618056007774500,6.4497744140625,-0.0023558218963444233,0.0001663733273744583,-0.0009404704323969781
1772618056017807400,6.459807373046875,-0.0025318115949630737,0.0003349645994603634,0.0006063450709916651
1772618056027839700,6.46983984375,-0.0023496514186263084,-0.00010312534868717194,0.00036692683352157474
1772618056037872600,6.47987255859375,0.0014970728661864996,-0.001396829728037119,-0.004568722099065781
1772618056047904500,6.489904541015625,0.001391611760482192,-0.0015342491678893566,-0.002064018975943327
1772618056057936400,6.499936279296875,0.0001572449691593647,0.0002794647589325905,0.0010026369709521532
1772618056067969500,6.509969482421875,0.00038281502202153206,0.0024097273126244545,-0.0006929977098479867
1772618056078001400,6.52000146484375,-0.0005767033435404301,-0.00049233203753829,0.0026852255687117577
1772618056088034600,6.53003466796875,0.0005476833321154118,0.002473364118486643,0.0026575285010039806
1772618056098066700,6.540066650390625,0.0007249154150485992,0.0008559827692806721,-0.0012091682292521
1772618056108099600,6.550099609375,-0.0015552830882370472,-0.0004023602232336998,0.0025679932441562414
1772618056118131700,6.560131591796875,-0.0007782368920743465,0.0010234583169221878,-0.00042811493040062487
1772618056128163600,6.57016357421875,0.0007749190554022789,0.0007704580202698708,-0.0022790119983255863
1772618056138196500,6.580196533203125,-0.0010677985846996307,-0.0020398558117449284,0.0005823642131872475
1772618056148228600,6.590228515625,0.0007530045695602894,0.0007798993028700352,-0.0011015525087714195
1772618056158261500,6.600261474609375,0.0002939356490969658,0.000609744805842638,0.00026781874476000667
1772618056168293400,6.61029345703125,0.0011163197923451662,0.00012957723811268806,-0.0020957367960363626
1772618056178325800,6.62032568359375,-0.0008847559802234173,0.0006668302230536938,-0.003001311793923378
1772618056188358700,6.630358642578125,-0.0009675798937678337,0.0010862774215638638,0.0005819714860990644
1772618056198390500,6.640390625,-0.0008959099650382996,0.00004018889740109444,0.00017276202561333776
1772618056208423700,6.650423583984375,0.0007605762220919132,0.0006519164890050888,-0.0015114210546016693
1772618056218455600,6.66045556640625,0.001513550989329815,-0.0008907383307814598,-0.0006979404715821147
1772618056228487400,6.6704873046875,0.0022267454769462347,0.00025255652144551277,-0.00021617463789880276
1772618056238520600,6.6805205078125,-0.0010044090449810028,-0.000685099046677351,-0.00044530851300805807
1772618056248552400,6.690552490234375,-0.0007245107553899288,0.0002443441189825535,-0.000852772151120007
1772618056258585300,6.70058544921875,0.0009482651948928833,-0.0001311255618929863,0.0018604127690196037
1772618056268617700,6.71061767578125,0.0008510597981512547,-0.0010552424937486649,-0.00105388427618891
1772618056278649600,6.720649658203125,0.0010245819576084614,-0.002445882186293602,0.0015339978272095323
1772618056288682500,6.7306826171875,-0.0003243088722229004,0.0006716139614582062,-0.00040052240365184844
1772618056298714600,6.740714599609375,0.0005176234990358353,-0.0008575883693993092,-0.0011557035613805056
1772618056308747500,6.75074755859375,0.00015729758888483047,0.001316616777330637,-0.001832146430388093
1772618056318779400,6.760779296875,0.0008352622389793396,0.00033288029953837395,0.0007075894391164184
1772618056328812500,6.7708125,-0.00012773694470524788,-0.001296974252909422,-0.00014089368050917983
1772618056338844400,6.780844482421875,-0.0009687691926956177,0.0006237407214939594,0.000896312587428838
1772618056348876500,6.79087646484375,0.0001244582235813141,-0.0030809822492301464,-0.0010054507292807102
1772618056358909700,6.80090966796875,-0.0001518051140010357,0.0012296894565224648,-0.0013366370694711804
1772618056368941600,6.810941650390625,0.001308139879256487,-0.00004782853648066521,0.0006258463254198432
1772618056378974500,6.820974365234375,-0.00034170225262641907,0.0003231978043913841,0.0006394376396201551
1772618056389006600,6.831006591796875,0.00017681531608104706,-0.0009934687986969948,0.0021537109278142452
1772618056399038500,6.84103857421875,0.0006176014430820942,0.00023470120504498482,-0.001142918481491506
1772618056409071400,6.8510712890625,0.0015148203819990158,-0.001196215394884348,-0.0015429253689944744
1772618056419103700,6.861103759765625,-0.0032667769119143486,-0.0023168260231614113,0.0012532214168459177
1772618056429136600,6.87113671875,-0.0011610151268541813,0.002483255695551634,-0.0012560089817270637
1772618056439168500,6.88116845703125,0.0006523188203573227,-0.00021467870101332664,-0.00009352399501949549
1772618056449200600,6.89120068359375,-0.0004584859125316143,-0.0004996368661522865,0.000532851496245712
1772618056459233500,6.901233642578125,0.0005932017229497433,0.0006949706003069878,0.00017184147145599127
1772618056469265400,6.911265380859375,-0.002269430086016655,-0.0021956241689622402,-0.00121273600962013
1772618056479298600,6.921298583984375,-0.00006904033944010735,0.0005408665165305138,0.0012372309574857354
1772618056489330400,6.931330322265625,-0.0008717169985175133,0.001364582683891058,0.0025823935866355896
1772618056499363600,6.941363525390625,-0.0009880512952804565,-0.0002475176006555557,0.0009602674399502575
1772618056509395700,6.951395751953125,0.0022002849727869034,-0.0005439273081719875,-0.00012790015898644924
1772618056519427600,6.961427490234375,-0.0012148618698120117,0.00029793381690979004,-0.0008469843305647373
1772618056529460500,6.97146044921875,-0.001896364614367485,0.0009946171194314957,0.00044358347076922655
1772618056539492600,6.98149267578125,0.0014831910375505686,0.0007103779353201389,-0.0005126675823703408
1772618056549525500,6.991525390625,-0.0003317529335618019,-0.0012619593180716038,0.0015970886452123523
1772618056559557400,7.001557373046875,0.00033350754529237747,-0.0013352446258068085,0.003763458225876093
1772618056569589500,7.011589599609375,0.00030288146808743477,0.00045493198558688164,-0.00015698111383244395
1772618056579622400,7.021622314453125,0.000501386821269989,-0.000889764167368412,0.0008111579809337854
1772618056589654500,7.031654541015625,0.00020657479763031006,-0.0009638001210987568,-0.00022880645701661706
1772618056599687700,7.041687744140625,-0.0009720246307551861,0.0029798950999975204,0.0006345913861878216
1772618056609720300,7.05172021484375,0.000842120498418808,0.00008903350681066513,0.00022712774807587266
1772618056619753500,7.06175341796875,0.0017701706383377314,-0.00008167186751961708,0.0007136971107684076
1772618056629785300,7.071785400390625,-0.0010756831616163254,0.0011220765300095081,-0.003099683206528425
1772618056639817200,7.081817138671875,-0.0015126848593354225,0.0024413098581135273,0.001863376353867352
1772618056649850400,7.091850341796875,-0.00012437906116247177,-0.0011976333335042,0.0006806666497141123
1772618056659882200,7.10188232421875,0.0007684077136218548,-0.0029324637725949287,0.0004032418946735561
1772618056669915400,7.111915283203125,0.0006259283982217312,-0.0010285698808729649,0.0015404114965349436
1772618056679947300,7.121947265625,0.0027046373579651117,-0.00002641882747411728,-0.000861433451063931
1772618056689979400,7.1319794921875,-0.0010821116156876087,0.0012766658328473568,-0.0004742098681163043
1772618056700012500,7.142012451171875,0.00005429703742265701,0.0005751266144216061,0.0005795409670099616
1772618056710044400,7.15204443359375,-0.0006469134241342545,0.0007714014500379562,0.0013547871494665742
1772618056720077300,7.162077392578125,0.0001943684183061123,-0.0019024941138923168,0.0004737110575661063
1772618056730109400,7.172109375,-0.0008879401721060276,-0.001060402486473322,0.0016516272444278002
1772618056740142300,7.182142333984375,-0.0017746076919138432,-0.0016155806370079517,-0.001230483641847968
1772618056750174200,7.19217431640625,0.0008856239728629589,0.0016462593339383602,0.001563172205351293
1772618056760206300,7.202206298828125,0.0006913784891366959,0.0014239568263292313,-0.0027703391388058662
1772618056770239200,7.2122392578125,-0.0018271729350090027,-0.0012786192819476128,-0.0018523475155234337
1772618056780271400,7.222271240234375,0.0003034733235836029,0.0007573636248707771,-0.0024151101242750883
1772618056790304500,7.232304443359375,0.0014702039770781994,-0.0009598424658179283,0.001403063884936273
1772618056800336400,7.24233642578125,-0.0007778266444802284,-0.0006678258068859577,0.0005159551510587335
1772618056810368300,7.2523681640625,-0.0005453326739370823,-0.001406586728990078,0.0010222219862043858
1772618056820401400,7.2624013671875,0.000902087427675724,-0.0015752180479466915,0.001441797474399209
1772618056830433300,7.272433349609375,0.0009098108857870102,0.0017611896619200706,-0.0008708915556780994
1772618056840466200,7.282466064453125,-0.0003962782211601734,0.0012350748293101788,-0.0011456793872639537
1772618056850498600,7.29249853515625,-0.0005856286734342575,-0.0023010708391666412,0.0002604696783237159
1772618056860530400,7.302530517578125,-0.0007506976835429668,-0.000011087395250797272,0.0013877088204026222
1772618056870563300,7.312563232421875,-0.0013437839224934578,-0.001396730076521635,-0.0014112736098468304
1772618056880595500,7.322595458984375,-0.0006838268600404263,0.00254945270717144,-0.0013104628305882215
1772618056890628400,7.33262841796875,-0.0016628047451376915,-0.0004977360367774963,-0.0016116664046421647
1772618056900660200,7.34266015625,0.0007050381973385811,0.0015899320133030415,0.00035581912379711866
1772618056910693400,7.352693359375,-0.0012257536873221397,0.00043119071051478386,-0.0006359420367516577
1772618056920725200,7.362725341796875,-0.0006226212717592716,-0.002117541618645191,0.0009730986785143614
1772618056930757400,7.37275732421875,0.00003997329622507095,-0.0011452212929725647,-0.00008337729377672076
1772618056940790500,7.38279052734375,-0.0019235117360949516,0.0013145874254405499,-0.0009494318510405719
1772618056950822400,7.392822509765625,0.00029490143060684204,0.00036144210025668144,-0.0006935020792298019
1772618056960855300,7.402855224609375,0.001504723448306322,-0.0003203684464097023,-0.00020134582882747054
1772618056970887400,7.412887451171875,-0.0017829490825533867,-0.000895877368748188,-0.0011321206111460924
1772618056980919300,7.422919189453125,0.000773369800299406,-0.0028177928179502487,0.0012621856294572353
1772618056990952200,7.4329521484375,0.0006988015957176685,0.0002096886746585369,0.002794568659737706
1772618057000984300,7.442984375,-0.0006861393339931965,0.0021418649703264236,0.0003685560659505427
1772618057011017200,7.453017333984375,-0.0015479382127523422,-0.00138416001573205,-0.0005840566009283066
1772618057021049300,7.46304931640625,0.00177120347507298,-0.00031981244683265686,-0.0008330412674695253
1772618057031082500,7.47308251953125,-0.0008216500282287598,-0.0005126255564391613,0.002306559355929494
1772618057041114400,7.4831142578125,-0.0013086148537695408,0.0021076477132737637,0.00142773671541363
1772618057051146200,7.493146240234375,-0.0018327250145375729,0.0011619594879448414,-0.0006764267454855144
1772618057061179400,7.503179443359375,0.0002315831370651722,-0.00041700154542922974,0.0033153884578496218
1772618057071211300,7.513211181640625,-0.0015647192485630512,-0.002952330745756626,0.0031353586819022894
1772618057081244200,7.523244140625,-0.0015789233148097992,0.0005984995514154434,-0.002558506093919277
1772618057091276300,7.5332763671875,0.001037099864333868,0.00017239386215806007,0.0004751006490550935
1772618057101308400,7.543308349609375,-0.00022437609732151031,0.001003209501504898,-0.00012352439807727933
1772618057111341300,7.55334130859375,-0.0004432881250977516,0.002896716818213463,0.00018407072639092803
1772618057121373400,7.56337353515625,-0.0002612764947116375,0.0020773373544216156,0.0007266885950230062
1772618057131406300,7.57340625,0.0008673709817230701,-0.002333656419068575,0.001574905589222908
1772618057141438200,7.583438232421875,0.0009180488996207714,0.002132778987288475,-0.00016859627794474363
1772618057151471400,7.593471435546875,0.0023183387238532305,-0.0006230599246919155,0.0005853446200489998
1772618057161503200,7.603503173828125,0.002795842243358493,-0.0008327821269631386,0.001034663524478674
1772618057171535400,7.613535400390625,-0.000550419557839632,0.00010731397196650505,-0.0006026478949934244
1772618057181568500,7.623568603515625,-0.0028335880488157272,0.0012001050636172295,0.0009805642766878009
1772618057191600400,7.633600341796875,-0.000756322406232357,0.0012144865468144417,0.0006010638317093253
1772618057201633500,7.643633544921875,0.001126761082559824,-0.0010221279226243496,0.0021031892392784357
1772618057211665400,7.65366552734375,-0.0011891238391399384,0.0012239827774465084,-0.00007447769166901708
1772618057221697300,7.663697265625,0.0004148692823946476,0.00007761921733617783,0.0014823989477008581
1772618057231730200,7.673730224609375,0.0006534885615110397,-0.001268608495593071,-0.0005285539664328098
1772618057241762300,7.68376220703125,-0.0028615626506507397,-0.0003232867456972599,0.0007562539540231228
1772618057251795200,7.693795166015625,-0.0005257045850157738,-0.0012868186458945274,-0.0016765437321737409
1772618057261827300,7.703827392578125,0.001165221445262432,-0.0001522144302725792,-0.0008634731639176607
1772618057271860500,7.713860595703125,0.0011441824026405811,-0.00018843356519937515,0.002057215664535761
1772618057281892400,7.723892333984375,-0.0009321779944002628,0.0008690264075994492,-0.00024237623438239098
1772618057291924200,7.73392431640625,0.0014175288379192352,-0.0012718886137008667,0.0014766943641006947
1772618057301957400,7.743957275390625,-0.0033565815538167953,0.00013448717072606087,-0.0014718028251081705
1772618057311989200,7.7539892578125,-0.00012350408360362053,0.00035845907405018806,0.0011282413033768535
1772618057322022400,7.7640224609375,0.00008296780288219452,0.001203338149935007,0.0002414907212369144
1772618057332054300,7.77405419921875,0.004216992761939764,-0.0012765969149768353,0.0005064751603640616
1772618057342086400,7.78408642578125,-0.000944395549595356,0.0012973751872777939,-0.0023971886839717627
1772618057352119600,7.79411962890625,0.00036135222762823105,-0.0006051873788237572,0.0029381881467998028
1772618057362151400,7.8041513671875,-0.0004687686450779438,-0.0011700140312314034,-0.0009292168542742729
1772618057372184300,7.814184326171875,0.0008196686394512653,-0.00024216854944825172,-0.0007968576974235475
1772618057382216400,7.824216552734375,-0.0009851972572505474,-0.00004660990089178085,0.004387518856674433
1772618057392249300,7.834249267578125,-0.000020866747945547104,0.0006093266420066357,0.0013456561136990786
1772618057402281200,7.84428125,-0.0014870050363242626,0.0015163510106503963,0.0005914462963119149
1772618057412313300,7.854313232421875,-0.0004012342542409897,-0.0000016507692635059357,0.0006939779268577695
1772618057422346200,7.86434619140625,0.0011091865599155426,-0.0007536145858466625,0.00015976291615515947
1772618057432378400,7.87437841796875,-0.0006921757012605667,0.0018293848261237144,0.001765649183653295
1772618057442411500,7.88441162109375,-0.0002966374158859253,-0.0012118699960410595,-0.002554774284362793
1772618057452443400,7.894443359375,0.0004346664063632488,-0.0010286448523402214,0.0006221104995347559
1772618057462475300,7.904475341796875,0.00011415034532546997,0.0007176380604505539,0.0028602173551917076
1772618057472508400,7.91450830078125,0.00018179463222622871,-0.0010443092323839664,0.0003781512496061623
1772618057482540300,7.924540283203125,-0.0005808635614812374,-0.0007966221310198307,0.0011217694263905287
1772618057492573200,7.9345732421875,-0.002233088482171297,0.000639887060970068,-0.0012433838564902544
1772618057502605300,7.944605224609375,-0.0016359840519726276,0.0013599824160337448,0.0017889072187244892
1772618057512638200,7.95463818359375,0.002851442201063037,-0.0010555046610534191,0.0006421500002034009
1772618057522670300,7.96467041015625,0.00029862532392144203,0.0003047301433980465,-0.00031675153877586126
1772618057532702500,7.974702392578125,-0.001750144176185131,-0.0000012670643627643585,0.0018582521006464958
1772618057542735400,7.9847353515625,-0.000553374644368887,0.0001683039590716362,-0.0015447759069502354
1772618057552767200,7.994767333984375,-0.0009858720004558563,-0.0012666070833802223,0.0021943021565675735
1772618057562800400,8.00480029296875,0.0006675343029201031,0.002771137747913599,0.0002294328878633678
1772618057572832300,8.014832275390624,0.0004891026765108109,-0.0019639628008008003,-0.0011447581928223372
1772618057582865200,8.024865234375,0.0010273759253323078,-0.0006798021495342255,-0.0016717812977731228
1772618057592897500,8.0348974609375,-0.0005502807907760143,0.0007042428478598595,0.0007397109875455499
1772618057602929400,8.044929443359376,0.0006980658508837223,0.0008021066896617413,0.000022557098418474197
1772618057612961500,8.05496142578125,-0.0014985091984272003,-0.0009571774862706661,0.00010857719462364912
1772618057622993400,8.064993408203126,-0.00018032267689704895,0.001187390647828579,-0.0004076085751876235
1772618057633026600,8.075026611328125,-0.00013984274119138718,0.000692042987793684,0.000049922498874366283
1772618057643058400,8.085058349609374,-0.00011892244219779968,0.0002618227154016495,-0.00008651282405480742
1772618057653090600,8.095090576171875,-0.000030239112675189972,-0.0004950473085045815,-0.00048518803669139743
1772618057663123700,8.105123779296875,0.0026003255043178797,0.0005086194723844528,0.001415840582922101
1772618057673155600,8.115155517578126,-0.0002569803036749363,0.0006463048048317432,0.0012691004667431116
1772618057683188500,8.1251884765625,-0.0007468839175999165,-0.0008334089070558548,0.0014462671242654324
1772618057693220600,8.135220703125,-0.0014321152120828629,-0.0012496612034738064,-0.000807033502496779
1772618057703253500,8.14525341796875,0.0007120617665350437,0.0011346354149281979,-0.0024836305528879166
1772618057713285400,8.155285400390625,0.00010752398520708084,0.0008571338839828968,-0.0006750780157744884
1772618057723317500,8.1653173828125,-0.002820913214236498,-0.0004929904825985432,-0.0020144316367805004
1772618057733350400,8.175350341796875,0.0012254933826625347,-0.0028469585813581944,-0.0002109389752149582
1772618057743382500,8.185382568359374,-0.00015865499153733253,-0.0017276732251048088,-0.001663379603996873
1772618057753415700,8.195415771484376,0.000707404688000679,0.00006410153582692146,0.00015635840827599168
1772618057763447600,8.205447509765625,0.000005668960511684418,0.00038153305649757385,-0.000763666583225131
1772618057773480700,8.215480712890624,-0.0005024624988436699,-0.00013298960402607918,-0.0007562097162008286
1772618057783512600,8.2255126953125,0.0006885598413646221,-0.0018408498726785183,-0.00133207393810153
1772618057793544400,8.23554443359375,-0.0010909643024206161,0.0024106204509735107,-0.0002982348087243736
1772618057803577600,8.24557763671875,-0.0000841757282614708,-0.0010971883311867714,0.0001500521320849657
1772618057813609700,8.255609619140625,-0.00010388344526290894,0.001286074984818697,0.0017468834994360805
1772618057823642400,8.265642333984376,0.00021912017837166786,-0.0011778962798416615,0.0010776504641398787
1772618057833674500,8.275674560546875,0.0011552213691174984,0.002407250925898552,-0.00013462052447721362
1772618057843706600,8.28570654296875,0.00009285705164074898,0.0009204442612826824,0.00035376864252611995
1772618057853739500,8.295739501953125,0.00005637155845761299,0.002840582747012377,0.001097589498385787
1772618057863771400,8.305771484375,0.0008739619515836239,0.0005018804222345352,-0.000716976763214916
1772618057873804500,8.315804443359376,0.00024039624258875847,-0.0017844433896243572,-0.0011292340932413936
1772618057883836400,8.32583642578125,-0.0005207965150475502,0.0025826399214565754,-0.0015673940069973469
1772618057893869600,8.33586962890625,-0.0018393276259303093,-0.0020675058476626873,-0.0018608742393553257
1772618057903901700,8.345901611328125,0.0019783126190304756,0.00028217723593115807,-0.0005248341476544738
1772618057913933600,8.35593359375,-0.0007354486733675003,-0.0011354233138263226,0.0006682620150968432
1772618057923966700,8.365966796875,-0.0012111510150134563,0.0002857423387467861,-0.000581802916713059
1772618057933998600,8.37599853515625,-0.0004135342314839363,-0.00011026952415704727,-0.0004225458833388984
1772618057944031500,8.386031494140624,0.00020582834258675575,0.0027854847721755505,-0.00004409509710967541
1772618057954063600,8.396063720703125,-0.00018512364476919174,0.0009327237494289875,-0.000010539311915636063
1772618057964095500,8.406095458984375,-0.000388863030821085,0.00015984196215867996,0.0023905581329017878
1772618057974128400,8.41612841796875,0.0007096906192600727,0.0003310833126306534,-0.0015546486247330904
1772618057984160800,8.426160888671875,-0.0025542606599628925,0.002618422731757164,-0.00009251624578610063
1772618057994193700,8.436193603515624,-0.001106832642108202,3.259629011154175e-9,-0.0021625913213938475
1772618058004225500,8.4462255859375,-0.001341382972896099,-0.0012327572330832481,-0.003109351731836796
1772618058014258700,8.4562587890625,0.0013404199853539467,-0.00016083475202322006,-0.0010589839657768607
1772618058024290600,8.46629052734375,-0.0005749319680035114,-0.00017777178436517715,-0.00037111109122633934
1772618058034322400,8.476322509765625,0.002428847597911954,0.0006989408284425735,-0.0021945773623883724
1772618058044355600,8.48635546875,-0.0013216622173786163,0.0007440829649567604,0.0008785342797636986
1772618058054387500,8.496387451171875,-0.00003908388316631317,-0.0013779238797724247,-0.0022429567761719227
1772618058064420400,8.50642041015625,0.0004066391848027706,0.0004013199359178543,0.0009637149632908404
1772618058074452700,8.51645263671875,0.0009978609159588814,0.0016410215757787228,0.00003959803143516183
1772618058084485600,8.526485595703125,-0.0001694164238870144,-0.00009257113561034203,-0.0016546198166906834
1772618058094517500,8.536517578125,-0.0026309764944016933,0.0011082477867603302,-0.0006452817469835281
1772618058104549600,8.546549560546875,0.0021745257545262575,-0.002115336712449789,0.0007291455985978246
1772618058114582500,8.55658251953125,-0.00034855306148529053,0.0017843297682702541,0.000039120553992688656
1772618058124614400,8.566614501953126,-0.0000624912790954113,0.0013513211160898209,0.0011779072228819132
1772618058134647600,8.5766474609375,0.0002368479035794735,0.00014943629503250122,-0.0004953568568453193
1772618058144679400,8.586679443359374,-0.0002438095398247242,-0.0015591294504702091,-0.002104653976857662
1772618058154712300,8.59671240234375,0.0017532950732856989,0.0003594113513827324,0.0008935326477512717
1772618058164744700,8.60674462890625,-0.000124284066259861,-0.0017180955037474632,0.0005610244115814567
1772618058174776600,8.616776611328126,-0.0001253490336239338,-0.000681060366332531,-0.00022460805485025048
1772618058184809500,8.6268095703125,0.0021229065023362637,0.00015342654660344124,0.0005974462255835533
1772618058194841600,8.636841552734374,0.0027181231416761875,0.0006359913386404514,0.0037879133597016335
1772618058204874500,8.64687451171875,-0.0008166786283254623,-0.0006716465577483177,0.0028525693342089653
1772618058214906400,8.65690625,-0.0003255917690694332,-0.0012341062538325787,0.0003289576852694154
1772618058224938800,8.666938720703126,-0.00016936007887125015,-0.0007185465656220913,0.0004616975784301758
1772618058234971600,8.6769716796875,-0.0007781586609780788,0.0009661694057285786,-0.0006333942292258143
1772618058245003500,8.68700341796875,-0.0009494242258369923,0.001788157969713211,0.0015116676222532988
1772618058255036700,8.69703662109375,0.0011600656434893608,0.0003122342750430107,0.00017502688569948077
1772618058265068500,8.707068603515625,0.0017937682569026947,-0.0007753581739962101,-0.0006329810712486506
1772618058275101700,8.717101806640626,-0.00041851960122585297,0.0002643396146595478,0.00008340930799022317
1772618058285133600,8.727133544921875,0.001226860098540783,-0.0019442061893641949,0.001690462464466691
1772618058295165400,8.73716552734375,-0.0006759683601558208,-0.00007679779082536697,-0.00041742948815226555
1772618058305198300,8.7471982421875,-0.0005514267832040787,0.000173844862729311,-0.0005247250664979219
1772618058315230700,8.757230712890625,-0.000991647131741047,0.0009482922032475471,-0.00013616983778774738
1772618058325263600,8.767263671875,-0.0016036187298595905,-0.0010588332079350948,-0.0018528092186897993
1772618058335295500,8.77729541015625,0.0018659473862498999,0.0007033804431557655,0.001605571829713881
1772618058345328600,8.78732861328125,-0.0007633906789124012,0.00036871666088700294,-0.003917185589671135
1772618058355360500,8.797360595703125,0.0021391885820776224,0.00013382593169808388,0.00432449858635664
1772618058365392400,8.807392333984374,0.0008536004461348057,-0.0003472333773970604,-0.0005396137130446732
1772618058375425500,8.817425537109376,-0.0002681231126189232,0.00002294592559337616,-0.0002344154636375606
1772618058385457400,8.82745751953125,-0.0017682872712612152,-0.0020983917638659477,0.00017676351126283407
1772618058395490600,8.837490478515624,-0.00012351898476481438,0.00024545611813664436,-0.0007082049269229174
1772618058405522700,8.847522705078125,-0.00047995615750551224,0.0003081914037466049,0.001479423139244318
1772618058415555600,8.8575556640625,-0.00018461141735315323,-0.0012614759616553783,0.001737483311444521
1772618058425587700,8.867587646484376,-0.0012200684286653996,-0.001703514251857996,-0.0015902069862931967
1772618058435619600,8.87761962890625,0.00028088921681046486,0.000988941639661789,-0.0010692926589399576
1772618058445652500,8.887652587890624,-0.0017474275082349777,0.00011813081800937653,-0.00012197456089779735
1772618058455684600,8.8976845703125,-0.0007639219984412193,0.0024087154306471348,-0.003470366820693016
1772618058465717500,8.907717529296875,-0.0005890615284442902,0.0017850743606686592,-0.0006734520429745317
1772618058475749400,8.917749267578126,0.0019926067907363176,0.0035084057599306107,-0.0007179267704486847
1772618058485781500,8.927781494140625,0.000047083478420972824,0.0030057444237172604,-0.0011236434802412987
1772618058495814700,8.937814697265624,0.0007360433228313923,-0.00034105032682418823,-0.0006496008136309683
1772618058505846500,8.947846435546875,0.001332949148491025,-0.0006155269220471382,0.00151198694948107
1772618058515879700,8.957879638671875,-0.001764040905982256,-0.0018475055694580078,0.0005881363758817315
1772618058525911600,8.96791162109375,-0.0019347285851836205,-0.00006591342389583588,-0.0027113754767924547
1772618058535944400,8.9779443359375,-0.000451614148914814,0.0036766263656318188,0.0012095966376364231
1772618058545976600,8.9879765625,-0.0006747329607605934,0.0000666370615363121,-0.0007872289279475808
1772618058556008700,8.9980087890625,-0.0006201383657753468,0.0007326933555305004,-0.001076448243111372
1772618058566041300,9.008041259765625,-0.00007484573870897293,-0.000014514196664094925,-0.001343053299933672
1772618058576073700,9.01807373046875,-0.0016961782239377499,0.002093910239636898,0.0005712268757633865
1772618058586106600,9.028106689453125,-0.0013375929556787014,-0.0012465892359614372,0.0016974953468888998
1772618058596138500,9.038138427734374,0.0007702987641096115,-0.002178962342441082,-0.000720654905308038
1772618058606171600,9.048171630859375,-0.0014305994845926762,-0.00045015662908554077,0.0007952433079481125
1772618058616204000,9.0582041015625,-0.0005861110985279083,0.001178632490336895,-0.0014266319340094924
1772618058626236000,9.06823583984375,0.0010811914689838886,0.0004164171405136585,-0.0002861826214939356
1772618058636268800,9.078268798828125,0.0007634763605892658,0.00034051714465022087,0.00001821666955947876
1772618058646301000,9.088301025390624,0.0018093432299792767,-0.0009688227437436581,-0.001399173866957426
1772618058656333800,9.098333740234375,-0.00020959926769137383,-0.0005714790895581245,-0.002203715033829212
1772618058666366000,9.108365966796875,-0.001776314340531826,0.00078174052760005,-0.0028861076571047306
1772618058676399000,9.118399169921876,0.0006104102358222008,-0.0012582410126924515,-0.0020099275279790163
1772618058686431000,9.128430908203125,0.00031926389783620834,-0.001047410536557436,0.0015322963008657098
1772618058696462800,9.138462890625,-0.0009694397449493408,0.0006346423178911209,-0.0023601800203323364
1772618058706496000,9.14849609375,0.0006370958872139454,0.00032554008066654205,0.0006208897102624178
1772618058716527900,9.15852783203125,-0.00019540823996067047,-0.0004265368916094303,-0.0011967177269980311
1772618058726560800,9.168560791015626,0.002069060690701008,-0.00028040260076522827,-0.0021338392980396748
1772618058736593000,9.178593017578125,-0.00029822299256920815,0.0008708820678293705,0.00047765648923814297
1772618058746625000,9.188625,0.000005486421287059784,0.0006020925939083099,0.0012706811539828777
1772618058756658000,9.198657958984375,-0.0027892347425222397,-0.0008245627395808697,0.0019758862908929586
1772618058766690000,9.20868994140625,0.0018679557833820581,0.0016942801885306835,-0.0016137068159878254
1772618058776723000,9.218722900390626,-0.00006336858496069908,0.00019705062732100487,0.0000025656772777438164
1772618058786754800,9.2287548828125,-0.0013956385664641857,0.0014768680557608604,-0.0005619603907689452
1772618058796787000,9.238786865234376,-0.0008773873560130596,0.00412245187908411,-0.00033026537857949734
1772618058806819800,9.24881982421875,-0.0006281943060457706,0.0004238821566104889,0.000360466365236789
1772618058816852000,9.25885205078125,-0.0004819869063794613,0.0016990038566291332,-0.0009506078204140067
1772618058826884900,9.268884765625,0.0005093412473797798,0.00023661553859710693,0.002145284553989768
1772618058836917000,9.2789169921875,0.0007817824371159077,0.0018081464804708958,0.002109864493831992
1772618058846950000,9.288949951171874,0.0012716313358396292,0.001850857399404049,-0.0015089284861460328
1772618058856982000,9.29898193359375,-0.0010999133810400963,-0.0006240187212824821,0.0006823203875683248
1772618058867014000,9.309013916015624,0.001485070213675499,0.0020814617164433002,0.0006663711392320693
1772618058877046800,9.319046875,-0.0005836733616888523,-0.0005095279775559902,-0.0032045335974544287
1772618058887079000,9.329078857421875,0.0009156661108136177,0.002386522013694048,-0.005606420338153839
1772618058897111800,9.33911181640625,0.0009369710460305214,0.0016323146410286427,-0.0023728101514279842
1772618058907144000,9.34914404296875,-0.0015894598327577114,-0.0016914750449359417,-0.00031680549727752805
1772618058917177000,9.359177001953125,-0.0009332569316029549,0.0005674185231328011,-0.001227073953486979
1772618058927209000,9.369208984375,0.00237570540048182,0.00011888565495610237,-0.0023053342010825872
1772618058937240800,9.37924072265625,0.00004144478589296341,0.00036416249349713326,-0.00010556308552622795
1772618058947274000,9.38927392578125,-0.001256702933460474,-0.0003702347166836262,-0.0018110362580046058
1772618058957305900,9.399305908203125,-0.0009336615912616253,-0.0021585472859442234,0.00211526220664382
1772618058967338800,9.4093388671875,0.0009965966455638409,-0.0005713319405913353,-0.0022934579756110907
1772618058977371000,9.419370849609376,0.0017641193699091673,0.0017639938741922379,-0.0022958549670875072
1772618058987403800,9.42940380859375,0.00007325271144509315,0.0006511998362839222,0.0015688384883105755
1772618058997436000,9.439435791015624,0.0000879000872373581,0.0024813241325318813,-0.0014011187013238668
1772618059007468000,9.449468017578125,0.0007077055051922798,0.00018370477482676506,-0.00010538549395278096
1772618059017501000,9.4595009765625,0.0010448615066707134,0.0007115430198609829,-0.0020737280137836933
1772618059027532800,9.46953271484375,-0.0006506429053843021,0.0012963013723492622,0.00012410245835781097
1772618059037566000,9.47956591796875,-0.000055958982557058334,0.0013455692678689957,-0.0036663745995610952
1772618059047597800,9.489597900390624,0.0008657081052660942,-0.0008764364756643772,-0.0003207863192074001
1772618059057631000,9.499630859375,0.0025272544007748365,-0.0013131946325302124,0.001316258916631341
1772618059067662800,9.509662841796874,-0.0007370901294052601,0.0012725749984383583,-0.0017205148469656706
1772618059077695000,9.519695068359376,-0.00201620627194643,-0.0011381180956959724,-0.0021535446867346764
1772618059087728000,9.52972802734375,-0.00010163756087422371,0.0007112598977982998,-0.0006431583315134048
1772618059097760000,9.539760009765626,-0.0009080427698791027,-0.0006948886439204216,-0.001678861677646637
1772618059107793000,9.54979296875,0.00033548474311828613,0.0017928536981344223,-0.0002871300093829632
1772618059117825000,9.559824951171874,-0.0006418954581022263,-0.001583768054842949,-0.0015324241248890758
1772618059127858000,9.56985791015625,-0.0016593062318861485,-0.0002531344071030617,-0.001088327495381236
1772618059137889800,9.579889892578125,0.0008842791430652142,0.0012784493155777454,0.0006456566625274718
1772618059147922000,9.589921875,0.0006523141637444496,0.00015092361718416214,0.0005562675069086254
1772618059157954800,9.599954833984375,0.0011870767921209335,-0.0010440368205308914,0.0013011535629630089
1772618059167987000,9.609987060546874,0.00035566044971346855,0.000029169488698244095,0.0006084021297283471
1772618059178020000,9.62002001953125,-0.0008614039979875088,-0.0020182691514492035,0.001580189447849989
1772618059188052000,9.630052001953125,-0.0012427223846316338,-0.00009911367669701576,-0.0012007822515442967
1772618059198084900,9.6400849609375,-0.00021820422261953354,0.0016101030632853508,-0.00036854442441836
1772618059208117000,9.650116943359375,-0.000761592760682106,0.00009950296953320503,0.000541062094271183
1772618059218148900,9.66014892578125,0.0008903662674129009,0.00013012904673814774,-0.00025202735560014844
1772618059228181800,9.670181640625,0.0010109208524227142,-0.0005663861520588398,-0.000713151297532022
1772618059238214000,9.6802138671875,0.00019812444224953651,-0.0011211223900318146,-0.0042096152901649475
1772618059248246800,9.690246826171874,-0.001585469115525484,0.0009030848741531372,0.00006219890201464295
1772618059258279000,9.70027880859375,0.0014193756505846977,0.0009326459839940071,-0.0013221122790127993
1772618059268311000,9.71031103515625,0.0009259427897632122,-0.0008405717089772224,0.001278760377317667
1772618059278344000,9.720343994140626,-0.0011001904495060444,-0.000961479265242815,-0.0008797316695563495
1772618059288375800,9.730375732421875,0.00039988569915294647,0.0011746394447982311,0.0021629498805850744
1772618059298409000,9.740408935546874,-0.0015484830364584923,-0.0002757185138761997,-0.0008578736451454461
1772618059308440800,9.75044091796875,0.001889148261398077,-0.002315213903784752,0.001342751900665462
1772618059318473700,9.7604736328125,-0.0037130769342184067,0.0002709818072617054,-0.00011985626770183444
1772618059328506000,9.770506103515626,0.00037591438740491867,0.00023121898993849754,-0.0019446886144578457
1772618059338538000,9.7805380859375,0.0010254592634737492,-0.0006324443966150284,-0.00019419292220845819
1772618059348571000,9.79057080078125,0.0011480120010674,0.00032568490132689476,0.0010802175384014845
1772618059358603000,9.80060302734375,0.0017842412926256657,-0.00034223590046167374,0.000421617878600955
1772618059368636000,9.810635986328125,0.001089761033654213,-0.00009529571980237961,0.001505245454609394
1772618059378667800,9.820667724609375,-0.0003685862757265568,-0.00208307895809412,-0.0014266285579651594
1772618059388701000,9.830700927734375,-0.0003500664606690407,0.0007610111497342587,-0.0002920240513049066
1772618059398732800,9.84073291015625,0.0002965489402413368,-0.0008592559024691582,0.00020545447478070855
1772618059408765000,9.850764892578125,0.0004270593635737896,0.00010605156421661377,0.0030498122796416283
1772618059418798000,9.860798095703124,0.0010329284705221653,0.00028182053938508034,0.00008598028216511011
1772618059428830000,9.870829833984375,0.0005666720680892467,0.00019668135792016983,-0.00026277778670191765
1772618059438862800,9.88086279296875,0.0008630817756056786,-0.0003521963953971863,-0.0015562751796096563
1772618059448895000,9.89089501953125,0.001378561370074749,-0.0012147212401032448,-0.0002146197366528213
1772618059458927900,9.900927978515625,0.001750604948028922,-0.0005891448818147182,0.0005947149475105107
1772618059468959700,9.910959716796874,-0.0005663442425429821,0.0027550971135497093,0.0001248382031917572
1772618059478992000,9.920991943359375,0.002138628624379635,0.0017561456188559532,-0.0021625510416924953
1772618059489024800,9.931024658203125,-0.0025704107247292995,0.0008319788612425327,-0.0004903127555735409
1772618059499057000,9.941056884765626,-0.0010753115639090538,0.0036642500199377537,-0.0008836616179905832
1772618059509090000,9.951090087890625,-0.0007383674383163452,0.0009504510089755058,-0.0023800963535904884
1772618059519122000,9.961121826171874,-0.0011644731275737286,-0.003250951413065195,-0.0011614338727667928
1772618059529155000,9.971155029296876,-0.0008444804698228836,-0.0001894165761768818,-0.0031465464271605015
1772618059539187000,9.98118701171875,-0.0037057804875075817,0.0014590802602469921,-0.0012285378761589527
1772618059549218800,9.99121875,-0.0011154524981975555,-0.00006578629836440086,-0.0040572648867964745
1772618059559252000,10.001251953125,-0.00007255887612700462,-0.00010014092549681664,-0.0010364409536123276
1772618059569283800,10.011283935546874,-0.000589937437325716,0.0005958788096904755,-0.0028254918288439512
1772618059579316700,10.021316650390625,0.0008465712890028954,0.0008163880556821823,-0.0021865994203835726
1772618059589349000,10.03134912109375,-0.00355734396725893,0.004190174862742424,-0.002284305403009057
1772618059599382000,10.041382080078124,-0.004798644222319126,0.0012311367318034172,-0.0016797678545117378
1772618059609414000,10.051413818359375,-0.001542587298899889,-0.00012391665950417519,-0.0026902901008725166
1772618059619445800,10.06144580078125,-0.0008520293049514294,-0.00028929905965924263,-0.0019584535621106625
1772618059629478700,10.071478759765625,-0.000041050370782613754,0.000344917643815279,0.002512718550860882
1772618059639510500,10.081510498046875,-0.0010272185318171978,0.0012740944512188435,0.0003417098196223378
1772618059649543700,10.091543701171876,0.0031642296817153692,0.001199664082378149,0.003947722725570202
1772618059659575800,10.101575927734375,-0.0002597966231405735,0.00043906504288315773,0.0018459558486938477
1772618059669608700,10.111608642578124,-0.001502016093581915,0.0015745814889669418,-0.0007054611342027783
1772618059679640800,10.121640869140625,0.002967567415907979,-0.00184971047565341,-0.001221848069690168
1772618059689672700,10.131672607421875,0.0002625640481710434,0.0004994370974600315,0.0019518195185810328
1772618059699705600,10.14170556640625,-0.0026810280978679657,0.0009324676357209682,-0.00027937680715695024
1772618059709737700,10.15173779296875,0.0009225448593497276,0.0011471081525087357,-0.0012562819756567478
1772618059719770600,10.1617705078125,0.0009896564297378063,-0.0013240384869277477,0.0030492504592984915
1772618059729802500,10.171802490234375,0.0002473355270922184,0.0012135808356106281,-0.0023684438783675432
1772618059739835600,10.181835693359375,0.0007147202268242836,0.0008508586324751377,0.000014019955415278673
1772618059749867800,10.19186767578125,-0.0025274837389588356,0.0022224304266273975,-0.000642784929368645
1772618059759899600,10.201899658203125,-0.00325958663597703,0.001581407617777586,0.00149892910849303
1772618059769932800,10.211932861328124,-0.0014477684162557125,-0.0034159598872065544,0.002153056440874934
1772618059779964700,10.221964599609375,0.00021484307944774628,-0.00516166165471077,0.02727891504764557
1772618059789997800,10.231997802734375,0.0013283970765769482,0.013194628059864044,-0.010405409149825573
1772618059800029700,10.24202978515625,0.004396358504891396,-0.02510136179625988,-0.004893730394542217
1772618059810061600,10.2520615234375,0.0026811822317540646,-0.007144032511860132,0.007941782474517822
1772618059820094700,10.2620947265625,-0.0025367490015923977,0.02617131546139717,0.005165169946849346
1772618059830126800,10.272126953125,-0.00008367793634533882,-0.00014878902584314346,0.0029541507828980684
1772618059840159700,10.28215966796875,0.001001826487481594,-0.02608637884259224,-0.0026534011121839285
1772618059850191600,10.292191650390626,0.002423721132799983,0.006008435040712357,0.0013005784712731838
1772618059860224800,10.302224853515625,-0.0005483664572238922,0.026499859988689423,0.005267356988042593
1772618059870256600,10.312256591796874,0.001168672926723957,-0.014217830263078213,0.0012501510791480541
1772618059880289800,10.322289794921875,0.0020685552153736353,-0.014750195667147636,-0.0016028934624046087
1772618059890321700,10.33232177734375,-0.0012301108799874783,0.01810470223426819,0.005255058873444796
1772618059900353800,10.342353759765626,0.0027401295956224203,0.00328234676271677,0.005846280604600906
1772618059910386700,10.35238671875,0.002442830242216587,-0.020068082958459854,0.0010447428794577718
1772618059920418800,10.362418701171874,0.000056904274970293045,0.004956310614943504,0.00429300032556057
1772618059930451700,10.37245166015625,-0.000591374933719635,0.012097053229808807,0.002723364159464836
1772618059940483800,10.38248388671875,0.00076337531208992,-0.00891795102506876,0.0017241460736840963
1772618059950515700,10.392515625,-0.00035924743860960007,-0.0015462301671504974,-0.0013189541641622782
1772618059960548600,10.402548583984375,-0.00019386503845453262,0.008210260421037674,0.0008746915846131742
1772618059970580700,10.412580810546874,-0.0008105561137199402,-0.0018672319129109383,-0.0016721831634640694
1772618059980613600,10.422613525390625,0.0009663049131631851,-0.007311532273888588,-0.0036751464940607548
1772618059990645800,10.432645751953125,0.0011774199083447456,0.0054558259434998035,0.00044675375102087855
1772618060000678700,10.4426787109375,0.0020996727980673313,0.009469741955399513,-0.0018496899865567684
1772618060010710800,10.452710693359375,0.0009631244465708733,-0.00432426854968071,0.00014301191549748182
1772618060020742700,10.46274267578125,0.001999892992898822,-0.0014166291803121567,0.0012658005580306053
1772618060030775800,10.47277587890625,-0.0016934936866164207,0.0074944752268493176,0.00027577875880524516
1772618060040807700,10.4828076171875,-0.00016643712297081947,-0.0009730448946356773,-0.0015106697101145983
1772618060050840600,10.492840576171876,-0.0001497715711593628,-0.005371775943785906,-0.0021599018946290016
1772618060060872700,10.502872802734375,0.0004917839542031288,0.0020557804964482784,0.0005517286481335759
1772618060070905600,10.512905517578124,0.001287137158215046,0.0002883356064558029,0.0024528023786842823
1772618060080937700,10.522937744140625,0.0004317299462854862,-0.0037703216075897217,-0.003079382237046957
1772618060090969900,10.532969970703125,-0.0002642548643052578,0.0022001187317073345,-0.002318375511094928
1772618060101002800,10.543002685546876,0.00028009526431560516,0.005804707761853933,-0.0003175425808876753
1772618060111034600,10.55303466796875,0.0002146093174815178,-0.002747848629951477,0.002044085646048188
1772618060121067800,10.56306787109375,0.0014252823311835527,-0.0011142655275762081,-0.0012670225696638227
1772618060131099600,10.573099609375,-0.0013771946541965008,0.004460534546524286,-0.0011149405036121607
1772618060141132500,10.583132568359375,-0.002157234586775303,0.15086382627487183,0.0364643931388855
1772618060151164700,10.59316455078125,-0.006589234806597233,0.19152548909187317,0.016905324533581734
1772618060161196800,10.60319677734375,0.01168777421116829,-0.28097015619277954,-0.04750455915927887
1772618060171229700,10.613229736328124,0.003927487879991531,0.1510145366191864,0.01716011017560959
1772618060181261800,10.62326171875,0.0076652346178889275,-0.2463677078485489,-0.05071933940052986
1772618060191294700,10.633294677734375,-0.0028526182286441326,0.07283134758472443,0.014486138708889484
1772618060201326600,10.64332666015625,0.0009666210971772671,-0.05594794079661369,-0.011266096495091915
1772618060211359700,10.65335986328125,0.0023564558941870928,-0.1272173523902893,-0.02991177886724472
1772618060221391600,10.6633916015625,0.0012160902842879295,-0.061553388833999634,-0.014226292259991169
1772618060231423700,10.673423828125,-0.003806531894952059,0.07079462707042694,0.017412720248103142
