time,seconds_elapsed,z,y,x
1772785934398744800,0.058744873046875,1.2819541192382573,1.4028490281164645,0.7202648966718465
1772785934408761900,0.068761962890625,0.9330506651967764,1.206892156252265,0.46139213442839677
1772785934418777600,0.078777587890625,0.8180950832396745,1.092308037956059,0.42873328901641067
1772785934428795000,0.088794921875,0.6981003380715847,1.1008537479832767,0.36905572297126055
1772785934438811000,0.098810791015625,0.5700105492532253,0.9914809345945715,0.29363384063169357
1772785934448827000,0.108826904296875,0.35829146011173724,0.5319194496594369,0.16065131133571267
1772785934458843600,0.11884375,-0.003416530445218086,-0.003419453054666519,-0.016467735198140144
1772785934468860000,0.12885986328125,-0.6796914056777954,-0.4344119922399521,-0.31753062985204156
1772785934478877000,0.138876953125,-1.8408008849203585,-0.767595314580202,-0.9411267849508672
1772785934488892700,0.148892578125,-2.6610277194917202,-0.8077310717441141,-1.2054137542627752
1772785934498909700,0.15890966796875,-2.793057185846567,-0.9298791955538094,-0.9219215145476162
1772785934508926000,0.168926025390625,-2.603319042366743,-1.0987484462670982,-0.6921070890061557
1772785934518942000,0.17894189453125,-2.3243822739988564,-1.166790739749372,-0.6061976418565959
1772785934528958700,0.188958740234375,-1.8723627288758753,-1.1611141554176807,-0.4797184300400316
1772785934538974700,0.198974609375,-1.3131781095415354,-1.169278830238059,-0.3431874875474721
1772785934548991700,0.20899169921875,-0.6600578999251127,-1.2212746826741843,-0.25266857384108005
1772785934559008000,0.219008056640625,-0.016125789892673492,-1.3167141747131943,-0.1744572434460744
1772785934569024800,0.229024658203125,0.5307663341015577,-1.4081984263204037,-0.12073197340145707
1772785934579040800,0.239040771484375,0.8160381507098674,-1.5718832601331174,-0.09032452364545315
1772785934589056800,0.249056884765625,0.9151134419679641,-1.6525693466112017,-0.06314023718703538
1772785934599073800,0.25907373046875,0.9592296470701694,-1.4197633380383252,0.00583195755649358
1772785934609089800,0.26908984375,0.9015449353426694,-0.9769221017576754,0.08664002644643187
1772785934619106800,0.27910693359375,0.7942582805782556,-0.7484474003873764,0.18708825002554802
1772785934629122800,0.289122802734375,0.6747118636995554,-0.603316314266622,0.19054536820948123
1772785934639139800,0.299139892578125,0.5822311484009027,-0.550884554631263,0.19629717320185153
1772785934649155800,0.30915576171875,0.48288522350788116,-0.5219796549253165,0.28714941051583737
1772785934659171800,0.319171875,0.32663726169764995,-0.4914396282982081,0.2720911767894402
1772785934669188900,0.32918896484375,0.22153204262554643,-0.4036947093497962,0.2670494197625667
1772785934679204600,0.33920458984375,0.2995873422086239,-0.35785452999919654,0.331323264089413
1772785934689222000,0.349221923828125,0.35527006646394726,-0.3684195439595729,0.3036113370276987
1772785934699238000,0.35923779296875,0.2968050180137157,-0.3791615219220519,0.1901028851389885
1772785934709254700,0.369254638671875,0.22018530419170856,-0.28772293608747423,0.10408533797245471
1772785934719270700,0.379270751953125,0.03258417274057865,-0.17939890109933912,-0.001969254246354103
1772785934729287000,0.389286865234375,-0.2690472425162792,0.05637267928086221,-0.1665471644412726
1772785934739304000,0.399303955078125,-0.6612573388427495,0.3796383456535637,-0.21043175274468956
1772785934749319700,0.409319580078125,-0.9419137706100941,0.5327137418422848,-0.16391250508874655
1772785934759336700,0.419336669921875,-1.097557921308279,0.40325989812910557,-0.16296674867123365
1772785934769353000,0.42935302734375,-1.0728285537213087,0.26538762403018773,-0.1258204556468874
1772785934779369700,0.43936962890625,-0.9232090701401233,0.11288374411910772,-0.06855718420185149
1772785934789385700,0.4493857421875,-0.6894897461146116,-0.033072979170829055,-0.020384324119985104
1772785934799401700,0.459401611328125,-0.4596335272580385,-0.0775919929202646,0.011506532594189047
1772785934809418800,0.469418701171875,-0.20683248614370822,-0.0365513228058815,0.054131841551512475
1772785934819435000,0.47943505859375,0.09758183782994746,0.03365070599354803,0.11020312673300504
1772785934829451800,0.48945166015625,0.45442017652392386,0.08834653810337185,0.1614089978352189
1772785934839467800,0.4994677734375,0.7856348291397094,-0.22796222180351614,0.15310359936989842
1772785934849483800,0.50948388671875,1.0940116270035505,-0.747630384916067,0.10007548127658665
1772785934859500800,0.519500732421875,1.1085592077940702,-1.1828894224394113,-0.033752266671881075
1772785934869516800,0.529516845703125,0.9394061717033386,-1.3627397205680607,-0.171217348209396
1772785934879533800,0.539533935546875,0.8918985705971717,-1.4576973473742603,-0.3149917590241879
1772785934889549800,0.5495498046875,0.9469254612922667,-1.6281766636326909,-0.3648111442040652
1772785934899566800,0.55956689453125,0.9660065938591956,-1.733155625976622,-0.38686281701438124
1772785934909582800,0.569582763671875,0.8335936811447143,-1.8585405397504566,-0.47568332930505275
1772785934919598800,0.579598876953125,0.5101747969716787,-1.8706294753424821,-0.5756728127986193
1772785934929615600,0.58961572265625,-0.037332244050502776,-1.6961143276967108,-0.6495060377072542
1772785934939631600,0.599631591796875,-0.565697362229228,-1.5810837808072566,-0.6726319156203419
1772785934949649000,0.60964892578125,-0.9216881441831588,-1.5512474454700946,-0.5839516155179589
1772785934959665000,0.619664794921875,-1.0760352408081293,-1.688662404255569,-0.5663130829747766
1772785934969681700,0.629681640625,-1.0276876817464828,-1.7734224621742962,-0.5210498997945339
1772785934979697700,0.63969775390625,-0.9128741386085748,-1.7884831070534883,-0.41509303232915695
1772785934989714000,0.6497138671875,-0.7120955456763506,-1.6218572513528167,-0.3035801381718367
1772785934999731000,0.65973095703125,-0.3947819926410913,-1.3781374884471296,-0.19649718928597867
1772785935009746700,0.66974658203125,-0.09438450309336185,-1.2521617691732942,-0.03413461705297231
1772785935019763700,0.679763671875,0.134985393550992,-1.103006030646339,0.05303842029161751
1772785935029780000,0.689780029296875,0.5198234998047352,-0.948991453911364,0.22638328204900024
1772785935039796000,0.6997958984375,0.7235562663674354,-0.8111428529489785,0.27776560569666325
1772785935049812700,0.709812744140625,0.7142775658905506,-0.7057753296788781,0.17584902659803628
1772785935059828700,0.719828857421875,0.7319394793093205,-0.71286126935184,0.1550569984599948
1772785935069846000,0.729845947265625,0.6980021383941173,-0.8507588240224867,0.047146878034994004
1772785935079861800,0.73986181640625,0.7750438770204782,-1.0492129925951361,0.04211830928325653
1772785935089878800,0.749878662109375,0.9624836804300546,-1.273187167675793,0.0757658734716475
1772785935099894800,0.759894775390625,0.9841559985339641,-1.4251716268226504,-0.20172573758922516
1772785935109910800,0.769910888671875,1.1334084023684263,-1.590549528288841,-0.30958113215230404
1772785935119927800,0.779927734375,1.1505717186152935,-1.7518949593685567,-0.42625024002902206
1772785935129943800,0.78994384765625,1.1925824758708476,-1.7943005611605942,-0.5043096312653274
1772785935139960800,0.7999609375,1.180588086694479,-1.8794497645273804,-0.36748920430690046
1772785935149976800,0.809976806640625,0.6503209342867136,-2.0375947921305895,-0.49076903556026513
1772785935159993900,0.819993896484375,0.5765285528451204,-2.1751070738106963,-0.7631563092194498
1772785935170009900,0.830009765625,0.10381927091479301,-2.4191050691358744,-0.6770568924557417
1772785935180025900,0.84002587890625,-0.027703999483585356,-2.5412837342143058,-0.8116147082444279
1772785935190042600,0.850042724609375,-0.22289397862851618,-2.401826309815794,-0.9679957949150353
1772785935200058600,0.86005859375,-0.1396177295267582,-2.3710408570602537,-0.7780084989797323
1772785935210076000,0.870075927734375,-0.21078268507421016,-2.4641101859018204,-0.7232593292474746
1772785935220092000,0.880091796875,-0.21858605230152606,-2.5284867964833975,-0.6270856777150183
1772785935230108000,0.89010791015625,-0.13461714476048944,-2.5248311965852976,-0.4473538913995027
1772785935240124700,0.900124755859375,-0.09516367077231407,-2.415125351849943,-0.2718150997944176
1772785935250141000,0.910140869140625,-0.13561433910429477,-2.206030765993148,-0.11926621169783175
1772785935260157700,0.92015771484375,-0.230186473724246,-1.9040205805517731,0.004352349990606308
1772785935270173700,0.930173583984375,-0.2811106052756309,-1.6330885472021996,0.14709800227954983
1772785935280190700,0.940190673828125,-0.34921383516490456,-1.4027622266158462,0.1864345718897879
1772785935290207000,0.95020703125,-0.5981780745953321,-1.2046812752697615,0.2072373406175524
1772785935300223000,0.960222900390625,-0.872410610795021,-1.385872758874297,0.10536620809584855
1772785935310240000,0.970239990234375,-0.9252993204176425,-1.9035982634864745,-0.19330591896399854
1772785935320256000,0.980256103515625,-0.8416881402730941,-2.095882730448246,-0.6888282134659588
1772785935330273000,0.99027294921875,-0.8342039219975471,-2.0346568389825523,-1.218575798979029
1772785935340288800,1.000288818359375,-0.8501391577541828,-1.545626536848396,-1.3359282860100268
1772785935350304800,1.0103046875,-0.9375766181886196,-0.6333039677079767,-1.1331610034786164
1772785935360322000,1.020322021484375,-1.0185738164424896,0.33301746425405143,-0.6924234614789485
1772785935370338000,1.030338134765625,-0.9766443077296018,1.0677633792862296,0.023760303359106182
1772785935380354800,1.040354736328125,-0.9502730181545018,1.5221382553637026,0.664582464677468
1772785935390370800,1.050370849609375,-0.9256447728544474,1.2462515222162007,0.9351537749558687
1772785935400388000,1.06038818359375,-0.73345105291605,0.8875017969429493,1.1484510731995106
1772785935410403800,1.07040380859375,-0.5813561191320419,1.0626328114647419,1.1719029681965707
1772785935420419800,1.080419921875,-0.4176005581706762,1.5107907857887446,1.0080487691663205
1772785935430436900,1.090436767578125,-0.020253098955750466,2.001247613594681,0.8717565308004617
1772785935440452900,1.100452880859375,0.48760465324521063,2.3635373495623466,0.6998563879586756
1772785935450470000,1.110469970703125,1.0381979698449373,1.9927948425479232,0.36910843953918665
1772785935460486000,1.12048583984375,1.5220049843728543,1.1996101825505494,0.033541071606613695
1772785935470502000,1.130501953125,1.6419681653589009,0.5532966572742909,-0.268130492997542
1772785935480519000,1.140518798828125,1.3302905723839997,0.08710092195644974,-0.5361445200085639
1772785935490535000,1.150534912109375,0.9859154094219207,-0.1689489100870676,-0.7450926831319927
1772785935500552000,1.160552001953125,0.8502139765560627,-0.22006056356718762,-0.8835315781377255
1772785935510568000,1.17056787109375,0.8430658583670854,-0.053325384006835515,-0.8752367741316557
1772785935520584000,1.180583984375,0.9265572115242481,0.1568551887220703,-0.7462611423894763
1772785935530601000,1.19060107421875,1.0753004967927933,0.45446701134033496,-0.47159664451330896
1772785935540617000,1.200616943359375,1.2401076126337052,0.6684402360841631,-0.16624416290670632
1772785935550634000,1.210634033203125,1.3425129250973462,0.8051056186113507,0.1872735799971968
1772785935560650000,1.22064990234375,1.2860574629038573,0.8782904626138508,0.48995026652328666
1772785935570667000,1.2306669921875,1.1379384470134972,1.0267566845066844,0.7308895318649709
1772785935580683000,1.24068310546875,0.8938175559610128,1.1473048988390713,0.9056267978288233
1772785935590699000,1.250698974609375,0.564065377113223,1.301170276361704,1.0390953570760786
1772785935600715800,1.2607158203125,0.3637257601201534,1.5155194217458365,1.208313859618455
1772785935610731800,1.270731689453125,0.2203670904994011,1.595639544904232,1.3204162441015244
1772785935620749000,1.2807490234375,0.13681027089059353,1.6469864319123326,1.4282517649203539
1772785935630765000,1.29076513671875,0.0011526771664619444,1.4837326829932629,1.42937331629619
1772785935640780800,1.30078076171875,-0.1621826125562191,1.232468057665974,1.3526955886766314
1772785935650797800,1.3107978515625,-0.4486392550349235,1.0537716057475655,1.1674532222460954
1772785935660813800,1.320813720703125,-0.7112766305088997,0.9899890886016189,0.9742022483397275
1772785935670830800,1.330830810546875,-0.8603536777764559,0.953322907244414,0.6917711350500583
1772785935680846800,1.340846923828125,-0.9008002544552087,0.8187393724925816,0.4718196396142244
1772785935690862800,1.35086279296875,-0.8455021456032991,0.5398069880388677,0.33476759585700927
1772785935700880000,1.3608798828125,-0.6874199541032314,0.14850070868432522,0.1579227631546557
1772785935710896000,1.370896240234375,-0.4331353964328766,-0.21976459456160663,-0.0425974711023271
1772785935720913000,1.380912841796875,-0.07107318561077118,-0.4941713182844221,-0.17414967533424497
1772785935730929000,1.390928955078125,0.25782676032185553,-0.6667516254100948,-0.23519473034031688
1772785935740946000,1.40094580078125,0.5371341155678033,-0.7817417672239243,-0.2796050230182707
1772785935750962000,1.4109619140625,0.7562783862739801,-0.9606548575676978,-0.22499365432150661
1772785935760978000,1.42097802734375,0.8729600613713264,-1.1055326265145093,-0.17934731704257428
1772785935770995000,1.430994873046875,0.9131196378022431,-1.2549050765320657,-0.15016294280812142
1772785935781011000,1.441010986328125,0.8300345273584127,-1.3997200824409723,-0.12380064025707542
1772785935791028000,1.451028076171875,0.6235510007828474,-1.3568649833157658,-0.16018961210809646
1772785935801044000,1.4610439453125,0.3550298279672861,-1.1626439222682268,-0.1445156576361507
1772785935811060000,1.47106005859375,0.11922083818614482,-1.0959809543151409,-0.1850101651098579
1772785935821077000,1.481076904296875,-0.025599136158823966,-1.117673657619953,-0.12176336227580904
1772785935831092700,1.4910927734375,-0.08375497252941132,-0.9640523179862648,-0.015961027785018084
1772785935841110000,1.501110107421875,-0.1767611730068922,-0.7801643618393689,0.10919869893081485
1772785935851126000,1.5111259765625,-0.24522213029265402,-0.5405867402397095,0.2538759768694639
1772785935861142000,1.52114208984375,-0.2338601938009262,-0.3585207388229668,0.4894768768578768
1772785935871158800,1.53115869140625,-0.20937924801707267,-0.18240750833079217,0.7153279517263174
1772785935881174800,1.5411748046875,-0.14345862286388872,-0.11980755203291774,0.8868208289414644
1772785935891192000,1.551192138671875,-0.028453941068053244,-0.05623407452777028,0.9503318356696516
1772785935901207800,1.561207763671875,0.05119359614253044,-0.09373480701297521,0.9868160845886915
1772785935911223800,1.571223876953125,0.1501835472047329,-0.10352437962144613,0.9927413099192083
1772785935921240800,1.58124072265625,0.22354922766685484,-0.1297439857661724,0.8897579783719033
1772785935931257000,1.591257080078125,0.2403255904227495,-0.16552081706821917,0.7590100762601941
1772785935941273900,1.60127392578125,0.22947627962827682,-0.22910277014076708,0.6080044720828532
1772785935951289900,1.611289794921875,0.18647125063836573,-0.3177744485452771,0.43217714585997163
1772785935961305900,1.621305908203125,0.14665478855669498,-0.43377062559649343,0.25091186636686325
1772785935971323100,1.6313232421875,0.12497194905877113,-0.5589177850916981,0.12844992736764252
1772785935981339000,1.6413388671875,0.03639700902700424,-0.72157546781376,0.03302366013638675
1772785935991356000,1.65135595703125,-0.11506781015992164,-0.9448235205769538,-0.04005684670880437
1772785936001372000,1.661371826171875,-0.3083616002947092,-1.0890858610391616,-0.060804743444174525
1772785936011388000,1.671387939453125,-0.5009942961722612,-1.127337119630724,-0.1142256602473557
1772785936021405000,1.681405029296875,-0.668919836294651,-1.1590749046750366,-0.10588358303345739
1772785936031421000,1.6914208984375,-0.7700853778302669,-1.1774654246293008,-0.02031235486231744
1772785936041438000,1.70143798828125,-0.8816559935241937,-1.0852464290067554,0.022323183228075503
1772785936051454000,1.711453857421875,-0.933375659367442,-1.0501824221491813,0.13562493356354532
1772785936061471000,1.721470947265625,-0.9446820662796497,-1.0657792197316884,0.240951321105659
1772785936071487000,1.731487060546875,-0.8680132526189088,-1.0643145540066064,0.3180822723854333
1772785936081503000,1.7415029296875,-0.8289023084580898,-0.9947150942102074,0.3661152856051922
1772785936091519700,1.751519775390625,-0.7471674435794353,-0.9991789417512714,0.4678979361258447
1772785936101536000,1.761535888671875,-0.7864642657011747,-1.0408036222986876,0.5084111483000219
1772785936111553000,1.771552978515625,-0.8418482992708682,-0.9433291903659701,0.42522520783022044
1772785936121569000,1.781569091796875,-0.8767138609468936,-0.5981162614054978,0.38258068271577356
1772785936131584800,1.791584716796875,-1.152698793771863,-0.17180983420982956,0.38515360194370146
1772785936141602000,1.80160205078125,-1.5780606335937977,0.16599471819028258,0.39927228979766366
1772785936151618000,1.8116181640625,-2.1062229226768014,0.5362199233323335,0.3047162295296788
1772785936161634800,1.821634765625,-2.713181100577116,0.9900481253124773,0.14685761765241623
1772785936171650800,1.83165087890625,-3.1114760697752235,1.3637633645273743,0.16472192177549003
1772785936181666800,1.841666748046875,-3.1162866849273443,1.54065810078606,0.2761566361300647
1772785936191684000,1.85168408203125,-2.7549077801942823,1.5598418169446289,0.41692236664816734
1772785936201700000,1.8617001953125,-2.174886124536395,1.4831971148118377,0.5937520748466253
1772785936211716900,1.871716796875,-1.48314596914649,1.365063925731927,0.7047850034672767
1772785936221732900,1.88173291015625,-0.8111690833687781,1.239873950008303,0.7678495816022157
1772785936231748900,1.891748779296875,-0.15337795933187007,1.0930794607199728,0.7493496829893439
1772785936241766000,1.901765869140625,0.5008353062182664,0.969845002978295,0.6808803232014179
1772785936251782000,1.911781982421875,1.1361743599504233,0.8468933807659894,0.5319020601332187
1772785936261799000,1.921798828125,1.5770891582131386,0.7700606817804276,0.3535392971485853
1772785936271815000,1.93181494140625,1.8507862723618744,0.8235836707185953,0.09960881361290812
1772785936281831000,1.941830810546875,2.0293588787049055,0.8789480497397482,-0.18173706172332166
1772785936291848400,1.951848388671875,2.1538725626021624,0.7708529281366616,-0.41635728011131284
1772785936301864400,1.961864501953125,2.2353151665359734,0.5600871941972524,-0.6262301568642258
1772785936311881500,1.971881591796875,2.101782894402742,0.2724240254729986,-0.8512545716501771
1772785936321897500,1.9818974609375,1.8832897810816764,-0.06534125436265022,-1.0651980588428676
1772785936331913500,1.99191357421875,1.6246370913296937,-0.4677537053495645,-1.1857143436670303
1772785936341930500,2.001930419921875,1.1533674868136643,-0.8576995100058614,-1.285633538403362
1772785936351946500,2.011946533203125,0.4038683854162693,-1.2161753867737948,-1.4301425471030176
1772785936361963500,2.021963623046875,-0.24774668033421038,-1.3122864213988183,-1.6059408664271235
1772785936371979500,2.0319794921875,-0.6020271512389183,-1.1317369620248674,-1.6438997179433703
1772785936381995500,2.04199560546875,-0.8136258288711309,-0.8726452963337302,-1.6165673282511532
1772785936392012500,2.052012451171875,-0.943808790576458,-0.5518631538724527,-1.6183149025708436
1772785936402028500,2.062028564453125,-0.8325865499287843,-0.43627036999035623,-1.4901770368270575
1772785936412045600,2.072045654296875,-0.6405319462001323,-0.516376464623399,-1.4129904829025268
1772785936422061600,2.0820615234375,-0.342584772413969,-0.623103110884875,-1.3159662789553404
1772785936432077300,2.092077392578125,0.04785129997730255,-0.7141073238901794,-1.1954333352573214
1772785936442094600,2.102094482421875,0.46714287997484205,-0.7267863343298435,-1.0478251914985477
1772785936452110600,2.112110595703125,0.8155991747707128,-0.6703145055234432,-0.8464315354079007
1772785936462127400,2.12212744140625,1.0666308681249619,-0.5852117351142689,-0.6629929304637014
1772785936472143400,2.132143310546875,1.2797124777913094,-0.4860990344552323,-0.459095474858582
1772785936482159600,2.14215966796875,1.401602242925763,-0.3739411203926429,-0.2877053273655474
1772785936492176600,2.1521767578125,1.4575117616742848,-0.2804975879438221,-0.16727379821538924
1772785936502192400,2.1621923828125,1.4731652578800916,-0.16594149016570298,-0.03474661147147417
1772785936512209400,2.17220947265625,1.508008607724309,-0.05689100406654179,0.030490415331721303
1772785936522225700,2.1822255859375,1.5429805523842572,0.028509726375900206,0.0814629160694778
1772785936532241700,2.19224169921875,1.5254747063100338,0.05740523719899356,0.14672931509763001
1772785936542258400,2.202258544921875,1.439848094689846,-0.025403138662688434,0.2045695096477866
1772785936552274400,2.2122744140625,1.2838397868543863,-0.17003135329522193,0.15509806112274527
1772785936562291700,2.222291748046875,1.197570785677433,-0.36047264007572083,0.1433477098353207
1772785936572307700,2.2323076171875,1.1402724429190159,-0.5723345352213829,0.15461597669422625
1772785936582323500,2.242323486328125,1.075976204097271,-0.736853043379262,0.10452478883564471
1772785936592340500,2.252340576171875,0.9823457342416048,-0.8019364139907061,0.07799421704560518
1772785936602356500,2.2623564453125,0.8392752339124679,-0.8804939640074968,0.04919423901885748
1772785936612373500,2.27237353515625,0.8029320008993148,-0.9826838801547885,-0.008228753032535315
1772785936622389500,2.282389404296875,0.8024860106974839,-1.0994237151801585,-0.09890198051780462
1772785936632405500,2.292405517578125,0.8003554284095764,-1.2472953321807085,-0.15250088423639535
1772785936642422500,2.302422607421875,0.7471089913904666,-1.334161130207032,-0.15995105411186814
1772785936652438500,2.3124384765625,0.6342383990138769,-1.4147114614762366,-0.20763927248194813
1772785936662455600,2.32245556640625,0.4758294597774744,-1.4146820892512797,-0.19427374108284712
1772785936672471600,2.332471435546875,0.3010059768348932,-1.3101973401650786,-0.17578487532064319
1772785936682487600,2.342487548828125,0.04866027827262878,-1.1312213406529277,-0.14745996745973824
1772785936692504300,2.35250439453125,-0.1583177538216114,-1.0564956238839776,-0.15127558022513984
1772785936702520600,2.3625205078125,-0.3461526940286159,-1.1517096366040407,-0.1741727639488876
1772785936712537600,2.37253759765625,-0.508648610317707,-1.2139202282581478,-0.23482333974465727
1772785936722553600,2.3825537109375,-0.591902647587657,-1.1927629470042884,-0.2917648318894207
1772785936732569300,2.3925693359375,-0.582417026361823,-1.1566210087168962,-0.27009171006791294
1772785936742586600,2.402586669921875,-0.5370458527624606,-1.1706025531224906,-0.21995529482811688
1772785936752602600,2.4126025390625,-0.4685550848603248,-1.2606330987900496,-0.1292998221952468
1772785936762618600,2.42261865234375,-0.401787487488985,-1.3790164632387458,-0.016926219555363057
1772785936772635400,2.432635498046875,-0.5170218863874674,-1.4362946399919687,-0.04577215561568737
1772785936782651400,2.4426513671875,-0.7193915479034185,-1.4947450753949583,-0.18359971379004417
1772785936792668700,2.452668701171875,-1.0384417154729366,-1.5675351479262112,-0.6326775794379412
1772785936802684700,2.4626845703125,-1.3948650436252354,-1.017967813373357,-1.2216894740201532
1772785936812700400,2.472700439453125,-1.766042873317003,-0.2930290431389585,-1.9463126389667391
1772785936822717400,2.482717529296875,-2.0156325511693955,-0.5205286523994058,-2.550515088418126
1772785936832733400,2.4927333984375,-2.2924054195016623,-0.6562393645502627,-2.6476719788342713
1772785936842750500,2.50275048828125,-2.597667300215363,-0.05684716492481529,-1.916025052730739
1772785936852766500,2.512766357421875,-2.5107342821717262,0.5325719222187996,-0.6506340918891131
1772785936862782500,2.522782470703125,-2.225862278535962,1.1918510928563772,0.4062522848781198
1772785936872799500,2.532799560546875,-1.90411512696743,1.881500997968763,1.1066695215899496
1772785936882815500,2.5428154296875,-1.477174493521452,2.448988312354684,1.485283273436129
1772785936892832500,2.55283251953125,-1.011424529209733,2.7547546354591845,1.549557008165121
1772785936902848500,2.5628486328125,-0.4756839138269424,2.843768551430106,1.4046183758765458
1772785936912864500,2.572864501953125,0.18298165495693683,2.254780622245371,1.0713969134829937
1772785936922881500,2.582881591796875,0.8041635885208844,1.596020068654418,0.5924809954648838
1772785936932897500,2.5928974609375,1.2504887213945388,1.0133381808113306,0.13838625150304287
1772785936942914600,2.60291455078125,1.5852742182344197,0.5251571159176528,-0.1957136742254719
1772785936952930600,2.6129306640625,1.8286603652715683,0.16154281681533902,-0.4661112719047814
1772785936962946300,2.6229462890625,2.0125053590595723,-0.12142623927593231,-0.5884795412711799
1772785936972963600,2.632963623046875,2.001292475649714,-0.24134203745629637,-0.5967415755188092
1772785936982979600,2.6429794921875,1.8660107295006512,-0.09235157249365002,-0.6316286549068987
1772785936992996400,2.652996337890625,1.7827023316949604,0.23481387779656795,-0.5469539006514474
1772785937003012400,2.663012451171875,1.758279253578186,0.6328503056563437,-0.35760059177074577
1772785937013028600,2.673028564453125,1.6845020697057247,1.0964558052852749,-0.08130538742020725
1772785937023045600,2.683045654296875,1.4925515108734368,1.4127436685346066,0.2641217688128352
1772785937033061600,2.6930615234375,1.243020869731903,1.6256323859773576,0.5100734554890543
1772785937043077400,2.703077392578125,1.0379700063079595,1.7812173538342118,0.7481007789067924
1772785937053094400,2.713094482421875,0.7584387791782617,1.8565391368001698,1.005026498735696
1772785937063110700,2.723110595703125,0.4718114563077688,1.6946239430084824,1.1456615886114536
1772785937073127400,2.73312744140625,0.36760698546767234,1.3902493665233253,1.2714450001835822
1772785937083143400,2.743143310546875,0.3123398562759161,1.301757136338949,1.3648480910241603
1772785937093159400,2.753159423828125,0.2203267584890127,1.322024556080997,1.4303959373421966
1772785937103176700,2.7631767578125,0.12444704840183257,1.4591849555835128,1.4040918677844105
1772785937113192400,2.7731923828125,0.038003859701752664,1.6814407824389634,1.307086953059584
1772785937123209500,2.78320947265625,-0.053798225682973856,1.8680007342740892,1.175134789724648
1772785937133225500,2.7932255859375,-0.16296879449784754,1.9112483398482203,1.0521717693354933
1772785937143241500,2.803241455078125,-0.20746903048157692,1.283891663172096,0.8583711987223476
1772785937153258500,2.813258544921875,-0.09746785606145858,0.4918444827720523,0.6506117339268327
1772785937163274500,2.8232744140625,0.011977438041567801,-0.08921557602286338,0.42791546982750295
1772785937173291500,2.83329150390625,0.09299041838645934,-0.5385595452610403,0.19913404059559106
1772785937183307500,2.8433076171875,0.18743454271256924,-0.8115057679772376,-0.04215666853226721
1772785937193323500,2.853323486328125,0.33069209004640576,-0.8277402058761566,-0.2244946918234229
1772785937203340500,2.863340576171875,0.481658312061429,-0.7994596486136317,-0.3769151312347501
1772785937213356500,2.8733564453125,0.5789683472126722,-0.8413405689444392,-0.47044133699834345
1772785937223372500,2.88337255859375,0.6170072782278061,-0.9207943371485918,-0.46649004208929834
1772785937233389600,2.8933896484375,0.589388618940115,-1.070355879997462,-0.3458325221635401
1772785937243405600,2.903405517578125,0.5027309107065201,-1.2592954204455018,-0.20206271445862947
1772785937253422600,2.913422607421875,0.37259529527425767,-1.5199328542739152,-0.08552753515988588
1772785937263438300,2.923438232421875,0.19488310515284538,-1.2811660376004874,0.13100823354832827
1772785937273454300,2.933454345703125,-0.08277882097363472,-0.8832022000528872,0.28585918804220856
1772785937283471600,2.9434716796875,-0.3105360217243433,-0.5394315788552164,0.4422513075634837
1772785937293486600,2.953486572265625,-0.4568272376656532,-0.27432372161448,0.6009206513017415
1772785937303503600,2.963503662109375,-0.4282236589938402,-0.1347348528560251,0.7652893026601523
1772785937313519600,2.97351953125,-0.28133447715938087,-0.0430051751203835,0.8799869643334299
1772785937323535600,2.98353564453125,-0.12017185530066489,0.012462956536188721,0.9184593183297663
1772785937333552600,2.993552734375,0.046070261779427524,-0.002765080799162388,0.8783438002362847
1772785937343568600,3.003568603515625,0.2043541133314371,0.0001945727240294218,0.7771721942860633
1772785937353584600,3.013584716796875,0.36697920895814895,-0.05658069600835442,0.7026463109381497
1772785937363601700,3.0236015625,0.4724199435949325,-0.10130188126638531,0.7101026182934641
1772785937373617700,3.03361767578125,0.5276952560931444,-0.12088562959320842,0.7287766313642263
1772785937383634700,3.043634765625,0.48612698190808296,-0.1472037276763469,0.7374153534371405
1772785937393650400,3.053650390625,0.3699596860736608,-0.17061361016258597,0.743055624346435
1772785937403666700,3.063666748046875,0.2368225507378578,-0.17128529887907207,0.7465742269266397
1772785937413683700,3.07368359375,0.13706161530315875,-0.2526344523757696,0.7675438035886735
1772785937423699700,3.08369970703125,0.11815934643447398,-0.3919112595103681,0.7992738437179475
1772785937433716500,3.093716552734375,0.12984101639986037,-0.5399567717730999,0.8233861023198813
1772785937443732700,3.103732666015625,0.1161193650394678,-0.6871982741765678,0.8417138592362403
1772785937453748700,3.113748779296875,0.07836451166272163,-0.7482105959568173,0.8431235799036919
1772785937463765500,3.123765625,-0.05561550423800945,-0.8184943847555667,0.7883914343714714
1772785937473781500,3.133781494140625,-0.2408048983722925,-0.7998064892899245,0.7386175688337534
1772785937483797500,3.143797607421875,-0.41559740165472026,-0.800995406813547,0.6288449424725026
1772785937493814800,3.153814697265625,-0.6125678344756365,-0.6122495623067021,0.5606742003049701
1772785937503830800,3.163830810546875,-0.9044260437369346,-0.27690906193256376,0.5529908792607486
1772785937513847600,3.17384765625,-1.304319680303335,0.01286693422719836,0.5968850391101092
1772785937523863600,3.183863525390625,-1.606529187709093,0.26098010978624225,0.6816009656261652
1772785937533879600,3.193879638671875,-1.9207932900458573,0.553331363261491,0.6528172811470926
1772785937543896600,3.203896484375,-2.257485497289896,0.8451690411914139,0.5504200789246708
1772785937553912600,3.21391259765625,-2.350975681892037,1.0706350622650236,0.5482072251807898
1772785937563929600,3.2239296875,-2.2651883267521855,1.2004803164485842,0.5368056873310357
1772785937573945600,3.233945556640625,-2.070369519007206,1.2858940890356898,0.4988103762619197
1772785937583961600,3.243961669921875,-1.7818255488604307,1.3874337245807051,0.5326357812352478
1772785937593978600,3.253978515625,-1.3868629389554261,1.4988514878004788,0.5418215427316725
1772785937603994600,3.26399462890625,-0.918897636681795,1.5732906427130102,0.6019484599795192
1772785937614010600,3.2740107421875,-0.43471126744747157,1.579508055923134,0.7049370522238314
1772785937624027600,3.284027587890625,-0.055147302204370495,1.5631705229759216,0.7030830218549817
1772785937634043600,3.294043701171875,0.28537527698278425,1.4934282937079668,0.6108149263937026
1772785937644060700,3.304060791015625,0.5762935750454664,1.3426274913877247,0.403378921398893
1772785937654076700,3.31407666015625,0.7505711145430802,1.1322018030576406,0.08148717372789978
1772785937664092400,3.324092529296875,0.7915466835319995,0.825965889680013,-0.3902452259942889
1772785937674109700,3.334109619140625,0.7600456298530102,0.46208420834578573,-0.7901946113359183
1772785937684125700,3.344125732421875,0.7278384737312793,0.06545414015259593,-1.1041487709406763
1772785937694141700,3.3541416015625,0.596561287048459,-0.3139759330451488,-1.4234665764704346
1772785937704158500,3.364158447265625,0.37285657655894755,-0.6971103771861642,-1.7009942086927592
1772785937714174700,3.3741748046875,0.04295417558550835,-1.0361550658404826,-2.0341993044734
1772785937724191700,3.384191650390625,-0.29138123939931393,-1.2572734130986034,-2.262756277299672
1772785937734207700,3.394207763671875,-0.5094160875588655,-1.0798528263349085,-2.299886715167761
1772785937744223500,3.404223388671875,-0.724276981857419,-1.2035393386930227,-2.2605334866836664
1772785937754240500,3.414240478515625,-0.9231757523924112,-1.3673860850691795,-2.213051604540646
1772785937764256800,3.4242568359375,-0.9654466218888759,-1.4638817350976168,-2.125934754362702
1772785937774272800,3.434272705078125,-0.770536628729105,-1.3252189682081341,-1.9472972660899162
1772785937784289500,3.44428955078125,-0.484271124908328,-1.1683267902102321,-1.7827333113551138
1772785937794305500,3.454305419921875,0.020406828212738037,-0.918787381240353,-1.5078877578236163
1772785937804322800,3.46432275390625,0.6503484068155289,-0.6930277840476483,-1.114748271692544
1772785937814338600,3.474338623046875,1.2633932111531496,-0.517219966242835,-0.616883871043846
1772785937824354600,3.4843544921875,1.6555010161489248,-0.43535862544029946,-0.1317496265001595
1772785937834371600,3.49437158203125,1.6914111184418201,-0.3631551936905831,0.17630320010632275
1772785937844387600,3.5043876953125,1.571905033573508,-0.2240789140967652,0.36376463082581756
1772785937854404600,3.514404541015625,1.2506067948162556,-0.04099083962328732,0.4451663547599688
1772785937864420600,3.524420654296875,0.8549579562127589,0.12392298799511045,0.4512545520998537
1772785937874436600,3.5344365234375,0.5299573558062315,0.2797937139907852,0.4237359191205352
1772785937884453600,3.54445361328125,0.29495559075474737,0.34594219308309254,0.3840463713541627
1772785937894469600,3.5544697265625,0.11643851399123668,0.27550938773509115,0.24332725645676254
1772785937904485600,3.564485595703125,0.038158758002519604,0.10313117905277758,0.11075228504836558
1772785937914502700,3.574502685546875,0.06733692169189452,-0.1366453261198476,-0.008239566687494516
1772785937924518700,3.5845185546875,0.18226970729529857,-0.3696544925820082,-0.08851319990716874
1772785937934535700,3.59453564453125,0.3455097199499607,-0.5655118861271068,-0.1012005397837609
1772785937944551700,3.6045517578125,0.5272410825848579,-0.7319685592733323,-0.12123046097550541
1772785937954567700,3.614567626953125,0.6955027227938175,-0.8637818986594676,-0.1045631480846554
1772785937964584700,3.624584716796875,0.8314163371056318,-0.9515105971254407,-0.10464545607324689
1772785937974600400,3.634600341796875,0.944015711325407,-0.9960985113926232,-0.09721742496434599
1772785937984616400,3.644616455078125,0.9805050748109817,-1.0118876166768371,-0.05182224943488836
1772785937994633700,3.6546337890625,1.0178080927670001,-1.067493914695084,0.040518253675475714
1772785938004649700,3.664649658203125,1.0049521183252335,-1.1751356665074824,0.11515030081160366
1772785938014666500,3.67466650390625,0.9544248771369457,-1.322524322296679,0.14372728373743593
1772785938024682500,3.6846826171875,0.941367242643237,-1.3222028352573514,0.24259821152985095
1772785938034698800,3.69469873046875,0.9069733901321887,-1.257574441871792,0.33423495028503236
1772785938044715500,3.704715576171875,0.9023819706887006,-1.1518149966746567,0.44060770507492125
1772785938054731500,3.7147314453125,0.8976239625066518,-1.0632420294042677,0.5210382093567401
1772785938064747500,3.72474755859375,0.8874532816261053,-0.980147858871147,0.5619048746110871
1772785938074764800,3.734764892578125,0.7677186486989259,-0.9096151368126273,0.5447958458347246
1772785938084780800,3.74478076171875,0.6320844358503818,-0.8114583486389368,0.525428516737558
1772785938094796500,3.754796630859375,0.48136838920414443,-0.7229604924313724,0.5215625620244071
1772785938104813600,3.7648134765625,0.2050689836025238,-0.6557580107741058,0.4473906066806987
1772785938114829600,3.77482958984375,-0.09372340883612632,-0.6286418211158364,0.40668512333743273
1772785938124846600,3.7848466796875,-0.3352653893113136,-0.7456226983554661,0.3832586915751919
1772785938134862600,3.794862548828125,-0.5196107338368893,-0.9113421067357063,0.33404516333397477
1772785938144878600,3.804878662109375,-0.631405221414566,-1.0436537510327994,0.22563838196583091
1772785938154895600,3.8148955078125,-0.6435714600265026,-1.2215771727520972,0.07452723505478352
1772785938164911900,3.824911865234375,-0.7241302668631077,-1.5251257467418908,-0.21895466641820965
1772785938174927600,3.834927734375,-1.0038006102025507,-1.8884118002705275,-0.7301055418804288
1772785938184944600,3.844944580078125,-1.5662240653276442,-1.7152449984937905,-1.3944962103128433
1772785938194960600,3.854960693359375,-2.001112442907691,-1.6310922588184475,-2.067986861654371
1772785938204977400,3.864977294921875,-2.2859832774996756,-2.052608529128134,-2.3947328444235025
1772785938214993700,3.87499365234375,-2.4288135393321513,-1.6128443622052668,-1.985691440283507
1772785938225009700,3.885009765625,-2.6349498599052428,-0.4265307374708354,-1.0850208035573363
1772785938235026700,3.895026611328125,-2.56009364862442,0.5100332696091383,-0.0800066254470963
1772785938245042700,3.905042724609375,-2.142656756582856,1.4862385283343493,0.7553953928943723
1772785938255058400,3.915058349609375,-1.6589344977289437,2.1941431981921196,1.349315298588574
1772785938265075700,3.92507568359375,-1.2266402282953262,2.5424048471987244,1.7224349099978804
1772785938275091700,3.935091796875,-0.8180664416670799,2.685675838536024,1.822170710991323
1772785938285108500,3.9451083984375,-0.30799452054798604,2.601543849387765,1.6733255727835
1772785938295125800,3.955125732421875,0.29989304715692994,2.2002920762106775,1.3338948804862796
1772785938305141800,3.965141845703125,0.8338789278268813,1.6797221419528126,0.8870543454363942
1772785938315158500,3.975158447265625,1.1745318553954363,1.2591636107593773,0.39130693694166835
1772785938325174500,3.985174560546875,1.3006149805665015,0.8735941214911639,-0.11886280026240274
1772785938335190500,3.9951904296875,1.3700865761995316,0.49331744140144435,-0.5469896660845727
1772785938345207800,4.005207763671875,1.428626443451643,0.19523725235275924,-0.8009648655448108
1772785938355223600,4.0152236328125,1.5033265873879194,0.020843210336007178,-0.8606420662637799
1772785938365239600,4.025239501953125,1.4294430205315352,0.014267887066304682,-0.7414500888459384
1772785938375256600,4.035256591796875,1.274932842299342,0.21100045601073653,-0.5796767877429724
1772785938385272800,4.04527294921875,1.1047913796931506,0.5742784358307719,-0.3717990668626502
1772785938395289600,4.05528955078125,1.0176198767185212,0.9756168643780052,-0.1800277187884785
1772785938405305600,4.0653056640625,1.1023217747092247,1.4054929667539893,0.06526277316580525
1772785938415321600,4.075321533203125,1.2016139235883951,1.7595159557662903,0.33712537449691443
1772785938425338600,4.085338623046875,1.351484167060256,1.9776456426024436,0.6196570620842278
1772785938435354600,4.095354736328125,1.445189455717802,2.033534264693409,0.8494185883946717
1772785938445370600,4.10537060546875,1.5023632953137158,1.5391311834797263,0.9450255459550767
1772785938455387600,4.1153876953125,1.4886217702090738,1.4421096098810433,1.0012358742810785
1772785938465403600,4.125403564453125,1.3560966292917727,1.4502042151398955,1.0067110908217727
1772785938475419600,4.135419677734375,1.1416641895383595,1.5244770735748112,0.9471807512275874
1772785938485436700,4.145436767578125,0.9087433224141597,1.5796372352607548,0.9231678613469004
1772785938495452700,4.15545263671875,0.6517769783139229,1.6099128387980162,0.8794742655709386
1772785938505469400,4.165469482421875,0.30333471204340456,1.5893990430794656,0.8387675766512751
1772785938515485400,4.1754853515625,-0.015156068077683448,1.5783876735910773,0.8159656699955463
1772785938525501700,4.185501708984375,-0.2773205653429031,1.4634893747791646,0.7890166535977273
1772785938535518700,4.195518798828125,-0.5594324566155672,1.0289419195912777,0.7100591444779187
1772785938545534700,4.20553466796875,-0.6029822600066661,0.4137188213665038,0.6009356296751648
1772785938555550500,4.215550537109375,-0.3418096963882446,0.03848623639121652,0.48450939064361154
1772785938565567700,4.225567626953125,0.00012567220628261565,-0.1544446387153119,0.42107539467439054
1772785938575583700,4.235583740234375,0.29904958207011223,-0.19176482700183986,0.40938780642487105
1772785938585599700,4.245599853515625,0.5585919141381979,-0.20137261330261824,0.3962253233171999
1772785938595616500,4.255616455078125,0.7164461421012878,-0.1958453743137419,0.39319684234149754
1772785938605632500,4.265632568359375,0.7780752075403928,-0.2595744807720184,0.35559330706894393
1772785938615649800,4.27564990234375,0.7066939788937568,-0.35279227817356584,0.30685243784077465
1772785938625665800,4.285665771484375,0.5714958193749189,-0.43680297902971504,0.2940864067047834
1772785938635681500,4.295681640625,0.3798386905312538,-0.5217214423805475,0.33581177114769817
1772785938645698600,4.305698486328125,0.11373393120765686,-0.5665456496216357,0.36990517940744755
1772785938655714600,4.315714599609375,-0.11225333726108074,-0.5609443224832416,0.4516439167436212
1772785938665730800,4.325730712890625,-0.272494168099761,-0.47780134437233207,0.5290455747235566
1772785938675747600,4.33574755859375,-0.347083252876997,-0.3650654842913151,0.5654289205513894
1772785938685763600,4.345763671875,-0.47081601552963254,-0.2591930802389979,0.5031842804972082
1772785938695779600,4.355779541015625,-0.5641477946996688,-0.20724735055491328,0.39566476682499047
1772785938705796600,4.365796630859375,-0.5836760865122079,-0.21335589656308293,0.3374755761740729
1772785938715812600,4.3758125,-0.587357405373454,-0.28362141905277966,0.1825960531728342
1772785938725829600,4.38582958984375,-0.42755496595203873,-0.3687031101413071,0.12900763431563972
1772785938735845600,4.395845703125,-0.20435294428765774,-0.5010488028384745,0.10516794557739048
1772785938745861600,4.405861572265625,-0.032715105643868446,-0.6323975934527813,0.04946436119712889
1772785938755878700,4.415878662109375,0.14390519758760928,-0.7389316762842237,0.07326780957821756
1772785938765894700,4.425894775390625,0.26790976291894913,-0.8464030399657786,0.10501494697276502
1772785938775910700,4.43591064453125,0.2781979326993227,-0.910877265702933,0.13268566524125636
1772785938785927400,4.445927490234375,0.22657705105543136,-0.899405731356889,0.11263893904518335
1772785938795943700,4.455943603515625,0.15079144997000693,-0.8800671168975531,0.09226005828529596
1772785938805959700,4.465959716796875,0.11474924573004246,-0.8326685291238128,0.057370312016084786
1772785938815976700,4.475976806640625,0.0914198080688715,-0.7488914908930658,0.030405513527244327
1772785938825992700,4.48599267578125,0.13777707009613513,-0.5835530446544289,0.12298998146131634
1772785938836009700,4.496009765625,0.23562720347344873,-0.31910321293100713,0.30387546785660086
1772785938846025700,4.506025634765625,0.37158231883943077,-0.014740911405533552,0.36868407664727415
1772785938856041700,4.516041748046875,0.4063678010165691,0.30613486415594815,0.22061043426860122
1772785938866058500,4.52605859375,0.4610328726619482,0.8312845274195074,0.26210509522818026
1772785938876074500,4.536074462890625,0.30922610816955565,1.3308204414770006,0.38844577535688873
1772785938886090500,4.546090576171875,-0.01937280898988247,1.6006398374095558,0.4735843842644244
1772785938896107800,4.556107666015625,-0.4251958356052637,1.7019138077557086,0.49371385684050617
1772785938906123500,4.56612353515625,-0.8396580957502127,1.6691119006112216,0.3841406985741108
1772785938916139500,4.576139404296875,-1.3195780397117136,1.581479355996102,0.2597149121560156
1772785938926156500,4.586156494140625,-1.7723942881703376,1.4355616495423018,0.08876176784075795
1772785938936172800,4.5961728515625,-2.091363207197189,1.1783099856946617,-0.026533129073306915
1772785938946188800,4.606188720703125,-2.0845646330982444,0.979033614018932,-0.04095569524466991
1772785938956205600,4.61620556640625,-1.8678776924163103,0.8979103782325982,-0.03659355451241136
1772785938966221600,4.6262216796875,-1.5258745192825793,0.8448035688798874,-0.0027254794411361214
1772785938976237600,4.636237548828125,-0.9536965628623962,0.7369391142275183,0.03715221130847931
1772785938986254600,4.646254638671875,-0.25484569868445395,0.5762590151887387,0.034144626990333195
1772785938996270600,4.6562705078125,0.3610948270946741,0.35857729131579397,-0.023817367308586836
1772785939006287600,4.66628759765625,0.736623253211379,0.031215332072786987,-0.17250234651863575
1772785939016303600,4.6763037109375,0.6551660362303257,-0.38215186284445224,-0.4071365203667432
1772785939026319600,4.686319580078125,0.3905839564293623,-0.7289716424796729,-0.7208315906438976
1772785939036336600,4.696336669921875,0.11498948422670363,-0.9205367821909487,-0.9965000048656016
1772785939046352600,4.7063525390625,-0.1420177764058113,-0.937035789310187,-1.1852545441355555
1772785939056368600,4.71636865234375,-0.35633038917183874,-0.9104989339098334,-1.3275704997703432
1772785939066385700,4.7263857421875,-0.4040840739935636,-0.705501846499741,-1.3707098226644099
1772785939076401700,4.736401611328125,-0.3074374711871147,-0.3508241929709911,-1.3213276598580181
1772785939086417700,4.746417724609375,-0.18497545912265775,-0.100709139537625,-1.2365370606705546
1772785939096434700,4.7564345703125,-0.01816810937523842,0.040281303114444014,-1.1681158508732914
1772785939106450400,4.766450439453125,0.23909634088873863,0.18265859701503068,-1.1710129605542867
1772785939116466400,4.776466552734375,0.49473991195261474,0.3148946918578818,-1.170116815432161
1772785939126483700,4.786483642578125,0.7297510293543338,0.25284502638652917,-1.0762377045776694
1772785939136499700,4.796499755859375,0.9120704210102557,0.11197689493987709,-0.917626374636963
1772785939146515700,4.806515625,0.9993389546185731,0.046920412335358555,-0.8189224739745259
1772785939156532500,4.816532470703125,1.028474448210001,0.08816438646949827,-0.7634685169737786
1772785939166548700,4.826548828125,1.132647939389944,0.12258107186686247,-0.675421838599816
1772785939176565800,4.836565673828125,1.3184855682998895,0.0656300812413916,-0.5441401949375868
1772785939186581500,4.84658154296875,1.523167013889551,-0.04628321041036397,-0.4692207456948235
1772785939196597500,4.856597412109375,1.70273213840127,-0.19321761962603776,-0.4638645158912986
1772785939206614800,4.86661474609375,1.867064622467756,-0.36254550082702186,-0.4700069641690701
1772785939216630800,4.876630859375,2.0553332779169082,-0.5600468987194821,-0.42823688380159436
1772785939226646800,4.886646728515625,2.2482634954363108,-0.7222619887731969,-0.38390053314268585
1772785939236663600,4.89666357421875,2.4169904150694608,-0.8385073182798921,-0.4193943827848881
1772785939246679600,4.906679443359375,2.56113818924129,-0.8927955194368958,-0.4647211692532524
1772785939256695800,4.91669580078125,2.4793548090457915,-0.8133360521443188,-0.5679149652134626
1772785939266712600,4.926712646484375,2.1941262470573184,-0.5867788748331367,-0.6648230685003101
1772785939276728600,4.936728515625,1.770386455479264,-0.36789413184598085,-0.6783690710328519
1772785939286744600,4.94674462890625,1.4127613503217695,-0.21342384723275898,-0.628049335115403
1772785939296761300,4.95676123046875,1.2550000613391399,-0.1892925368704833,-0.4850323916044086
1772785939306777600,4.966777587890625,1.238975393733382,-0.2220812740061432,-0.3549288152782246
1772785939316793300,4.97679345703125,1.3602017265230417,-0.27434184179306026,-0.1873121949745342
1772785939326810400,4.986810302734375,1.5359411552667617,-0.23158939932473002,-0.06039842766560614
1772785939336826400,4.996826416015625,1.7007167069256304,-0.07316828102676663,0.07547821563668548
1772785939346843400,5.006843505859375,1.8223761704355477,0.11039468551604077,0.20371376960128545
1772785939356859400,5.016859375,1.8400638028174638,0.21307841306226327,0.305167188167572
1772785939366875400,5.02687548828125,1.8176818751394748,0.23885338071202858,0.38982097270023075
1772785939376892400,5.036892333984375,1.821396511748433,0.19049376588640735,0.45556426852513104
1772785939386908400,5.046908447265625,1.7641747413575648,0.00934671279535396,0.42566133422516284
1772785939396924400,5.05692431640625,1.6126806960761546,-0.2524580180966295,0.31348413094021377
1772785939406941400,5.06694140625,1.541653103172779,-0.44034941946491596,0.20877245949665083
1772785939416957400,5.07695751953125,1.618884811413288,-0.5556302513210103,0.018608985010534523
1772785939426973400,5.086973388671875,1.8008242638409138,-0.6386122301839292,-0.1277633698755875
1772785939436990200,5.096990234375,2.0034575447291134,-0.7015289242807775,-0.23567738102441652
1772785939447006500,5.10700634765625,2.1404723982810974,-0.6887505451198667,-0.2957458460832946
1772785939457022500,5.1170224609375,2.1661527829825875,-0.615096622300893,-0.33725828016158194
1772785939467039200,5.127039306640625,1.9662223313122986,-0.5449238195959478,-0.3396432025367394
1772785939477055200,5.13705517578125,1.5647960783511399,-0.3627724414506927,-0.3584566606108099
1772785939487071200,5.1470712890625,0.8770832787811755,-0.10460371755706145,-0.41131059118099506
1772785939497088500,5.157088623046875,0.11698738004565239,0.12236914614923297,-0.45603842537552114
1772785939507104500,5.1671044921875,-0.4181073386490345,0.11657519164872356,-0.4830995969109237
1772785939517120300,5.177120361328125,-0.681831340315938,-0.13997800507335922,-0.3727617013497278
1772785939527137300,5.18713720703125,-0.7995844440370797,-0.5783819256268441,-0.33786676744874566
1772785939537153500,5.197153564453125,-0.6332026262253523,-0.9703197808831929,-0.08553986491849645
1772785939547169500,5.20716943359375,-0.38570904386937616,-1.2403705013535915,0.20887303379429503
1772785939557186300,5.217186279296875,-0.30660277392864227,-1.3136316985279322,0.27232469328437
1772785939567202300,5.227202392578125,-0.38010230990350247,-1.2647634765930473,0.23393028162876142
1772785939577218300,5.23721826171875,-0.5506546913981437,-1.197003141857311,0.09735742709008045
1772785939587235300,5.2472353515625,-0.6525894637405872,-1.1841906412310899,-0.0933283451039344
1772785939597251300,5.257251220703125,-0.8451444182068109,-1.2819815917670725,-0.32294786912780254
1772785939607267300,5.267267333984375,-1.087639753884077,-1.380930918557942,-0.6111068950776011
1772785939617284400,5.277284423828125,-1.2709656922340393,-1.5018562225744128,-0.869084242851287
1772785939627300400,5.28730029296875,-1.372338739040494,-1.4857852316088973,-1.080125432731211
1772785939637317400,5.2973173828125,-1.3094792550235985,-1.422213799930364,-1.3243008304499089
1772785939647333400,5.30733349609375,-0.9206202226907014,-1.4749942268729208,-1.4927878038473426
1772785939657349400,5.317349365234375,-0.3594827157229185,-1.7442178488694131,-1.6774296471014618
1772785939667366100,5.3273662109375,-0.03107318365573883,-2.06565695740208,-1.7885234390638767
1772785939677382400,5.33738232421875,0.2203092228323221,-2.2488890799887478,-1.7970469372592865
1772785939687398400,5.3473984375,0.43134851301610466,-2.111474705725163,-1.8517492721751332
1772785939697415400,5.35741552734375,0.7198802082031965,-1.6116761952087282,-1.8665604723379015
1772785939707431400,5.367431396484375,1.0422036983549594,-0.9965788422554731,-1.6885301561780273
1772785939717447200,5.377447265625,1.1048059927403926,-0.39524866030476985,-1.2587494770005345
1772785939727464400,5.38746435546875,1.0348615188986063,0.27919607689119874,-0.6504346968594938
1772785939737480400,5.39748046875,1.1086965704381466,1.063404380359128,0.11744356284793465
1772785939747496400,5.407496337890625,1.0581973863005638,1.6169728403121233,0.6315474063642322
1772785939757513200,5.41751318359375,0.7017442475318908,1.8038228611350058,1.0681140924200414
1772785939767529500,5.427529541015625,0.04998422035276889,1.6276523474976419,1.1408448359794914
1772785939777545500,5.43754541015625,-0.49931847191452977,1.2273004457697272,1.0297142191380262
1772785939787562500,5.4475625,-0.9066285222172736,0.901660159220174,0.9767056825280189
1772785939797578200,5.457578125,-1.5425526823610067,0.6652972618833184,0.8644641818352043
1772785939807594200,5.46759423828125,-2.4401111784160134,0.6755084209047257,0.6574938946560025
1772785939817611500,5.477611572265625,-3.268947435900569,0.7213019115693867,0.6226261410228908
1772785939827627500,5.48762744140625,-3.9650358496278524,0.7243303925450891,0.8229010952819138
1772785939837643300,5.497643310546875,-4.36103598588705,1.162839079514146,1.0465144742261618
1772785939847660300,5.507660400390625,-4.755756019207835,1.6337864663384853,1.0156295796841381
1772785939857676300,5.51767626953125,-4.873264208257198,2.046484201028943,0.7189462883539497
1772785939867692500,5.527692626953125,-4.4159600007295605,2.0151837844885883,0.5449888841887935
1772785939877709300,5.537709228515625,-3.905426891839504,1.0280940705902875,0.22858786115488036
1772785939887725300,5.547725341796875,-3.2661353010892866,0.10341847156155853,0.008797273635491728
1772785939897741300,5.5577412109375,-2.7660844232469795,-0.3807212455194443,-0.17499642835669219
1772785939907758600,5.567758544921875,-2.532501292821765,-0.4875567955154925,-0.374614891468361
1772785939917774300,5.5777744140625,-2.45895441057384,-0.5086060863502323,-0.49161235451661045
1772785939927790300,5.587790283203125,-2.3405998338282106,-0.39509281215593217,-0.4242440147731453
1772785939937807400,5.597807373046875,-2.2650784366369248,-0.07592603246942162,-0.1780829961951822
1772785939947823400,5.6078232421875,-2.137293183723092,0.4241726300373673,0.1100313138300553
1772785939957839600,5.617839599609375,-1.9772113428384064,0.9755079971760511,0.4549975745530799
1772785939967856400,5.6278564453125,-1.8087421973586082,1.1203263640858232,0.7800200579978526
1772785939977872400,5.637872314453125,-1.4068769684582947,0.7812788258872926,1.1417917614407838
1772785939987888400,5.647888427734375,-0.8304998067826033,0.6293737155869603,1.347298698069155
1772785939997905400,5.657905517578125,-0.20679040056765077,0.5984557224929332,1.4596961199760436
1772785940007921400,5.66792138671875,0.2745452554106712,0.49956207141205666,1.4675541400000451
1772785940017937400,5.6779375,0.6986421898633242,0.32722309876158834,1.399056650096178
1772785940027954400,5.687954345703125,1.2092635615587233,0.17062456994801758,1.3683775803245604
1772785940037970400,5.697970458984375,1.7865221822440622,0.1034768872179091,1.383904235280305
1772785940047986200,5.707986083984375,2.2335639389544726,-0.06149900931864977,1.4120707377091049
1772785940058003500,5.71800341796875,2.4955881509661673,-0.2544074533976614,1.5027363664098083
1772785940068019500,5.72801953125,2.6505384741812943,-0.3225914934381842,1.562602659960091
1772785940078035500,5.738035400390625,2.759860434165597,-0.3448955335743725,1.4876375814773142
1772785940088052200,5.74805224609375,2.9222856233060357,-0.3545942130289972,1.488553819539398
1772785940098068500,5.758068359375,3.0731653360813853,-0.24329846875369548,1.4685696006529032
1772785940108084500,5.76808447265625,2.944847583726048,-0.17300518147423863,1.3733460163868962
1772785940118101200,5.778101318359375,2.468706573781371,-0.2070518279828131,1.248333150795847
1772785940128117200,5.7881171875,2.062838538980484,-0.3181381672911346,1.1391896161183714
1772785940138133200,5.79813330078125,1.7406950815707445,-0.47223801115676756,1.1384849749803543
1772785940148150500,5.808150634765625,1.2290975583195685,-0.5618387871049344,1.0547181658826768
1772785940158166500,5.81816650390625,0.6580453910589218,-0.5663353678718209,0.9292752383112907
1772785940168182300,5.828182373046875,0.18985972403287887,-0.8883556372933089,0.798231860384345
1772785940178199300,5.83819921875,-0.19995383254587648,-1.2454437129646538,0.6915306042924523
1772785940188215600,5.848215576171875,-0.6237392168313265,-1.473414264205098,0.6007668855121359
1772785940198231600,5.8582314453125,-1.0493424641937017,-1.4643404386505483,0.5048441765334457
1772785940208248300,5.868248291015625,-1.4451578915357588,-1.383608905595541,0.39461061812955883
1772785940218264300,5.878264404296875,-1.6031465595334768,-1.288048782851547,0.32438933664038777
1772785940228280300,5.8882802734375,-1.7067238383859396,-1.0866938513360918,0.2163030924635008
1772785940238297300,5.89829736328125,-1.9796540598154067,-0.8765297365516423,-0.052818366066459566
1772785940248313300,5.908313232421875,-2.3745319140464067,-0.4572425404682755,-0.2938433917291462
1772785940258329300,5.918329345703125,-2.4527467881053684,0.2512650637187063,-0.30365462818015365
1772785940268346400,5.928346435546875,-2.434244916731119,0.7873349110558628,-0.34359296307582404
1772785940278362400,5.9383623046875,-2.3676064986974,1.134586652367562,-0.35985041652414945
1772785940288378400,5.94837841796875,-2.547982355070114,1.2783609170518815,-0.5875658604923636
1772785940298396000,5.95839599609375,-2.7983336649447677,1.06935707821846,-0.8295914597660302
1772785940308412000,5.968411865234375,-2.8830314712822434,0.6669432755246758,-0.7487368117880076
1772785940318428000,5.978427978515625,-2.9037206235677,0.5171174557164311,-0.6487959897417575
1772785940328444700,5.988444580078125,-2.6205302894085643,0.646663726953417,-0.6058605553893373
1772785940338460700,5.998460693359375,-2.0084037689596412,0.9100384767912327,-0.525280924960412
1772785940348476700,6.0084765625,-1.1042629719048738,0.9967835710473358,-0.4060146767299622
1772785940358493700,6.01849365234375,-0.09673954178690909,0.7566406437151133,-0.28380791806820777
1772785940368509700,6.028509765625,0.7741454668760299,0.661493193425238,-0.2927975724706426
1772785940378525700,6.038525634765625,1.5230881034344435,0.7398490833900868,-0.2734127442494035
1772785940388542700,6.048542724609375,1.970402831867337,0.843057382799685,-0.25397994870059193
1772785940398559000,6.05855908203125,2.0008441473603247,1.0263632282096893,-0.28335984550714494
1772785940408574700,6.06857470703125,1.7331085719645023,1.2281480025097726,-0.3691758422195911
1772785940418591700,6.078591796875,1.2732044110715388,1.5135671186342834,-0.5402901684459298
1772785940428607700,6.088607666015625,0.767015468865633,1.3946882257536053,-0.8076227159988134
1772785940438623700,6.098623779296875,0.23222002537846564,0.9359414912674575,-1.2266247384652496
1772785940448640800,6.108640869140625,-0.35602877587676046,0.49358891528658566,-1.578750807815045
1772785940458656800,6.11865673828125,-0.8988561346501112,0.10594349652715027,-1.980560068744421
1772785940468672800,6.1286728515625,-1.2308575537294149,-0.32961196665950115,-2.2825559333994985
1772785940478689800,6.138689697265625,-1.3147680090814828,-0.8246824257407337,-2.4673145349010825
1772785940488705800,6.148705810546875,-1.1857084984481334,-1.2139032040581106,-2.626081201533973
1772785940498721800,6.1587216796875,-0.8848562508702278,-1.493108121842891,-2.5681127044290304
1772785940508738800,6.16873876953125,-0.44800738687217234,-1.4643069747723638,-2.340224132383615
1772785940518754800,6.1787548828125,-0.05939385373294353,-1.2269088161036372,-2.163847574780136
1772785940528770600,6.1887705078125,0.3118915279865265,-1.0014080890428274,-1.8538292933195828
1772785940538787800,6.198787841796875,0.6181026722490787,-0.764481347278133,-1.4437095924235879
1772785940548803800,6.208803955078125,0.9677987379729747,-0.5833230352908373,-1.042326886343211
1772785940558819800,6.21881982421875,1.2529554037690163,-0.42092561094015835,-0.672771981678158
1772785940568835800,6.2288359375,1.3916425744473933,-0.28204759386479855,-0.29232882244773206
1772785940578852600,6.2388525390625,1.4109960942149162,-0.13544482775628566,-0.025195231533050536
1772785940588868900,6.248868896484375,1.387176242688298,0.05492730277813971,0.14531594116836785
1772785940598884900,6.258884765625,1.3657061691582202,0.09860124400556088,0.2008623987581581
1772785940608901600,6.268901611328125,1.3472668416261673,0.03166187026388943,0.2004019781721756
1772785940618917600,6.278917724609375,1.3304676825165749,-0.1267129475072026,0.07553783686943352
1772785940628933600,6.28893359375,1.3449199862390755,-0.32445728731006385,-0.09580945786256342
1772785940638951000,6.298950927734375,1.339553490769863,-0.5795712815418839,-0.3033197702025994
1772785940648967000,6.308966796875,1.2790700882345438,-0.9257054170005022,-0.5031421583885327
1772785940658982700,6.318982666015625,1.2529489740282296,-1.3812231795027852,-0.674559595747292
1772785940668999700,6.328999755859375,1.287273852956295,-1.7451070527940988,-0.8579049694500863
1772785940679015700,6.339015625,1.2924375193297861,-2.005724320617318,-0.965661872074753
1772785940689032000,6.349031982421875,1.342444536036253,-1.9351209444753825,-1.012385556261614
1772785940699048700,6.359048583984375,1.3253431791096926,-1.854805006483942,-0.971292279177159
1772785940709064700,6.369064697265625,1.2112182027578353,-1.7398980859741568,-0.9223875246241688
1772785940719080700,6.379080810546875,1.0071820693343878,-1.603537604677677,-0.8909578556809574
1772785940729097700,6.38909765625,0.8176444168627262,-1.2480334371969104,-0.753223309552297
1772785940739113700,6.39911376953125,0.5727934579700231,-0.9957956559885293,-0.622762407688424
1772785940749129700,6.409129638671875,0.4462561592906713,-0.8539172880534082,-0.4164643572149798
1772785940759146800,6.419146728515625,0.4152437659114599,-0.8414555005609988,-0.14419449939038603
1772785940769162800,6.429162841796875,0.36100890237689015,-0.8373003536429255,0.04605064376350492
1772785940779178800,6.4391787109375,0.3189922999024391,-0.8448579294156283,0.19824476360566912
1772785940789195800,6.44919580078125,0.3835936591506004,-0.8106186098791658,0.3608453458456322
1772785940799211800,6.459211669921875,0.38916415275931354,-0.7126341825976967,0.43135245853886006
1772785940809227800,6.469227783203125,0.26815818472206593,-0.6394207700878382,0.43119120356254276
1772785940819244800,6.479244873046875,0.09431085333526133,-0.6726077310271561,0.3078546371532604
1772785940829260800,6.4892607421875,-0.1264326692610979,-0.7508163214758038,0.13437270501274615
1772785940839276800,6.49927685546875,-0.3475707441329956,-0.9189003400955349,-0.1164610180839896
1772785940849292800,6.509292724609375,-0.5806973629623651,-1.0446196003902704,-0.3526347495242953
1772785940859309600,6.5193095703125,-0.8201572764664888,-1.055212817531824,-0.597204516855441
1772785940869325600,6.52932568359375,-1.1269137796521187,-1.1890744677498937,-0.9352176339723169
1772785940879341800,6.539341796875,-1.5257576149046421,-1.2887282895483076,-1.4462449561201036
1772785940889358800,6.54935888671875,-1.8514181405246257,-1.2606029959127307,-2.013258077123016
1772785940899374800,6.559374755859375,-2.1202689836859703,-1.3941802762314677,-2.5675568241119384
1772785940909390600,6.569390625,-2.1366671607792376,-1.4813206534154713,-2.752013812318444
1772785940919407900,6.579407958984375,-2.228765598762035,-0.8946925852298736,-2.328157700884342
1772785940929424000,6.589423828125,-2.449690907666087,-0.11035550428312271,-1.4728319342724978
1772785940939439900,6.59943994140625,-2.541124744260311,0.5820577280627564,-0.7933416041247546
1772785940949456600,6.60945654296875,-2.389388122394681,1.1582244253255427,-0.32772023462876676
1772785940959472600,6.61947265625,-1.96899881028831,1.4493229022607206,0.15477100285915657
1772785940969489000,6.629489013671875,-1.4109586848139761,1.7396908729642628,0.514414845694229
1772785940979505700,6.639505615234375,-0.7479390124738216,2.1046349228329957,0.6070850922156125
1772785940989521700,6.649521728515625,-0.09182488173842429,2.071815041640401,0.5010201977984979
1772785940999537700,6.65953759765625,0.3870850083976984,1.5842653334528207,0.16519772259369492
1772785941009555000,6.669554931640625,0.5971037233620882,1.0085066690016538,-0.34688612286970016
1772785941019571000,6.679571044921875,0.6078226857751607,0.3806625376021489,-0.8425227644663303
1772785941029586700,6.689586669921875,0.4545218833327293,-0.11463822310362011,-1.2838774885162711
1772785941039602700,6.699602783203125,0.1441916133135557,-0.33336678914837536,-1.5506738833658396
1772785941049619700,6.70961962890625,-0.12543313682973384,-0.22959179576672611,-1.6649268700115383
1772785941059635700,6.7196357421875,-0.08975859685838222,0.21453611932359634,-1.4789061396196483
1772785941069652000,6.72965185546875,0.08445639879703522,0.6139097506038844,-1.1335155160047112
1772785941079668700,6.739668701171875,0.3770230485886335,0.9921695744458585,-0.7834056087829172
1772785941089684700,6.749684814453125,0.8844336415439844,1.1716235667333006,-0.29328590397685766
1772785941099700700,6.75970068359375,1.3163351122677325,1.253315469253063,0.13972162829264997
1772785941109717800,6.7697177734375,1.5949556542932986,1.3574044970199466,0.5075296162251383
1772785941119733800,6.779733642578125,1.775049186593294,1.469083103132993,0.8551121238611638
1772785941129749800,6.789749755859375,1.8797598533898592,1.6617935404218733,1.1641889597531407
1772785941139766800,6.799766845703125,1.791498801612854,1.9344304779931902,1.364021723202616
1772785941149782800,6.80978271484375,1.5189567027181385,2.1127821350619196,1.47264138013646
1772785941159798800,6.819798828125,1.2495488101959227,2.261840916020423,1.51549428730458
1772785941169815800,6.82981591796875,1.046943586358428,2.286889432559162,1.5280875191569327
1772785941179831800,6.839831787109375,0.8938286618769168,2.1806781519412994,1.4716611369274555
1772785941189847800,6.849847900390625,0.8000818721652031,1.9894214205920695,1.3220716100931167
1772785941199864800,6.85986474609375,0.7216986558020114,1.7473565852865576,1.1891434413328765
1772785941209880800,6.869880859375,0.6864034705370664,1.5038218235589562,1.0063270599402487
1772785941219896800,6.879896728515625,0.7651695487380027,1.2671011257603764,0.7756125437539071
1772785941229912800,6.889912841796875,0.7932108173519372,1.0024508760940283,0.44656135278232395
1772785941239929600,6.8999296875,0.7302712538361549,0.7972013482928275,0.0035574184869416057
1772785941249945600,6.909945556640625,0.5977104570835828,0.5483546708274633,-0.40663426993303
1772785941259961900,6.9199619140625,0.3298457023501396,0.28893245800770817,-0.8492645668767392
1772785941269979000,6.929978759765625,0.06540040067136288,0.010053338111191988,-1.1567628283403812
1772785941279994600,6.93999462890625,-0.13138883036375046,-0.2876147995378822,-1.253972179596126
1772785941290009900,6.950009765625,-0.25928631148040293,-0.44727585772722955,-1.1967330196790396
1772785941300027000,6.96002685546875,-0.21419804647564886,-0.38560879836529494,-1.0037355821423233
1772785941310043000,6.97004296875,0.006430325308442115,-0.12494104246385394,-0.7584713662736118
1772785941320059000,6.980058837890625,0.25805180124938487,0.1792752747196704,-0.48759424144905056
1772785941330076000,6.990075927734375,0.5160679466634989,0.48535439010038967,-0.20003372938167302
1772785941340092000,7.000091796875,0.6495148786008358,0.6383727954048664,0.05718063466288149
1772785941350108000,7.01010791015625,0.7072288164228201,0.7309584323827177,0.2671991304315626
1772785941360124000,7.0201240234375,0.7241103931188583,0.708651469637081,0.4326865932194516
1772785941370140700,7.030140625,0.5767278748095035,0.5993203764982521,0.5597657436905429
1772785941380157000,7.040156982421875,0.305030994567275,0.5561094496726989,0.5770968907849863
1772785941390173000,7.0501728515625,-0.011857611054182052,0.517196804562956,0.5472783103002234
1772785941400190000,7.06018994140625,-0.2952951979726553,0.4650463460870087,0.46837001061700284
1772785941410206000,7.0702060546875,-0.4722141918897628,0.4075601526062935,0.35112701184246686
1772785941420221700,7.0802216796875,-0.45404608251452444,0.31918343856036663,0.24904607249498364
1772785941430239000,7.090239013671875,-0.34783787063658234,0.19165449849516153,0.15785020937509833
1772785941440255000,7.1002548828125,-0.1883949121773243,0.08299640924707055,0.1304218850277364
1772785941450271000,7.11027099609375,0.09095686673223972,0.05866144780516624,0.07119925967585294
1772785941460287700,7.120287841796875,0.32027006475329395,-0.07243665598370135,0.0033795594356954097
1772785941470303700,7.1303037109375,0.41534021202325816,-0.2841224273774773,-0.01416099262572825
1772785941480320000,7.140320068359375,0.4469342046827078,-0.4115387739136815,-0.02150879810526967
1772785941490336000,7.1503359375,0.411978042113781,-0.4895082949094474,-0.0463789806687273
1772785941500352800,7.160352783203125,0.29681729297339915,-0.4754731936857104,-0.05764436145080253
1772785941510368800,7.17036865234375,0.16057108570635317,-0.3666531918741762,-0.05432990314057096
1772785941520384800,7.180384765625,0.04128828819990158,-0.27534692718237636,0.009803929927386342
1772785941530402000,7.190402099609375,-0.0629109219431877,-0.19215835636407136,0.10126363161522894
1772785941540417800,7.200417724609375,-0.10876666418910026,-0.14215996135547757,0.18079972607428207
1772785941550433800,7.210433837890625,-0.060841129931807514,-0.12267886968553066,0.2802329456582665
1772785941560450800,7.220450927734375,0.018261632877588273,-0.03073956778720021,0.3145638159357011
1772785941570467000,7.230467041015625,0.06701777274012566,0.048596711517125364,0.35403248749300836
1772785941580483000,7.240483154296875,0.1101765309870243,0.07179696984067559,0.37355613966304807
1772785941590499800,7.250499755859375,0.17105390127599238,0.04827186347693205,0.38704000021219254
1772785941600515800,7.260515869140625,0.1711626223474741,-0.02452726914361119,0.3594376344721764
1772785941610531800,7.27053173828125,0.09610007483959197,-0.13200783904492855,0.3216675835262984
1772785941620547800,7.2805478515625,0.01154138471186161,-0.20137538978159428,0.2947564879860729
1772785941630564900,7.29056494140625,-0.11246318061947821,-0.2807683677092194,0.22949827226437627
1772785941640580900,7.300580810546875,-0.2800964597970247,-0.31269875271618364,0.20398400137741118
1772785941650596900,7.310596923828125,-0.33746552970409394,-0.3569565582461655,0.1813031638180837
1772785941660614000,7.32061376953125,-0.34553310082554817,-0.4328061644785106,0.16816968760918824
1772785941670630000,7.3306298828125,-0.24362755457758903,-0.5493957773782313,0.15977829136084765
1772785941680646000,7.34064599609375,-0.06369768840670585,-0.6773790370821953,0.24668168145120142
1772785941690663000,7.350662841796875,0.0560492194801569,-0.8099757819309831,0.29346882279571146
1772785941700679000,7.360678955078125,0.14482348147630691,-0.9904295258454978,0.3966641531258821
1772785941710695000,7.37069482421875,0.17916414249539375,-1.074139782450348,0.5084359904803335
1772785941720711000,7.3807109375,0.06134148066937923,-1.0525998585544527,0.5755020958742126
1772785941730728000,7.39072802734375,-0.18497136746942996,-1.0602417516097427,0.56425074361749
1772785941740744000,7.400743896484375,-0.37407939635217186,-0.7651837233938277,0.5766754870351404
1772785941750760000,7.410760009765625,-0.7249795771688222,-0.393540468147397,0.6107346276991069
1772785941760777000,7.42077685546875,-1.228048926049471,-0.12194967862814664,0.6706784434650093
1772785941770793000,7.43079296875,-1.6919956403315066,0.019826251845806837,0.6626997927360236
1772785941780809000,7.44080908203125,-1.8887685047537088,0.09190613028109074,0.5878326947350054
1772785941790825700,7.45082568359375,-1.8148516201496123,0.13252762513533234,0.4835848231445998
1772785941800841700,7.460841796875,-1.5502046584188938,0.19770561522766947,0.39365605735108256
1772785941810857700,7.470857666015625,-1.219835224455595,0.2755876040704548,0.3853940231034532
1772785941820874000,7.4808740234375,-0.8821306252986192,0.32180165823474527,0.3938381359197199
1772785941830891000,7.49089111328125,-0.47494624720215795,0.48279213839694857,0.4927884856238961
1772785941840906800,7.50090673828125,-0.13676000200808047,0.6013894378572702,0.6192237852334976
1772785941850922800,7.5109228515625,0.04776128360629082,0.6788970404297113,0.7414525730639696
1772785941860940000,7.52093994140625,0.23591712633073328,0.7761549070022999,0.8333497893862426
1772785941870956000,7.5309560546875,0.35565351282358165,0.8926678014039993,0.8772510365635157
1772785941880972000,7.540971923828125,0.3806967686653137,0.9497425645396113,0.8737354296579957
1772785941890988800,7.55098876953125,0.39026539199948307,0.8705603067532182,0.8918399722777306
1772785941901004800,7.5610048828125,0.4465244548380375,0.6810191471502185,0.7760898789420724
1772785941911021000,7.57102099609375,0.5049556010186672,0.6230563491337001,0.6301500337217003
1772785941921037000,7.581037109375,0.5345698180377483,0.7788895926631987,0.3960819693237543
1772785941931053800,7.5910537109375,0.6674748981833457,1.0435933991476893,0.17105382821075618
1772785941941069800,7.60106982421875,0.844521317872405,1.3312183547534049,-0.03207600402273238
1772785941951085800,7.6110859375,0.9521189382821321,1.5211621038079262,-0.26736908017098904
1772785941961102800,7.621102783203125,0.8765379198580979,1.2212598504312335,-0.5702503493584692
1772785941971118800,7.631118896484375,0.6782686793982983,0.7780242080055176,-0.900281564343348
1772785941981134800,7.641134765625,0.23260990147888658,0.2607778652124107,-1.2937442180141805
1772785941991151900,7.65115185546875,-0.2840314611583948,-0.10332695735320448,-1.5989081913113594
1772785942001168000,7.66116796875,-0.7233961073696613,-0.3053923752255738,-1.843616234602034
1772785942011183900,7.671183837890625,-0.9677923082321882,-0.4516694165110588,-1.921480103266239
1772785942021200000,7.681199951171875,-1.0512287163317202,-0.6115599726073444,-2.0361565760210154
1772785942031217000,7.691216796875,-0.8798580041915178,-0.59179904108271,-2.119729908373207
1772785942041233000,7.70123291015625,-0.5549988580822944,-0.5707059841714799,-2.137050607138872
1772785942051249000,7.711248779296875,-0.2610994983822107,-0.6530516744248569,-2.096766235284507
1772785942061266000,7.721265869140625,-0.06156301446557045,-0.7663564204350113,-1.9974473445288836
1772785942071282000,7.731281982421875,0.0033510639935731886,-0.9229210469789803,-1.8839310015946626
1772785942081298000,7.7412978515625,0.02481646134853363,-0.9854141819015144,-1.7154681397251783
1772785942091314000,7.75131396484375,-0.06877952171564101,-0.8939657322600484,-1.5505147472813725
1772785942101331000,7.7613310546875,-0.1886298899769783,-0.7901755413092673,-1.2773974788472056
1772785942111347000,7.771346923828125,-0.33399989942014213,-0.641558366638422,-1.071295791196078
1772785942121363000,7.781363037109375,-0.37534430172145367,-0.3346571942850947,-0.8641370687726885
1772785942131380000,7.7913798828125,-0.3286865954428911,-0.08720708574466407,-0.6081377430737018
1772785942141395700,7.801395751953125,-0.2870025859236717,0.15070735188312828,-0.43066769114509224
1772785942151411700,7.81141162109375,-0.2833610145509243,0.6345384779389948,-0.19571897145509717
1772785942161429000,7.821428955078125,-0.19781682051718233,0.7030830949202179,0.07452076878137887
1772785942171445000,7.831445068359375,0.07687690345346927,0.5437497343152761,0.27189218361862
1772785942181460700,7.841460693359375,0.33834815775752064,0.3770030287139117,0.3335195685572922
1772785942191476700,7.851476806640625,0.5812240171849727,0.11480148737393318,0.312559198115021
1772785942201494000,7.861493896484375,0.7670137152999639,-0.07352269765473902,0.33256526350714266
1772785942211510000,7.871510009765625,0.7632680990308522,-0.1930260791093111,0.2789830917276442
1772785942221526000,7.881526123046875,0.6626333033710717,-0.2401196195218712,0.17412929013334214
1772785942231542800,7.891542724609375,0.3864116391807794,-0.2547049750395119,0.09573182604908943
1772785942241558800,7.901558837890625,0.009783142867684363,-0.2842173391193151,-0.01592946360297501
1772785942251575000,7.911574951171875,-0.32775662111639975,-0.26938093145005404,-0.1112883646864444
1772785942261591000,7.921591064453125,-0.6014110651671886,-0.29544125537984073,-0.19781901247426867
1772785942271607800,7.93160791015625,-0.6350391940027476,-0.30899171489179134,-0.2341695520110428
1772785942281623800,7.941623779296875,-0.5217898314416408,-0.34193960637822746,-0.24378727518394588
1772785942291640300,7.951640380859375,-0.3102700642645359,-0.45594654584098604,-0.25877602387070653
1772785942301657300,7.9616572265625,-0.13699614885151384,-0.5262019853280857,-0.27965726466216145
1772785942311673300,7.97167333984375,0.019700141248106956,-0.3992393008435145,-0.24911826094835995
1772785942321689300,7.981689453125,0.13709201044142244,-0.34246867175363005,-0.28598069553002714
1772785942331705300,7.991705322265625,0.2607891172587871,-0.32905608634240924,-0.2463297992736101
1772785942341722400,8.001722412109375,0.31406478037238117,-0.32056554056853054,-0.19788572103492916
1772785942351738400,8.01173828125,0.31350773101150986,-0.3125355980437249,-0.17163352779485283
1772785942361754400,8.02175439453125,0.22299042474031447,-0.2756346215499565,-0.1837281624753028
1772785942371771400,8.031771484375,0.1620604474812746,-0.20688021600926293,-0.26536899239495393
1772785942381787400,8.041787353515625,0.2960562454730272,-0.05692192892776802,-0.21955679702982306
1772785942391803400,8.051803466796875,0.5184709161520004,0.06293835793938488,-0.1687851526264101
1772785942401819400,8.0618193359375,0.6490180349946022,0.13491662089740858,-0.12497684442959725
1772785942411836400,8.07183642578125,0.8237111695557833,0.26963291518343613,-0.12010193186961114
1772785942421852400,8.081852294921875,1.0351052645266055,0.3627446766609326,-0.058736266607046124
1772785942431868400,8.091868408203124,1.148603048890829,0.4087197344375774,-0.12273534911312162
1772785942441885400,8.101885498046874,1.306927232453227,0.4951222258010879,-0.1464394653055817
1772785942451901400,8.1119013671875,1.391150991538167,0.49790878777969627,-0.14067681012563407
1772785942461917400,8.12191748046875,1.2813719354361295,0.39457894434966145,-0.17057108619511127
1772785942471934200,8.131934326171875,1.0488421134561299,0.20959468086604027,-0.23083938467502593
1772785942481950200,8.1419501953125,0.7911059540271759,0.3309486951559782,-0.3173046390764415
1772785942491966500,8.151966552734375,0.5263257213056087,0.6922203401222825,-0.3564757889918983
1772785942501982500,8.161982421875,0.27787703018188475,0.8993592618666588,-0.38628136386461553
1772785942511999500,8.17199951171875,0.12025778001844882,0.980758172789216,-0.4619173273462802
1772785942522015200,8.18201513671875,-0.09132745361030101,0.9097694505915045,-0.4946395203180611
1772785942532031200,8.19203125,-0.17554595199823378,0.9028516340270638,-0.5064635213635862
1772785942542047200,8.202047119140625,-0.0361766442745924,0.9153727504912763,-0.4574375515837222
1772785942552064500,8.212064453125,0.16668518467247484,0.777533574944362,-0.4189095218773931
1772785942562080300,8.222080322265626,0.34348435160219665,0.6098764034345746,-0.3995924616627395
1772785942572096300,8.23209619140625,0.5326730445057153,0.5605252933535725,-0.4012995578415692
1772785942582113300,8.24211328125,0.6270405964642762,0.5409887086367234,-0.42048824243620037
1772785942592129500,8.252129638671875,0.592413519719243,0.6234711404796689,-0.4550935457408428
1772785942602145500,8.2621455078125,0.5484060356885194,0.7322896079212426,-0.48151232771947977
1772785942612161300,8.272161376953125,0.4325403531491756,0.7439741274308412,-0.48647126530110835
1772785942622178300,8.28217822265625,0.1605997272789478,0.6774519561879336,-0.5397895985126495
1772785942632194300,8.2921943359375,0.008704115459322929,0.6051536492289975,-0.5265367337077855
1772785942642210600,8.30221044921875,0.027628011637926102,0.5011357504695654,-0.46376332053914665
1772785942652227300,8.312227294921875,0.10504267522990703,0.44327038494553417,-0.3693552173744887
1772785942662243300,8.322243408203125,0.245876794809103,0.4327020465169102,-0.2981180003084242
1772785942672259300,8.33225927734375,0.34678631575703617,0.47371100631877777,-0.22095241610668598
1772785942682275300,8.342275390625,0.3505804473429918,0.6135005122158677,-0.15114523184373974
1772785942692292400,8.352292236328125,0.347055195826292,0.7231651481579989,-0.10458996302634477
1772785942702308400,8.362308349609375,0.4352203860133886,0.8013010386966168,0.0394143840868026
1772785942712324400,8.372324462890624,0.42551556907892224,0.8157468396130949,0.1348415281008929
1772785942722341400,8.38234130859375,0.389275211918354,0.786721528397873,0.17846490818485616
1772785942732357400,8.392357421875,0.3220990337461233,0.7488593421891331,0.17367950053922832
1772785942742373400,8.402373291015625,0.28966566765308377,0.6989458489850163,0.17847184938229618
1772785942752389400,8.412389404296874,0.27603052553236485,0.6270437382694334,0.21678886668644845
1772785942762406400,8.422406494140626,0.22149287965893744,0.5415828386049717,0.1608237452931702
1772785942772422400,8.43242236328125,0.19226912326216697,0.4901069549223408,0.08768354414999484
1772785942782438400,8.4424384765625,0.15162264009714127,0.4586909126456827,-0.035913463293761015
1772785942792455400,8.452455322265624,-0.00985036288499832,0.4880974051982164,-0.13472878844141958
1772785942802471400,8.462471435546876,-0.1752139435648918,0.5306290810553357,-0.2470426967833191
1772785942812487400,8.4724873046875,-0.22331015821397304,0.5035700284117832,-0.27568273500800133
1772785942822503400,8.48250341796875,-0.23601064983308315,0.47998931940328327,-0.31661358807235956
1772785942832520400,8.4925205078125,-0.24454057776927945,0.44588564547784626,-0.33926885279901325
1772785942842536400,8.502536376953126,-0.3086152827948332,0.3507537580832839,-0.39565651045329864
1772785942852552400,8.512552490234375,-0.3830921393692493,0.30900936014633623,-0.45837490549907084
1772785942862568400,8.522568359375,-0.24592355656027792,0.4112555365255102,-0.4489907718863338
1772785942872585200,8.532585205078124,-0.02456687050163746,0.42898602166846395,-0.3182260647702962
1772785942882601200,8.542601318359376,0.06171148302555084,0.35061950071174647,-0.19293679339066147
1772785942892617500,8.552617431640625,0.030569325786828992,0.31557266418468205,-0.12882833222597836
1772785942902634500,8.562634521484375,0.04687281033396721,0.23740699956230818,-0.05104585823491215
1772785942912650200,8.572650146484374,0.027279636591672894,0.15807185276914387,-0.03703139794040471
1772785942922666200,8.582666259765626,-0.02716448577940464,0.07540357949789613,-0.08912716708704829
1772785942932682200,8.59268212890625,-0.03762567403912544,-0.037765922760032114,-0.12995631334260105
1772785942942699500,8.602699462890625,-0.05102583836019039,-0.02723762408085167,-0.19808913465254008
1772785942952715500,8.612715576171874,-0.1924678607046604,0.07653985351882875,-0.2427896424487233
1772785942962731300,8.622731201171876,-0.3298667451381683,0.10999854407161473,-0.2854262765176594
1772785942972748300,8.632748291015625,-0.4523392785966396,0.09010061522908508,-0.2926158226955682
1772785942982764500,8.6427646484375,-0.5754851812720299,0.011797222636453806,-0.28450788303110747
1772785942992780500,8.652780517578124,-0.5340677137345076,-0.007227430502884089,-0.21597703884691
1772785943002796300,8.66279638671875,-0.2734866862684488,0.03780910431463271,-0.08111651378460227
1772785943012813300,8.672813232421875,-0.022920856860280035,0.0981166753590107,0.06884312500376254
1772785943022829300,8.682829345703125,0.2926221793711185,0.20531181591507047,0.2416745573462918
1772785943032845600,8.692845458984374,0.5323176551967859,0.2821105760984123,0.3834800792409107
1772785943042861600,8.702861572265626,0.577935497033596,0.3219537069913,0.4476749400474131
1772785943052878300,8.71287841796875,0.4635018931239843,0.3216669990044087,0.43592769403252746
1772785943062894300,8.722894287109375,0.22935645264089105,0.29745109736490993,0.4028269866045564
1772785943072910300,8.732910400390624,-0.07483399944901466,0.2442754240270704,0.34895638980511573
1772785943082927400,8.74292724609375,-0.34134617052972316,0.15833481455426662,0.275555784160085
1772785943092943400,8.752943359375,-0.4459562995612621,0.10126542171351612,0.15548640285320578
1772785943102959400,8.76295947265625,-0.464403225877881,0.07268843878768384,0.03188121210299432
1772785943112975400,8.772975341796876,-0.29948271279037,0.01877305299844593,-0.03987849446721375
1772785943122992400,8.782992431640626,-0.09196575151383876,-0.004950936938263476,-0.11996639585644006
1772785943133008400,8.79300830078125,0.15951777726113794,-0.03313519421946257,-0.1370982940517366
1772785943143024400,8.8030244140625,0.2638140180379152,-0.08306216795966029,-0.1850486339567229
1772785943153040400,8.813040283203126,0.21921850498616693,-0.10120572741553187,-0.21240023980606346
1772785943163057400,8.823057373046876,0.19909750797748565,-0.11470847532823682,-0.20947974924948065
1772785943173073400,8.833073486328125,0.14380992051959038,-0.11777633846625685,-0.22949542272016404
1772785943183089400,8.84308935546875,0.10721066691875457,-0.08770286990497261,-0.21092355484962463
1772785943193106400,8.8531064453125,0.07161386835873126,-0.045039311296492815,-0.18711075411830097
1772785943203122400,8.863122314453125,0.04222761487662792,-0.039392829842120405,-0.16815529375765473
1772785943213138400,8.873138427734375,0.026630817294120788,-0.02972293809056282,-0.1211514774551615
1772785943223154400,8.883154541015625,0.05435702860951423,0.03101378161869943,-0.0529614095326513
1772785943233171500,8.89317138671875,0.13142974689602852,0.08093512933570891,0.010131956305354833
1772785943243187500,8.9031875,0.10933715755343437,0.12493786412607878,0.05133771732095629
1772785943253203500,8.913203369140625,0.10322305858731269,0.12278437588661908,0.10898472738657146
1772785943263219500,8.923219482421874,0.07214636780023574,0.10795388650149107,0.14332242926359176
1772785943273236200,8.933236328125,0.03889759367108345,0.12465422487910836,0.16098463494330645
1772785943283252500,8.94325244140625,-0.003202595433592796,0.11896430614180863,0.1804276596251875
1772785943293268000,8.95326806640625,-0.07098901445865631,0.1479760272230953,0.1750472086958587
1772785943303284000,8.963283935546874,-0.1343459266036749,0.1628301897447556,0.14371541063655166
1772785943313300700,8.97330078125,-0.18735446321368215,0.1710370232064277,0.12397902903128415
1772785943323316700,8.983316650390625,-0.11198211910426616,0.18012085869833827,0.1432512271909043
1772785943333332700,8.993332763671875,0.027134675163030624,0.19727745294347404,0.12710125270504505
1772785943343350000,9.00335009765625,0.13467968860268592,0.14649050137307493,0.10190255057327449
1772785943353366000,9.013365966796876,0.1582435195416212,0.11587094323635101,0.0772025552112609
1772785943363381800,9.0233818359375,0.05913198792636394,0.12497823266908525,0.021440445576794444
1772785943373397800,9.033397705078125,0.054624155113101,0.1529914076996967,0.029440869746170936
1772785943383415000,9.0434150390625,0.043729251611232756,0.18761775379236786,-0.032481443018466234
1772785943393431000,9.05343115234375,-0.09249415930211544,0.1280145316250622,-0.07978932030145078
1772785943403447000,9.063447021484375,-0.11972586509883403,0.16726974309477954,-0.025656638499721884
1772785943413462800,9.073462890625,-0.08507306939065457,0.22047358308117834,-0.07972005445752292
1772785943423479800,9.083479736328124,0.037840778094530104,0.2389497720248997,-0.017525975546799598
1772785943433496000,9.09349609375,0.15232581993043423,0.2337941428273916,0.011532836079224944
1772785943443512000,9.103511962890625,0.2164005249559879,0.1573720704693347,-0.016655257126875222
1772785943453528800,9.11352880859375,0.15065934802293776,0.09546638004593551,-0.062069539215601974
1772785943463544800,9.123544921875,0.05240472549796104,0.10921944945789873,-0.11733878729920834
1772785943473560800,9.133560791015626,0.07201426585316657,0.08096311332117766,-0.19363869458232075
1772785943483576800,9.143576904296875,0.18881810602545737,0.07249222209583968,-0.28842301064822823
