time,seconds_elapsed,z,y,x
1772785934398744800,0.058744873046875,0.2772461473941803,-0.8964812159538269,1.2906501293182373
1772785934408761900,0.068761962890625,0.3344188630580902,-0.8142702579498291,1.145031452178955
1772785934418777600,0.078777587890625,0.4023208022117615,-0.7073072195053101,0.912048876285553
1772785934428795000,0.088794921875,0.4804893732070923,-0.6160542368888855,0.6143652200698853
1772785934438811000,0.098810791015625,0.5561155080795288,-0.5116209387779236,0.26061704754829407
1772785934448827000,0.108826904296875,0.6216598749160767,-0.39911356568336487,-0.11427612602710724
1772785934458843600,0.11884375,0.6290993690490723,-0.20016883313655853,-0.444659024477005
1772785934468860000,0.12885986328125,0.5816402435302734,0.16956394910812378,-0.6992154121398926
1772785934478877000,0.138876953125,0.5340315103530884,0.5587077140808105,-0.873163640499115
1772785934488892700,0.148892578125,0.5275377035140991,0.83601975440979,-0.9542648792266846
1772785934498909700,0.15890966796875,0.5436316728591919,1.0316661596298218,-0.9475101828575134
1772785934508926000,0.168926025390625,0.5552926063537598,1.1544694900512695,-0.8609934449195862
1772785934518942000,0.17894189453125,0.5436534285545349,1.1789731979370117,-0.7074959874153137
1772785934528958700,0.188958740234375,0.518101692199707,1.116141438484192,-0.5154250860214233
1772785934538974700,0.198974609375,0.48394933342933655,0.9822379350662231,-0.31395187973976135
1772785934548991700,0.20899169921875,0.4469199478626251,0.7905116677284241,-0.12480060011148453
1772785934559008000,0.219008056640625,0.39695999026298523,0.553548276424408,0.02448023110628128
1772785934569024800,0.229024658203125,0.3267337679862976,0.33546626567840576,0.12296473234891891
1772785934579040800,0.239040771484375,0.24471668899059296,0.1694663017988205,0.15332266688346863
1772785934589056800,0.249056884765625,0.20742151141166687,0.056849464774131775,0.09778058528900146
1772785934599073800,0.25907373046875,0.21624383330345154,-0.024218222126364708,-0.009621204808354378
1772785934609089800,0.26908984375,0.23871265351772308,-0.06478828191757202,-0.11267675459384918
1772785934619106800,0.27910693359375,0.24511660635471344,-0.08253922313451767,-0.17548377811908722
1772785934629122800,0.289122802734375,0.22216548025608063,-0.09457804262638092,-0.18791036307811737
1772785934639139800,0.299139892578125,0.18464751541614532,-0.10958141833543777,-0.16576458513736725
1772785934649155800,0.30915576171875,0.14342045783996582,-0.11580681800842285,-0.12804223597049713
1772785934659171800,0.319171875,0.11520125716924667,-0.1338883340358734,-0.09200902283191681
1772785934669188900,0.32918896484375,0.10737475752830505,-0.1780608594417572,-0.07036923617124557
1772785934679204600,0.33920458984375,0.10442444682121277,-0.22291569411754608,-0.058308087289333344
1772785934689222000,0.349221923828125,0.1139921173453331,-0.2599338889122009,-0.04452516511082649
1772785934699238000,0.35923779296875,0.12714079022407532,-0.2842351496219635,-0.024763554334640503
1772785934709254700,0.369254638671875,0.14568863809108734,-0.2851262390613556,-0.0061091771349310875
1772785934719270700,0.379270751953125,0.17782007157802582,-0.25637632608413696,0.019881026819348335
1772785934729287000,0.389286865234375,0.24791847169399261,-0.19825655221939087,0.039433956146240234
1772785934739304000,0.399303955078125,0.33019059896469116,-0.134358212351799,0.07312514632940292
1772785934749319700,0.409319580078125,0.4126031994819641,-0.08781841397285461,0.12229535728693008
1772785934759336700,0.419336669921875,0.4775841236114502,-0.046949274837970734,0.16689562797546387
1772785934769353000,0.42935302734375,0.5051531791687012,-0.027465056627988815,0.20186559855937958
1772785934779369700,0.43936962890625,0.5159949660301208,-0.007461122237145901,0.1977391391992569
1772785934789385700,0.4493857421875,0.5234662294387817,-0.003812059061601758,0.18333649635314941
1772785934799401700,0.459401611328125,0.5393127202987671,-0.004661348182708025,0.16526687145233154
1772785934809418800,0.469418701171875,0.5780782699584961,-0.01965254917740822,0.15696339309215546
1772785934819435000,0.47943505859375,0.6174149513244629,-0.060878485441207886,0.15347813069820404
1772785934829451800,0.48945166015625,0.622792661190033,-0.11385861784219742,0.13282717764377594
1772785934839467800,0.4994677734375,0.5827686190605164,-0.169660285115242,0.07672430574893951
1772785934849483800,0.50948388671875,0.5129586458206177,-0.17904233932495117,-0.006308802403509617
1772785934859500800,0.519500732421875,0.4432344436645508,-0.13835571706295013,-0.10155481845140457
1772785934869516800,0.529516845703125,0.3872992694377899,-0.09019484370946884,-0.2145330309867859
1772785934879533800,0.539533935546875,0.34231656789779663,-0.08787793666124344,-0.3415345549583435
1772785934889549800,0.5495498046875,0.31276825070381165,-0.10232345759868622,-0.47505319118499756
1772785934899566800,0.55956689453125,0.28102168440818787,-0.12496839463710785,-0.5830763578414917
1772785934909582800,0.569582763671875,0.2604309022426605,-0.12111826986074448,-0.6454694271087646
1772785934919598800,0.579598876953125,0.253892183303833,-0.07284429669380188,-0.6384711265563965
1772785934929615600,0.58961572265625,0.2555457353591919,0.013942532241344452,-0.5841251015663147
1772785934939631600,0.599631591796875,0.26323795318603516,0.10965476185083389,-0.518805205821991
1772785934949649000,0.60964892578125,0.23818691074848175,0.20537169277668,-0.4667925536632538
1772785934959665000,0.619664794921875,0.20428475737571716,0.2852875590324402,-0.4303825795650482
1772785934969681700,0.629681640625,0.16932544112205505,0.33581146597862244,-0.3960147500038147
1772785934979697700,0.63969775390625,0.14566943049430847,0.3683369755744934,-0.3719462752342224
1772785934989714000,0.6497138671875,0.14136868715286255,0.3701649606227875,-0.3578088879585266
1772785934999731000,0.65973095703125,0.1438760757446289,0.33473148941993713,-0.33963605761528015
1772785935009746700,0.66974658203125,0.16594648361206055,0.2775656580924988,-0.33347296714782715
1772785935019763700,0.679763671875,0.20901311933994293,0.19008620083332062,-0.34006133675575256
1772785935029780000,0.689780029296875,0.27731016278266907,0.0995403379201889,-0.34754136204719543
1772785935039796000,0.6997958984375,0.3440576493740082,0.03538598120212555,-0.33767715096473694
1772785935049812700,0.709812744140625,0.40934932231903076,-0.009469638578593731,-0.31218376755714417
1772785935059828700,0.719828857421875,0.45388495922088623,-0.029717911034822464,-0.2796425521373749
1772785935069846000,0.729845947265625,0.4730652868747711,-0.05074276775121689,-0.26148509979248047
1772785935079861800,0.73986181640625,0.4677722454071045,-0.09897856414318085,-0.2518101930618286
1772785935089878800,0.749878662109375,0.43996110558509827,-0.11529575288295746,-0.25376737117767334
1772785935099894800,0.759894775390625,0.4094454348087311,-0.12241456657648087,-0.2661880552768707
1772785935109910800,0.769910888671875,0.3680005371570587,-0.14338108897209167,-0.2647795081138611
1772785935119927800,0.779927734375,0.32988643646240234,-0.1768849492073059,-0.2756461501121521
1772785935129943800,0.78994384765625,0.32008492946624756,-0.2306475192308426,-0.29693251848220825
1772785935139960800,0.7999609375,0.2789701521396637,-0.26646554470062256,-0.289912611246109
1772785935149976800,0.809976806640625,0.2191784530878067,-0.2676841914653778,-0.27438902854919434
1772785935159993900,0.819993896484375,0.15375877916812897,-0.2564411759376526,-0.24736224114894867
1772785935170009900,0.830009765625,0.056517720222473145,-0.2249237596988678,-0.19586709141731262
1772785935180025900,0.84002587890625,-0.05863902345299721,-0.14663565158843994,-0.14274021983146667
1772785935190042600,0.850042724609375,-0.13133053481578827,-0.09486939013004303,-0.08478318154811859
1772785935200058600,0.86005859375,-0.1889907866716385,-0.04958724603056908,-0.03169207274913788
1772785935210076000,0.870075927734375,-0.24399705231189728,-0.04240496829152107,0.02203027904033661
1772785935220092000,0.880091796875,-0.2781304717063904,-0.0725700855255127,0.05968238785862923
1772785935230108000,0.89010791015625,-0.29413551092147827,-0.1288224458694458,0.08465777337551117
1772785935240124700,0.900124755859375,-0.2950972616672516,-0.17924214899539948,0.10641082376241684
1772785935250141000,0.910140869140625,-0.2872430682182312,-0.21906253695487976,0.14422903954982758
1772785935260157700,0.92015771484375,-0.2637331783771515,-0.2476731240749359,0.20843306183815002
1772785935270173700,0.930173583984375,-0.23967096209526062,-0.2660401463508606,0.3014650046825409
1772785935280190700,0.940190673828125,-0.23495736718177795,-0.2542804181575775,0.4486401081085205
1772785935290207000,0.95020703125,-0.2043810933828354,-0.17493897676467896,0.5986873507499695
1772785935300223000,0.960222900390625,-0.14670857787132263,-0.03984273970127106,0.6652342677116394
1772785935310240000,0.970239990234375,-0.15483973920345306,0.14161360263824463,0.6005237102508545
1772785935320256000,0.980256103515625,-0.2063301056623459,0.34614139795303345,0.3492627739906311
1772785935330273000,0.99027294921875,-0.2507055401802063,0.5096291303634644,-0.003970394842326641
1772785935340288800,1.000288818359375,-0.2590138912200928,0.6721678376197815,-0.35531505942344666
1772785935350304800,1.0103046875,-0.22327987849712372,0.7749868631362915,-0.6070048213005066
1772785935360322000,1.020322021484375,-0.14813058078289032,0.7771037817001343,-0.7014878988265991
1772785935370338000,1.030338134765625,-0.06246814504265785,0.7401524186134338,-0.6747630834579468
1772785935380354800,1.040354736328125,-0.07040642946958542,0.6518611311912537,-0.5280311107635498
1772785935390370800,1.050370849609375,-0.07384270429611206,0.5430949926376343,-0.35998111963272095
1772785935400388000,1.06038818359375,-0.04346311092376709,0.44659754633903503,-0.23166203498840332
1772785935410403800,1.07040380859375,0.042500533163547516,0.3568524718284607,-0.17367197573184967
1772785935420419800,1.080419921875,0.1823786050081253,0.2593860924243927,-0.1826728731393814
1772785935430436900,1.090436767578125,0.36278486251831055,0.1367984116077423,-0.21474425494670868
1772785935440452900,1.100452880859375,0.46020880341529846,-0.006293569691479206,-0.22039860486984253
1772785935450470000,1.110469970703125,0.5162590146064758,-0.13809660077095032,-0.25103214383125305
1772785935460486000,1.12048583984375,0.5380244851112366,-0.24491749703884125,-0.2881268262863159
1772785935470502000,1.130501953125,0.5158554911613464,-0.29313960671424866,-0.2979126274585724
1772785935480519000,1.140518798828125,0.46973246335983276,-0.27657657861709595,-0.2802513539791107
1772785935490535000,1.150534912109375,0.4008018672466278,-0.23082639276981354,-0.2485879808664322
1772785935500552000,1.160552001953125,0.33016088604927063,-0.18260937929153442,-0.19553571939468384
1772785935510568000,1.17056787109375,0.2900795042514801,-0.13644666969776154,-0.1439068764448166
1772785935520584000,1.180583984375,0.2986173927783966,-0.11602689325809479,-0.12268117815256119
1772785935530601000,1.19060107421875,0.33588355779647827,-0.1317824125289917,-0.12038233876228333
1772785935540617000,1.200616943359375,0.3913573920726776,-0.18114544451236725,-0.1332222819328308
1772785935550634000,1.210634033203125,0.44752585887908936,-0.23941805958747864,-0.16284061968326569
1772785935560650000,1.22064990234375,0.5027260184288025,-0.28652191162109375,-0.21367153525352478
1772785935570667000,1.2306669921875,0.5396052002906799,-0.30374565720558167,-0.2692921757698059
1772785935580683000,1.24068310546875,0.5836044549942017,-0.2987518310546875,-0.32238858938217163
1772785935590699000,1.250698974609375,0.6280105710029602,-0.2863183319568634,-0.36945995688438416
1772785935600715800,1.2607158203125,0.6652398109436035,-0.28136539459228516,-0.4050755500793457
1772785935610731800,1.270731689453125,0.6995006203651428,-0.294303297996521,-0.44491538405418396
1772785935620749000,1.2807490234375,0.7096503376960754,-0.31972846388816833,-0.4875974953174591
1772785935630765000,1.29076513671875,0.7179005742073059,-0.3320002853870392,-0.5408588647842407
1772785935640780800,1.30078076171875,0.7138320207595825,-0.3322317600250244,-0.5697264671325684
1772785935650797800,1.3107978515625,0.7122825384140015,-0.30582892894744873,-0.5697618722915649
1772785935660813800,1.320813720703125,0.7033929824829102,-0.2570033669471741,-0.5363782048225403
1772785935670830800,1.330830810546875,0.699288547039032,-0.19598716497421265,-0.46483638882637024
1772785935680846800,1.340846923828125,0.6913886666297913,-0.142561137676239,-0.36098238825798035
1772785935690862800,1.35086279296875,0.6671954393386841,-0.09325829893350601,-0.24975866079330444
1772785935700880000,1.3608798828125,0.6239643096923828,-0.053363725543022156,-0.15592503547668457
1772785935710896000,1.370896240234375,0.564856767654419,-0.04376143217086792,-0.0811205729842186
1772785935720913000,1.380912841796875,0.49663570523262024,-0.053630586713552475,-0.02069835551083088
1772785935730929000,1.390928955078125,0.4282606542110443,-0.06977466493844986,0.010628940537571907
1772785935740946000,1.40094580078125,0.3549323081970215,-0.10160761326551437,0.00800470169633627
1772785935750962000,1.4109619140625,0.2797025144100189,-0.1519956886768341,-0.02794877253472805
1772785935760978000,1.42097802734375,0.19621437788009644,-0.20250234007835388,-0.08889737725257874
1772785935770995000,1.430994873046875,0.11690065264701843,-0.23105916380882263,-0.15527454018592834
1772785935781011000,1.441010986328125,0.043475355952978134,-0.2316787987947464,-0.20624502003192902
1772785935791028000,1.451028076171875,-0.014836156740784645,-0.20532016456127167,-0.23518478870391846
1772785935801044000,1.4610439453125,-0.0811358392238617,-0.1517242193222046,-0.2591659426689148
1772785935811060000,1.47106005859375,-0.1340634971857071,-0.10177956521511078,-0.27607807517051697
1772785935821077000,1.481076904296875,-0.1639224886894226,-0.05178821086883545,-0.2838626205921173
1772785935831092700,1.4910927734375,-0.1786005049943924,0.009252773597836494,-0.28154298663139343
1772785935841110000,1.501110107421875,-0.1820821911096573,0.06195935234427452,-0.27544838190078735
1772785935851126000,1.5111259765625,-0.1655077338218689,0.08866286277770996,-0.26306015253067017
1772785935861142000,1.52114208984375,-0.13814455270767212,0.11485375463962555,-0.24807699024677277
1772785935871158800,1.53115869140625,-0.10809902846813202,0.13202236592769623,-0.22940130531787872
1772785935881174800,1.5411748046875,-0.07351725548505783,0.14123858511447906,-0.21352632343769073
1772785935891192000,1.551192138671875,-0.03535362333059311,0.14634759724140167,-0.20799227058887482
1772785935901207800,1.561207763671875,0.0048468573950231075,0.14722567796707153,-0.21635858714580536
1772785935911223800,1.571223876953125,0.04274337366223335,0.13427525758743286,-0.226827472448349
1772785935921240800,1.58124072265625,0.07879544794559479,0.1224183440208435,-0.23641668260097504
1772785935931257000,1.591257080078125,0.1064198836684227,0.10413707792758942,-0.24413397908210754
1772785935941273900,1.60127392578125,0.13028323650360107,0.07905767858028412,-0.24684152007102966
1772785935951289900,1.611289794921875,0.13118071854114532,0.047924794256687164,-0.2387753278017044
1772785935961305900,1.621305908203125,0.11427415907382965,0.001831923727877438,-0.22430600225925446
1772785935971323100,1.6313232421875,0.08040620386600494,-0.05396635830402374,-0.2030790001153946
1772785935981339000,1.6413388671875,0.03210650384426117,-0.10389149188995361,-0.19244469702243805
1772785935991356000,1.65135595703125,-0.02638876438140869,-0.141068696975708,-0.18733488023281097
1772785936001372000,1.661371826171875,-0.09511852264404297,-0.15494047105312347,-0.1803264021873474
1772785936011388000,1.671387939453125,-0.16324271261692047,-0.17464520037174225,-0.1532098352909088
1772785936021405000,1.681405029296875,-0.2284456193447113,-0.19274160265922546,-0.1060793399810791
1772785936031421000,1.6914208984375,-0.2902597188949585,-0.18604348599910736,-0.04544768109917641
1772785936041438000,1.70143798828125,-0.3366118371486664,-0.17763201892375946,0.012319400906562805
1772785936051454000,1.711453857421875,-0.36284077167510986,-0.16393910348415375,0.049866508692502975
1772785936061471000,1.721470947265625,-0.3739685118198395,-0.15808340907096863,0.06508316844701767
1772785936071487000,1.731487060546875,-0.390184223651886,-0.1472427397966385,0.07702531665563583
1772785936081503000,1.7415029296875,-0.44523149728775024,-0.14432592689990997,0.10447615385055542
1772785936091519700,1.751519775390625,-0.4913308322429657,-0.12058012187480927,0.13360634446144104
1772785936101536000,1.761535888671875,-0.5487458109855652,-0.12483283132314682,0.1270143687725067
1772785936111553000,1.771552978515625,-0.6225308179855347,-0.17401501536369324,0.06328092515468597
1772785936121569000,1.781569091796875,-0.6604130268096924,-0.20110058784484863,-0.016465643420815468
1772785936131584800,1.791584716796875,-0.6378411650657654,-0.20696194469928741,-0.10935110598802567
1772785936141602000,1.80160205078125,-0.5560974478721619,-0.1590600311756134,-0.20396648347377777
1772785936151618000,1.8116181640625,-0.4524613618850708,-0.05441458523273468,-0.2726544439792633
1772785936161634800,1.821634765625,-0.34542715549468994,0.0752362459897995,-0.2762690484523773
1772785936171650800,1.83165087890625,-0.24303525686264038,0.18651777505874634,-0.1920444518327713
1772785936181666800,1.841666748046875,-0.14427416026592255,0.2535642385482788,-0.02789497934281826
1772785936191684000,1.85168408203125,-0.05169948935508728,0.26934269070625305,0.17155048251152039
1772785936201700000,1.8617001953125,0.031357649713754654,0.22023116052150726,0.3801742196083069
1772785936211716900,1.871716796875,0.11584936082363129,0.1203802078962326,0.5914435982704163
1772785936221732900,1.88173291015625,0.20139852166175842,-0.01331096701323986,0.802137017250061
1772785936231748900,1.891748779296875,0.28071174025535583,-0.18208320438861847,0.9862855076789856
1772785936241766000,1.901765869140625,0.3443315923213959,-0.37535226345062256,1.146575927734375
1772785936251782000,1.911781982421875,0.4058450162410736,-0.5557659864425659,1.2708017826080322
1772785936261799000,1.921798828125,0.4584283232688904,-0.6922851800918579,1.340105652809143
1772785936271815000,1.93181494140625,0.49854111671447754,-0.7553671598434448,1.3295576572418213
1772785936281831000,1.941830810546875,0.5271684527397156,-0.7952145934104919,1.247094750404358
1772785936291848400,1.951848388671875,0.5439583659172058,-0.8000175952911377,1.0913161039352417
1772785936301864400,1.961864501953125,0.5463582873344421,-0.7548865079879761,0.8706538081169128
1772785936311881500,1.971881591796875,0.5167239904403687,-0.6857409477233887,0.595470666885376
1772785936321897500,1.9818974609375,0.46767738461494446,-0.6177144646644592,0.30221328139305115
1772785936331913500,1.99191357421875,0.387538343667984,-0.5109052062034607,0.03181614354252815
1772785936341930500,2.001930419921875,0.2773296535015106,-0.33097973465919495,-0.17272238433361053
1772785936351946500,2.011946533203125,0.15931299328804016,-0.10002800077199936,-0.3105550706386566
1772785936361963500,2.021963623046875,0.06378861516714096,0.11040960252285004,-0.3683663010597229
1772785936371979500,2.0319794921875,-0.00592095497995615,0.27999383211135864,-0.34419411420822144
1772785936381995500,2.04199560546875,-0.05662368983030319,0.4060162603855133,-0.2580517530441284
1772785936392012500,2.052012451171875,-0.07988240569829941,0.4748792052268982,-0.13388265669345856
1772785936402028500,2.062028564453125,-0.10736063867807388,0.507553219795227,0.013088447973132133
1772785936412045600,2.072045654296875,-0.13892123103141785,0.50874924659729,0.14921459555625916
1772785936422061600,2.0820615234375,-0.17299234867095947,0.46798229217529297,0.24994006752967834
1772785936432077300,2.092077392578125,-0.1972992867231369,0.4004421532154083,0.29959335923194885
1772785936442094600,2.102094482421875,-0.21482981741428375,0.3062230050563812,0.31181564927101135
1772785936452110600,2.112110595703125,-0.21969380974769592,0.20999367535114288,0.29715707898139954
1772785936462127400,2.12212744140625,-0.21462489664554596,0.12482505291700363,0.2566900849342346
1772785936472143400,2.132143310546875,-0.20423510670661926,0.06084420531988144,0.19863317906856537
1772785936482159600,2.14215966796875,-0.17452488839626312,0.023621708154678345,0.12628470361232758
1772785936492176600,2.1521767578125,-0.13739988207817078,0.005966546945273876,0.04627429321408272
1772785936502192400,2.1621923828125,-0.086548812687397,0.003608008148148656,-0.025444939732551575
1772785936512209400,2.17220947265625,-0.04313795641064644,0.006580894812941551,-0.09450390189886093
1772785936522225700,2.1822255859375,0.00007427460514008999,0.010849799029529095,-0.1453576683998108
1772785936532241700,2.19224169921875,0.0274297334253788,0.024010077118873596,-0.18633893132209778
1772785936542258400,2.202258544921875,0.032479964196681976,0.05256866663694382,-0.21799437701702118
1772785936552274400,2.2122744140625,0.018976671621203423,0.09335099160671234,-0.23749084770679474
1772785936562291700,2.222291748046875,-0.007379508577287197,0.12696301937103271,-0.23786206543445587
1772785936572307700,2.2323076171875,-0.034045472741127014,0.1527288258075714,-0.22616492211818695
1772785936582323500,2.242323486328125,-0.05876627936959267,0.16915373504161835,-0.19371505081653595
1772785936592340500,2.252340576171875,-0.06592033058404922,0.18588823080062866,-0.13169030845165253
1772785936602356500,2.2623564453125,-0.07341375201940536,0.20207494497299194,-0.0665372908115387
1772785936612373500,2.27237353515625,-0.08421154320240021,0.19133707880973816,-0.01806190051138401
1772785936622389500,2.282389404296875,-0.10440919548273087,0.1757413148880005,0.012951003387570381
1772785936632405500,2.292405517578125,-0.10916399955749512,0.1461181789636612,0.03382006660103798
1772785936642422500,2.302422607421875,-0.11546099185943604,0.13192909955978394,0.05027633532881737
1772785936652438500,2.3124384765625,-0.10823343694210052,0.10785598307847977,0.05612596869468689
1772785936662455600,2.32245556640625,-0.07606692612171173,0.09995587170124054,0.07284880429506302
1772785936672471600,2.332471435546875,-0.027238136157393456,0.11665602028369904,0.11162842810153961
1772785936682487600,2.342487548828125,0.02818227745592594,0.13712380826473236,0.1499176323413849
1772785936692504300,2.35250439453125,0.06537491828203201,0.16284382343292236,0.18928687274456024
1772785936702520600,2.3625205078125,0.07927706837654114,0.18785014748573303,0.2247948795557022
1772785936712537600,2.37253759765625,0.08632006496191025,0.20269301533699036,0.25539594888687134
1772785936722553600,2.3825537109375,0.08036871254444122,0.19480319321155548,0.287465900182724
1772785936732569300,2.3925693359375,0.065945565700531,0.17114926874637604,0.31644749641418457
1772785936742586600,2.402586669921875,0.04495159164071083,0.1156550869345665,0.34373030066490173
1772785936752602600,2.4126025390625,0.012829607352614403,0.041381120681762695,0.38403353095054626
1772785936762618600,2.42261865234375,-0.02825780399143696,-0.0230744406580925,0.4381791353225708
1772785936772635400,2.432635498046875,-0.05138682574033737,-0.057039063423871994,0.49569809436798096
1772785936782651400,2.4426513671875,-0.014256811700761318,0.00007549836300313473,0.5099387168884277
1772785936792668700,2.452668701171875,0.1108904480934143,0.1423114687204361,0.41853904724121094
1772785936802684700,2.4626845703125,0.2536005973815918,0.35020071268081665,0.15164527297019958
1772785936812700400,2.472700439453125,0.20844697952270508,0.5207428932189941,-0.22686955332756042
1772785936822717400,2.482717529296875,0.025396674871444702,0.7096512913703918,-0.5750424861907959
1772785936832733400,2.4927333984375,-0.15274909138679504,0.8764234781265259,-0.7951234579086304
1772785936842750500,2.50275048828125,-0.24964508414268494,0.9565824866294861,-0.8321645259857178
1772785936852766500,2.512766357421875,-0.24091923236846924,0.9945620894432068,-0.7536084651947021
1772785936862782500,2.522782470703125,-0.14701132476329803,0.9757360816001892,-0.6072954535484314
1772785936872799500,2.532799560546875,-0.013755000196397305,0.8971201181411743,-0.41182687878608704
1772785936882815500,2.5428154296875,0.16595955193042755,0.8061273694038391,-0.19827616214752197
1772785936892832500,2.55283251953125,0.3450038731098175,0.6650322675704956,0.02502243034541607
1772785936902848500,2.5628486328125,0.4514341354370117,0.49332597851753235,0.21315254271030426
1772785936912864500,2.572864501953125,0.5084284543991089,0.3382309079170227,0.29642772674560547
1772785936922881500,2.582881591796875,0.5456324815750122,0.190271258354187,0.30335140228271484
1772785936932897500,2.5928974609375,0.5444319248199463,0.05334589257836342,0.2699228525161743
1772785936942914600,2.60291455078125,0.49734923243522644,-0.05623763054609299,0.2223087102174759
1772785936952930600,2.6129306640625,0.4131622016429901,-0.15811766684055328,0.1854521632194519
1772785936962946300,2.6229462890625,0.30792132019996643,-0.21398916840553284,0.1682806760072708
1772785936972963600,2.632963623046875,0.21699246764183044,-0.22345484793186188,0.15114402770996094
1772785936982979600,2.6429794921875,0.15183500945568085,-0.22780893743038177,0.12046509981155396
1772785936992996400,2.652996337890625,0.11983393132686615,-0.23805437982082367,0.06402445584535599
1772785937003012400,2.663012451171875,0.12693347036838531,-0.25896450877189636,-0.011461051180958748
1772785937013028600,2.673028564453125,0.15681865811347961,-0.2731005847454071,-0.0855211615562439
1772785937023045600,2.683045654296875,0.19649676978588104,-0.2760079503059387,-0.17061585187911987
1772785937033061600,2.6930615234375,0.23341190814971924,-0.2697753608226776,-0.2597832679748535
1772785937043077400,2.703077392578125,0.270494282245636,-0.24947196245193481,-0.33205264806747437
1772785937053094400,2.713094482421875,0.2619982659816742,-0.22522255778312683,-0.36107444763183594
1772785937063110700,2.723110595703125,0.23390096426010132,-0.2297683209180832,-0.37338370084762573
1772785937073127400,2.73312744140625,0.229498490691185,-0.24522370100021362,-0.37367957830429077
1772785937083143400,2.743143310546875,0.25581833720207214,-0.2779884934425354,-0.3610701560974121
1772785937093159400,2.753159423828125,0.3063928484916687,-0.3211631178855896,-0.3506505489349365
1772785937103176700,2.7631767578125,0.37594228982925415,-0.3588932156562805,-0.3388088047504425
1772785937113192400,2.7731923828125,0.46270620822906494,-0.3743656575679779,-0.3102882206439972
1772785937123209500,2.78320947265625,0.5376205444335938,-0.36445143818855286,-0.25698208808898926
1772785937133225500,2.7932255859375,0.5385004281997681,-0.3330349326133728,-0.1862194985151291
1772785937143241500,2.803241455078125,0.48014652729034424,-0.2910386025905609,-0.13310606777668
1772785937153258500,2.813258544921875,0.38616517186164856,-0.24600957334041595,-0.11571642011404037
1772785937163274500,2.8232744140625,0.27846455574035645,-0.19587290287017822,-0.12434107065200806
1772785937173291500,2.83329150390625,0.17327049374580383,-0.1331203132867813,-0.1449161171913147
1772785937183307500,2.8433076171875,0.08752860128879547,-0.0829060971736908,-0.177193284034729
1772785937193323500,2.853323486328125,0.012615211308002472,-0.051056019961833954,-0.20939277112483978
1772785937203340500,2.863340576171875,-0.060957420617341995,-0.026468344032764435,-0.23788055777549744
1772785937213356500,2.8733564453125,-0.13809055089950562,-0.006785186938941479,-0.26214197278022766
1772785937223372500,2.88337255859375,-0.21593770384788513,-0.010090617462992668,-0.2804074287414551
1772785937233389600,2.8933896484375,-0.2988663911819458,-0.016505373641848564,-0.29368969798088074
1772785937243405600,2.903405517578125,-0.3913915157318115,-0.019535716623067856,-0.30456748604774475
1772785937253422600,2.913422607421875,-0.45177415013313293,-0.018267786130309105,-0.3183102011680603
1772785937263438300,2.923438232421875,-0.4883051812648773,0.011377880349755287,-0.31330814957618713
1772785937273454300,2.933454345703125,-0.5080522298812866,0.05464892461895943,-0.2806679308414459
1772785937283471600,2.9434716796875,-0.5086237192153931,0.10598588734865189,-0.22807392477989197
1772785937293486600,2.953486572265625,-0.4876518249511719,0.14210261404514313,-0.16861219704151154
1772785937303503600,2.963503662109375,-0.44818150997161865,0.16487224400043488,-0.11073704063892365
1772785937313519600,2.97351953125,-0.39032620191574097,0.16714578866958618,-0.060554295778274536
1772785937323535600,2.98353564453125,-0.33256223797798157,0.1698826402425766,-0.017805105075240135
1772785937333552600,2.993552734375,-0.2846005856990814,0.1622430980205536,0.0019459612667560577
1772785937343568600,3.003568603515625,-0.2463071048259735,0.1342962682247162,0.007272993680089712
1772785937353584600,3.013584716796875,-0.21408605575561523,0.09686633944511414,-0.0005753416335210204
1772785937363601700,3.0236015625,-0.1774790734052658,0.04627789929509163,-0.008839242160320282
1772785937373617700,3.03361767578125,-0.1502421349287033,0.0017671594396233559,-0.016070257872343063
1772785937383634700,3.043634765625,-0.13182668387889862,-0.02653612568974495,-0.01387770939618349
1772785937393650400,3.053650390625,-0.1377844512462616,-0.03767559304833412,-0.0014029305893927813
1772785937403666700,3.063666748046875,-0.16209816932678223,-0.04061949625611305,0.015026337467133999
1772785937413683700,3.07368359375,-0.19609634578227997,-0.03771398961544037,0.02362009324133396
1772785937423699700,3.08369970703125,-0.23287785053253174,-0.04063814878463745,0.02737671509385109
1772785937433716500,3.093716552734375,-0.2736780047416687,-0.05455369874835014,0.01859227754175663
1772785937443732700,3.103732666015625,-0.3095043897628784,-0.08302900940179825,0.016528360545635223
1772785937453748700,3.113748779296875,-0.35773423314094543,-0.10898657143115997,0.022358020767569542
1772785937463765500,3.123765625,-0.4188917577266693,-0.11721356213092804,0.0472322478890419
1772785937473781500,3.133781494140625,-0.4778578579425812,-0.11934249103069305,0.08320330083370209
1772785937483797500,3.143797607421875,-0.5590457320213318,-0.13809125125408173,0.10838067531585693
1772785937493814800,3.153814697265625,-0.6429142951965332,-0.15453653037548065,0.11786419153213501
1772785937503830800,3.163830810546875,-0.6860588788986206,-0.16153648495674133,0.10723940283060074
1772785937513847600,3.17384765625,-0.6764864325523376,-0.16216233372688293,0.0750255435705185
1772785937523863600,3.183863525390625,-0.6307990550994873,-0.13793139159679413,0.03205030411481857
1772785937533879600,3.193879638671875,-0.5697420835494995,-0.07541606575250626,0.00595638295635581
1772785937543896600,3.203896484375,-0.484514057636261,0.008874904364347458,0.009570131078362465
1772785937553912600,3.21391259765625,-0.38219940662384033,0.10366213321685791,0.033283185213804245
1772785937563929600,3.2239296875,-0.27576151490211487,0.19303227961063385,0.05898485705256462
1772785937573945600,3.233945556640625,-0.15923810005187988,0.2633991241455078,0.0770173892378807
1772785937583961600,3.243961669921875,-0.03523646295070648,0.2978968918323517,0.10200106352567673
1772785937593978600,3.253978515625,0.09929098933935165,0.2787141501903534,0.15080109238624573
1772785937603994600,3.26399462890625,0.23772436380386353,0.2074601650238037,0.21324554085731506
1772785937614010600,3.2740107421875,0.3824900984764099,0.10768617689609528,0.2960171103477478
1772785937624027600,3.284027587890625,0.5241698026657104,-0.00972436461597681,0.3868928551673889
1772785937634043600,3.294043701171875,0.6455931663513184,-0.1360412985086441,0.4830164611339569
1772785937644060700,3.304060791015625,0.7330015301704407,-0.237531378865242,0.5647433400154114
1772785937654076700,3.31407666015625,0.7689129114151001,-0.28472501039505005,0.602575421333313
1772785937664092400,3.324092529296875,0.7572155594825745,-0.29337167739868164,0.5729919672012329
1772785937674109700,3.334109619140625,0.723253071308136,-0.2598970830440521,0.47282835841178894
1772785937684125700,3.344125732421875,0.676449179649353,-0.1952853947877884,0.31023702025413513
1772785937694141700,3.3541416015625,0.6065364480018616,-0.10663222521543503,0.09435689449310303
1772785937704158500,3.364158447265625,0.5007202625274658,0.01349063403904438,-0.13157111406326294
1772785937714174700,3.3741748046875,0.371033638715744,0.1430954933166504,-0.3110183775424957
1772785937724191700,3.384191650390625,0.26211103796958923,0.2591995298862457,-0.4204273819923401
1772785937734207700,3.394207763671875,0.157562255859375,0.383403480052948,-0.41055479645729065
1772785937744223500,3.404223388671875,0.03977122902870178,0.5080482363700867,-0.3162918984889984
1772785937754240500,3.414240478515625,-0.05884828791022301,0.6115296483039856,-0.17137810587882996
1772785937764256800,3.4242568359375,-0.13452878594398499,0.6710593700408936,-0.008501963689923286
1772785937774272800,3.434272705078125,-0.2029419243335724,0.6854641437530518,0.13960441946983337
1772785937784289500,3.44428955078125,-0.24893319606781006,0.635068416595459,0.24061179161071777
1772785937794305500,3.454305419921875,-0.26356300711631775,0.5070459842681885,0.277953565120697
1772785937804322800,3.46432275390625,-0.24274352192878723,0.3259304463863373,0.26334601640701294
1772785937814338600,3.474338623046875,-0.20394659042358398,0.12158183008432388,0.2197178453207016
1772785937824354600,3.4843544921875,-0.1592911034822464,-0.06545041501522064,0.1744089275598526
1772785937834371600,3.49437158203125,-0.10448270291090012,-0.21499089896678925,0.124616339802742
1772785937844387600,3.5043876953125,-0.04193155840039253,-0.29390451312065125,0.08226539939641953
1772785937854404600,3.514404541015625,0.01982554793357849,-0.29977598786354065,0.05570276454091072
1772785937864420600,3.524420654296875,0.08256348222494125,-0.2675296664237976,0.0367962084710598
1772785937874436600,3.5344365234375,0.14874570071697235,-0.1954789161682129,0.024187209084630013
1772785937884453600,3.54445361328125,0.20271451771259308,-0.0896812379360199,0.02204904891550541
1772785937894469600,3.5544697265625,0.24230054020881653,0.013945024460554123,0.011410785838961601
1772785937904485600,3.564485595703125,0.251307874917984,0.10108976066112518,0.0015326126012951136
1772785937914502700,3.574502685546875,0.2471000850200653,0.1652407944202423,0.0002574911341071129
1772785937924518700,3.5845185546875,0.22634457051753998,0.20504042506217957,0.0015755286440253258
1772785937934535700,3.59453564453125,0.2008509337902069,0.21676845848560333,-0.00042450526962056756
1772785937944551700,3.6045517578125,0.17948633432388306,0.2100091129541397,-0.005666930228471756
1772785937954567700,3.614567626953125,0.16162824630737305,0.18332131206989288,-0.004647206049412489
1772785937964584700,3.624584716796875,0.143833190202713,0.14341780543327332,0.012515261769294739
1772785937974600400,3.634600341796875,0.14127948880195618,0.09293253719806671,0.0467456690967083
1772785937984616400,3.644616455078125,0.14943072199821472,0.03448089212179184,0.0829576626420021
1772785937994633700,3.6546337890625,0.14798009395599365,-0.016212908551096916,0.12022807449102402
1772785938004649700,3.664649658203125,0.14303477108478546,-0.05677413195371628,0.16428321599960327
1772785938014666500,3.67466650390625,0.14495225250720978,-0.08614373952150345,0.20691697299480438
1772785938024682500,3.6846826171875,0.15970870852470398,-0.09536124765872955,0.240566223859787
1772785938034698800,3.69469873046875,0.18832942843437195,-0.09312232583761215,0.2603258192539215
1772785938044715500,3.704715576171875,0.22767382860183716,-0.08170291036367416,0.2635030448436737
1772785938054731500,3.7147314453125,0.2828827500343323,-0.06122160330414772,0.24439112842082977
1772785938064747500,3.72474755859375,0.3436753451824188,-0.026704978197813034,0.2089441418647766
1772785938074764800,3.734764892578125,0.4030939042568207,0.0031328112818300724,0.16310662031173706
1772785938084780800,3.74478076171875,0.4520321488380432,0.032591562718153,0.12075582891702652
1772785938094796500,3.754796630859375,0.49598416686058044,0.07148197293281555,0.09030658006668091
1772785938104813600,3.7648134765625,0.5281525254249573,0.1097959578037262,0.07228651642799377
1772785938114829600,3.77482958984375,0.5417836308479309,0.13101255893707275,0.07200261950492859
1772785938124846600,3.7848466796875,0.5458621978759766,0.13612842559814453,0.08848585933446884
1772785938134862600,3.794862548828125,0.536034882068634,0.11670412123203278,0.12407927215099335
1772785938144878600,3.804878662109375,0.5299916863441467,0.08867660909891129,0.1584991216659546
1772785938154895600,3.8148955078125,0.5319225192070007,0.07688439637422562,0.17496144771575928
1772785938164911900,3.824911865234375,0.5937681794166565,0.12741011381149292,0.12810657918453217
1772785938174927600,3.834927734375,0.6624265909194946,0.24159952998161316,-0.01718350313603878
1772785938184944600,3.844944580078125,0.6150367259979248,0.3668552041053772,-0.19692829251289368
1772785938194960600,3.854960693359375,0.41925734281539917,0.490191787481308,-0.34722083806991577
1772785938204977400,3.864977294921875,0.20254069566726685,0.5861932039260864,-0.4262910485267639
1772785938214993700,3.87499365234375,0.0977943167090416,0.7028705477714539,-0.4588412642478943
1772785938225009700,3.885009765625,0.11546704918146133,0.766148567199707,-0.43862882256507874
1772785938235026700,3.895026611328125,0.21248546242713928,0.751428484916687,-0.37104523181915283
1772785938245042700,3.905042724609375,0.35860735177993774,0.68975430727005,-0.2605341970920563
1772785938255058400,3.915058349609375,0.5287961363792419,0.5977625846862793,-0.12400376796722412
1772785938265075700,3.92507568359375,0.7077499628067017,0.4875469505786896,0.02217821218073368
1772785938275091700,3.935091796875,0.8536903858184814,0.36363086104393005,0.15030021965503693
1772785938285108500,3.9451083984375,0.9486700296401978,0.22102037072181702,0.23695917427539825
1772785938295125800,3.955125732421875,1.0038940906524658,0.07922648638486862,0.24609380960464478
1772785938305141800,3.965141845703125,1.0403356552124023,-0.0410354882478714,0.17962022125720978
1772785938315158500,3.975158447265625,1.0610930919647217,-0.13288924098014832,0.0703912004828453
1772785938325174500,3.985174560546875,1.0376439094543457,-0.207777738571167,-0.0402909517288208
1772785938335190500,3.9951904296875,0.9758912920951843,-0.2906891107559204,-0.10664361715316772
1772785938345207800,4.005207763671875,0.8877634406089783,-0.3820740282535553,-0.1262374371290207
1772785938355223600,4.0152236328125,0.7901458144187927,-0.45282304286956787,-0.10223116725683212
1772785938365239600,4.025239501953125,0.7055352926254272,-0.4793408513069153,-0.07492463290691376
1772785938375256600,4.035256591796875,0.6423669457435608,-0.4628646671772003,-0.07095971703529358
1772785938385272800,4.04527294921875,0.5973399877548218,-0.4293343722820282,-0.08037129044532776
1772785938395289600,4.05528955078125,0.5789631009101868,-0.38336554169654846,-0.09636091440916061
1772785938405305600,4.0653056640625,0.5862246751785278,-0.3533994257450104,-0.11487548053264618
1772785938415321600,4.075321533203125,0.6099342703819275,-0.3400002717971802,-0.1376471072435379
1772785938425338600,4.085338623046875,0.6126721501350403,-0.3673095107078552,-0.16105540096759796
1772785938435354600,4.095354736328125,0.5748499035835266,-0.4137241244316101,-0.19570843875408173
1772785938445370600,4.10537060546875,0.5403355360031128,-0.4791600704193115,-0.25979042053222656
1772785938455387600,4.1153876953125,0.509986937046051,-0.5453718304634094,-0.331075519323349
1772785938465403600,4.125403564453125,0.4785209894180298,-0.6057736277580261,-0.39401477575302124
1772785938475419600,4.135419677734375,0.4527256190776825,-0.6516113877296448,-0.45300164818763733
1772785938485436700,4.145436767578125,0.44062912464141846,-0.6661414504051208,-0.503026008605957
1772785938495452700,4.15545263671875,0.46045076847076416,-0.6369071006774902,-0.5458107590675354
1772785938505469400,4.165469482421875,0.49003157019615173,-0.5547133684158325,-0.5662746429443359
1772785938515485400,4.1754853515625,0.5184491276741028,-0.43641015887260437,-0.5680403113365173
1772785938525501700,4.185501708984375,0.48643192648887634,-0.2894948720932007,-0.5265665054321289
1772785938535518700,4.195518798828125,0.416185200214386,-0.13993173837661743,-0.46875113248825073
1772785938545534700,4.20553466796875,0.3347019851207733,-0.021184798330068588,-0.4225963354110718
1772785938555550500,4.215550537109375,0.27142155170440674,0.05623489245772362,-0.4064525067806244
1772785938565567700,4.225567626953125,0.2290358990430832,0.08898920565843582,-0.4098632335662842
1772785938575583700,4.235583740234375,0.2019323706626892,0.08159467577934265,-0.4222258925437927
1772785938585599700,4.245599853515625,0.1860688328742981,0.043338924646377563,-0.4309711456298828
1772785938595616500,4.255616455078125,0.16565409302711487,-0.0038123393896967173,-0.4343344271183014
1772785938605632500,4.265632568359375,0.13465003669261932,-0.04901286959648132,-0.42706936597824097
1772785938615649800,4.27564990234375,0.08276261389255524,-0.08922367542982101,-0.4094501733779907
1772785938625665800,4.285665771484375,0.017035814002156258,-0.11041612923145294,-0.38681814074516296
1772785938635681500,4.295681640625,-0.05010407418012619,-0.09166454523801804,-0.3728426694869995
1772785938645698600,4.305698486328125,-0.10098075121641159,-0.045624036341905594,-0.36709773540496826
1772785938655714600,4.315714599609375,-0.12584881484508514,0.010258138179779053,-0.3757684528827667
1772785938665730800,4.325730712890625,-0.12804068624973297,0.0539042092859745,-0.3847637176513672
1772785938675747600,4.33574755859375,-0.11614886671304703,0.10963990539312363,-0.37205272912979126
1772785938685763600,4.345763671875,-0.09731215238571167,0.16260553896427155,-0.3308958411216736
1772785938695779600,4.355779541015625,-0.09092376381158829,0.21134379506111145,-0.26416128873825073
1772785938705796600,4.365796630859375,-0.10380823910236359,0.26204365491867065,-0.1785305142402649
1772785938715812600,4.3758125,-0.13388971984386444,0.2891501188278198,-0.09491550177335739
1772785938725829600,4.38582958984375,-0.17512382566928864,0.28777065873146057,-0.03187926486134529
1772785938735845600,4.395845703125,-0.22675107419490814,0.27531611919403076,0.01867552287876606
1772785938745861600,4.405861572265625,-0.29344427585601807,0.24860383570194244,0.06441745907068253
1772785938755878700,4.415878662109375,-0.3673240840435028,0.19616353511810303,0.10559285432100296
1772785938765894700,4.425894775390625,-0.4463980197906494,0.1465623527765274,0.14021019637584686
1772785938775910700,4.43591064453125,-0.5224936008453369,0.10889939963817596,0.16975557804107666
1772785938785927400,4.445927490234375,-0.595812201499939,0.08322310447692871,0.20405732095241547
1772785938795943700,4.455943603515625,-0.6701834201812744,0.06806492060422897,0.25278836488723755
1772785938805959700,4.465959716796875,-0.7454492449760437,0.06016424298286438,0.32007598876953125
1772785938815976700,4.475976806640625,-0.8222769498825073,0.04692007973790169,0.4033232033252716
1772785938825992700,4.48599267578125,-0.9013606309890747,0.021624019369482994,0.5189418792724609
1772785938836009700,4.496009765625,-0.9400821924209595,0.022824039682745934,0.6414999961853027
1772785938846025700,4.506025634765625,-0.9435765743255615,-0.024890849366784096,0.7217960953712463
1772785938856041700,4.516041748046875,-0.9558076858520508,-0.13903926312923431,0.7407665848731995
1772785938866058500,4.52605859375,-0.926640510559082,-0.2469279170036316,0.7245625853538513
1772785938876074500,4.536074462890625,-0.8720023036003113,-0.3436499536037445,0.6776731014251709
1772785938886090500,4.546090576171875,-0.7928892970085144,-0.4184989333152771,0.574278712272644
1772785938896107800,4.556107666015625,-0.6969491839408875,-0.4449752867221832,0.407964289188385
1772785938906123500,4.56612353515625,-0.5980507731437683,-0.4022562503814697,0.2224111109972
1772785938916139500,4.576139404296875,-0.5267155766487122,-0.2994116246700287,0.10659874975681305
1772785938926156500,4.586156494140625,-0.48119476437568665,-0.15876242518424988,0.10652589797973633
1772785938936172800,4.5961728515625,-0.42188987135887146,-0.02294093929231167,0.19364029169082642
1772785938946188800,4.606188720703125,-0.3321089446544647,0.09036809951066971,0.33151939511299133
1772785938956205600,4.61620556640625,-0.22076325118541718,0.1728014498949051,0.4735788106918335
1772785938966221600,4.6262216796875,-0.11428934335708618,0.18650925159454346,0.5735405087471008
1772785938976237600,4.636237548828125,-0.01776786334812641,0.12400458753108978,0.6138996481895447
1772785938986254600,4.646254638671875,0.06161358207464218,0.011858541518449783,0.6058206558227539
1772785938996270600,4.6562705078125,0.10761303454637527,-0.10211436450481415,0.5569967031478882
1772785939006287600,4.66628759765625,0.11249472945928574,-0.15476597845554352,0.4759836792945862
1772785939016303600,4.6763037109375,0.07257421314716339,-0.1282917559146881,0.36813950538635254
1772785939026319600,4.686319580078125,0.002310296520590782,-0.05814219266176224,0.2340342104434967
1772785939036336600,4.696336669921875,-0.07918323576450348,0.04377325251698494,0.09089701622724533
1772785939046352600,4.7063525390625,-0.1505921334028244,0.15528087317943573,-0.0348089262843132
1772785939056368600,4.71636865234375,-0.20999287068843842,0.24356359243392944,-0.09004581719636917
1772785939066385700,4.7263857421875,-0.25242459774017334,0.3164233863353729,-0.08133148401975632
1772785939076401700,4.736401611328125,-0.25198251008987427,0.37616047263145447,-0.028616607189178467
1772785939086417700,4.746417724609375,-0.19950181245803833,0.41670557856559753,0.01601351425051689
1772785939096434700,4.7564345703125,-0.1529790610074997,0.41261735558509827,0.057967886328697205
1772785939106450400,4.766450439453125,-0.1451830267906189,0.37367117404937744,0.11083231121301651
1772785939116466400,4.776466552734375,-0.1472291350364685,0.33613869547843933,0.16143476963043213
1772785939126483700,4.786483642578125,-0.14148806035518646,0.29955703020095825,0.1974167376756668
1772785939136499700,4.796499755859375,-0.14274640381336212,0.2856537103652954,0.20626668632030487
1772785939146515700,4.806515625,-0.15325511991977692,0.2919187843799591,0.18061110377311707
1772785939156532500,4.816532470703125,-0.14524619281291962,0.2922423481941223,0.15177172422409058
1772785939166548700,4.826548828125,-0.12945711612701416,0.27978813648223877,0.1384512037038803
1772785939176565800,4.836565673828125,-0.11765106767416,0.25800827145576477,0.14280787110328674
1772785939186581500,4.84658154296875,-0.12633951008319855,0.2289361208677292,0.15775370597839355
1772785939196597500,4.856597412109375,-0.1478826254606247,0.19933028519153595,0.17883716523647308
1772785939206614800,4.86661474609375,-0.17928984761238098,0.16295628249645233,0.20326343178749084
1772785939216630800,4.876630859375,-0.2179352343082428,0.11309605091810226,0.2148604393005371
1772785939226646800,4.886646728515625,-0.25626999139785767,0.039904698729515076,0.2038099467754364
1772785939236663600,4.89666357421875,-0.28108906745910645,-0.05323190242052078,0.1695542335510254
1772785939246679600,4.906679443359375,-0.287273645401001,-0.14166444540023804,0.12285393476486206
1772785939256695800,4.91669580078125,-0.264861524105072,-0.20283406972885132,0.086488738656044
1772785939266712600,4.926712646484375,-0.2426101416349411,-0.21275144815444946,0.09040465950965881
1772785939276728600,4.936728515625,-0.2291659712791443,-0.18615898489952087,0.13859163224697113
1772785939286744600,4.94674462890625,-0.23923301696777344,-0.1264827847480774,0.21610508859157562
1772785939296761300,4.95676123046875,-0.2568165361881256,-0.05889469385147095,0.2921313941478729
1772785939306777600,4.966777587890625,-0.2821182608604431,0.005941784009337425,0.337435781955719
1772785939316793300,4.97679345703125,-0.30310583114624023,0.0527990385890007,0.3427099287509918
1772785939326810400,4.986810302734375,-0.29997581243515015,0.08421406149864197,0.3018916845321655
1772785939336826400,4.996826416015625,-0.26429104804992676,0.10614785552024841,0.22554445266723633
1772785939346843400,5.006843505859375,-0.20976446568965912,0.1291612684726715,0.13591261208057404
1772785939356859400,5.016859375,-0.14481289684772491,0.1508449912071228,0.06105141341686249
1772785939366875400,5.02687548828125,-0.08783610910177231,0.1705087274312973,0.015616052784025669
1772785939376892400,5.036892333984375,-0.04280205816030502,0.20220991969108582,0.004084298852831125
1772785939386908400,5.046908447265625,-0.0174883846193552,0.2529319226741791,0.028032392263412476
1772785939396924400,5.05692431640625,-0.004715331830084324,0.31757456064224243,0.07711125910282135
1772785939406941400,5.06694140625,-0.009906364604830742,0.3743411600589752,0.13101284205913544
1772785939416957400,5.07695751953125,-0.025163881480693817,0.390832781791687,0.1574292629957199
1772785939426973400,5.086973388671875,-0.048652272671461105,0.35805100202560425,0.1522815227508545
1772785939436990200,5.096990234375,-0.06459128856658936,0.2849368453025818,0.1088554859161377
1772785939447006500,5.10700634765625,-0.05559564754366875,0.19448809325695038,0.028272677212953568
1772785939457022500,5.1170224609375,-0.02660154551267624,0.10342396795749664,-0.08397956192493439
1772785939467039200,5.127039306640625,0.04061282426118851,0.028539491817355156,-0.1996317356824875
1772785939477055200,5.13705517578125,0.14894196391105652,0.018169410526752472,-0.2827223539352417
1772785939487071200,5.1470712890625,0.26443636417388916,0.08884109556674957,-0.29524943232536316
1772785939497088500,5.157088623046875,0.340547114610672,0.19643813371658325,-0.23939120769500732
1772785939507104500,5.1671044921875,0.3534584045410156,0.33930352330207825,-0.13902321457862854
1772785939517120300,5.177120361328125,0.309002548456192,0.4595510959625244,-0.03281102329492569
1772785939527137300,5.18713720703125,0.24888384342193604,0.48302802443504333,0.04450010135769844
1772785939537153500,5.197153564453125,0.19129592180252075,0.4179539382457733,0.06322478502988815
1772785939547169500,5.20716943359375,0.16029055416584015,0.29529309272766113,0.02559548057615757
1772785939557186300,5.217186279296875,0.1735357940196991,0.17025208473205566,-0.047244634479284286
1772785939567202300,5.227202392578125,0.227870911359787,0.05339079350233078,-0.11514052003622055
1772785939577218300,5.23721826171875,0.28041163086891174,-0.0643552839756012,-0.14906705915927887
1772785939587235300,5.2472353515625,0.2982555031776428,-0.16229528188705444,-0.13366959989070892
1772785939597251300,5.257251220703125,0.3041994273662567,-0.20658764243125916,-0.09308834373950958
1772785939607267300,5.267267333984375,0.31388142704963684,-0.2086813896894455,-0.01898215152323246
1772785939617284400,5.277284423828125,0.33204764127731323,-0.1719052642583847,0.0874934270977974
1772785939627300400,5.28730029296875,0.32978108525276184,-0.13062749803066254,0.2384932041168213
1772785939637317400,5.2973173828125,0.29721567034721375,-0.12250830978155136,0.3897964358329773
1772785939647333400,5.30733349609375,0.2316131740808487,-0.15205131471157074,0.5191394090652466
1772785939657349400,5.317349365234375,0.11705277115106583,-0.1854260414838791,0.650982677936554
1772785939667366100,5.3273662109375,0.021392883732914925,-0.18524742126464844,0.7757088541984558
1772785939677382400,5.33738232421875,-0.018575303256511688,-0.15610657632350922,0.8632302284240723
1772785939687398400,5.3473984375,-0.07104846090078354,-0.13987082242965698,0.8959956765174866
1772785939697415400,5.35741552734375,-0.11042862385511398,-0.16261395812034607,0.8477442860603333
1772785939707431400,5.367431396484375,-0.1574363112449646,-0.19611144065856934,0.7499489784240723
1772785939717447200,5.377447265625,-0.1424882560968399,-0.253886342048645,0.6703441143035889
1772785939727464400,5.38746435546875,-0.05776409059762955,-0.3496476709842682,0.6088681221008301
1772785939737480400,5.39748046875,0.07080613076686859,-0.4720958173274994,0.5494716167449951
1772785939747496400,5.407496337890625,0.19936391711235046,-0.5611803531646729,0.4626721441745758
1772785939757513200,5.41751318359375,0.26084405183792114,-0.552432119846344,0.3058684170246124
1772785939767529500,5.427529541015625,0.2784076929092407,-0.45514073967933655,0.038579389452934265
1772785939777545500,5.43754541015625,0.28229349851608276,-0.3342476189136505,-0.34562182426452637
1772785939787562500,5.4475625,0.2376130074262619,-0.1532275378704071,-0.7910783886909485
1772785939797578200,5.457578125,0.0867912694811821,0.05583859235048294,-1.2219454050064087
1772785939807594200,5.46759423828125,-0.14748556911945343,0.22412706911563873,-1.5307360887527466
1772785939817611500,5.477611572265625,-0.33164340257644653,0.37771904468536377,-1.64902925491333
1772785939827627500,5.48762744140625,-0.3910345733165741,0.5044881105422974,-1.6003655195236206
1772785939837643300,5.497643310546875,-0.3542962670326233,0.6736859679222107,-1.426025390625
1772785939847660300,5.507660400390625,-0.2644844949245453,0.8282713294029236,-1.2239755392074585
1772785939857676300,5.51767626953125,-0.21156452596187592,0.9208846092224121,-1.0533713102340698
1772785939867692500,5.527692626953125,-0.24785348773002625,0.9499164819717407,-0.9471145272254944
1772785939877709300,5.537709228515625,-0.312457799911499,0.8972111940383911,-0.9297515153884888
1772785939887725300,5.547725341796875,-0.3884660005569458,0.7885703444480896,-0.9463444948196411
1772785939897741300,5.5577412109375,-0.46865564584732056,0.6755228638648987,-0.9687203764915466
1772785939907758600,5.567758544921875,-0.5669654011726379,0.583528459072113,-0.995370090007782
1772785939917774300,5.5777744140625,-0.6619342565536499,0.4925117492675781,-1.0246789455413818
1772785939927790300,5.587790283203125,-0.7257727980613708,0.406848281621933,-1.0270556211471558
1772785939937807400,5.597807373046875,-0.7485140562057495,0.3064731955528259,-0.9801008701324463
1772785939947823400,5.6078232421875,-0.7296335101127625,0.2232860028743744,-0.866965115070343
1772785939957839600,5.617839599609375,-0.701058566570282,0.13176967203617096,-0.6830344200134277
1772785939967856400,5.6278564453125,-0.6667665243148804,0.014201185666024685,-0.4762064814567566
1772785939977872400,5.637872314453125,-0.6162412762641907,-0.12284401804208755,-0.29988017678260803
1772785939987888400,5.647888427734375,-0.5457522869110107,-0.25474119186401367,-0.17479774355888367
1772785939997905400,5.657905517578125,-0.4577704966068268,-0.3433762490749359,-0.09277958422899246
1772785940007921400,5.66792138671875,-0.37680140137672424,-0.3728924095630646,-0.03961685672402382
1772785940017937400,5.6779375,-0.30581989884376526,-0.37938281893730164,-0.023103926330804825
1772785940027954400,5.687954345703125,-0.23335051536560059,-0.38411012291908264,-0.034024935215711594
1772785940037970400,5.697970458984375,-0.15303224325180054,-0.397722065448761,-0.05777447298169136
1772785940047986200,5.707986083984375,-0.07113877683877945,-0.4237433671951294,-0.0829227939248085
1772785940058003500,5.71800341796875,-0.010904192924499512,-0.4357007145881653,-0.11054563522338867
1772785940068019500,5.72801953125,0.03916114568710327,-0.45922261476516724,-0.12994393706321716
1772785940078035500,5.738035400390625,0.11273124068975449,-0.5007585883140564,-0.14326293766498566
1772785940088052200,5.74805224609375,0.1996910274028778,-0.5449956655502319,-0.1588885635137558
1772785940098068500,5.758068359375,0.2905908524990082,-0.5525731444358826,-0.16451795399188995
1772785940108084500,5.76808447265625,0.3580608665943146,-0.49624428153038025,-0.1628987044095993
1772785940118101200,5.778101318359375,0.38909441232681274,-0.44331955909729004,-0.17398011684417725
1772785940128117200,5.7881171875,0.3870912492275238,-0.4283753037452698,-0.21219518780708313
1772785940138133200,5.79813330078125,0.3410041630268097,-0.4018627107143402,-0.25660765171051025
1772785940148150500,5.808150634765625,0.2812504470348358,-0.32790499925613403,-0.302615761756897
1772785940158166500,5.81816650390625,0.1805528849363327,-0.23575349152088165,-0.3505398631095886
1772785940168182300,5.828182373046875,0.040664419531822205,-0.14220884442329407,-0.40011775493621826
1772785940178199300,5.83819921875,-0.10648535192012787,-0.043427396565675735,-0.4426063597202301
1772785940188215600,5.848215576171875,-0.2390008568763733,0.05787230283021927,-0.4520243704319
1772785940198231600,5.8582314453125,-0.3599991798400879,0.14398854970932007,-0.42807936668395996
1772785940208248300,5.868248291015625,-0.4664810001850128,0.17737612128257751,-0.3834080100059509
1772785940218264300,5.878264404296875,-0.5472594499588013,0.19621504843235016,-0.3004039227962494
1772785940228280300,5.8882802734375,-0.6034412980079651,0.24536404013633728,-0.18032242357730865
1772785940238297300,5.89829736328125,-0.653667688369751,0.2813819646835327,-0.053641434758901596
1772785940248313300,5.908313232421875,-0.6680801510810852,0.2754429280757904,0.02259136363863945
1772785940258329300,5.918329345703125,-0.6042566895484924,0.21475721895694733,0.027021266520023346
1772785940268346400,5.928346435546875,-0.4712703227996826,0.08888037502765656,0.005491859279572964
1772785940278362400,5.9383623046875,-0.3235756754875183,-0.03032325580716133,0.03271549195051193
1772785940288378400,5.94837841796875,-0.204093798995018,-0.11419074237346649,0.1574118584394455
1772785940298396000,5.95839599609375,-0.12059199064970016,-0.15431685745716095,0.36693793535232544
1772785940308412000,5.968411865234375,-0.06534934788942337,-0.1387782245874405,0.6150421500205994
1772785940318428000,5.978427978515625,-0.020710505545139313,-0.10184631496667862,0.8489004373550415
1772785940328444700,5.988444580078125,0.022886021062731743,-0.06875332444906235,1.0453413724899292
1772785940338460700,5.998460693359375,0.041732411831617355,-0.0904247984290123,1.2065593004226685
1772785940348476700,6.0084765625,0.035141728818416595,-0.1492193639278412,1.31491219997406
1772785940358493700,6.01849365234375,0.03597316890954971,-0.24711158871650696,1.329048991203308
1772785940368509700,6.028509765625,0.06621356308460236,-0.37887945771217346,1.254989743232727
1772785940378525700,6.038525634765625,0.11243192851543427,-0.5160825848579407,1.1153146028518677
1772785940388542700,6.048542724609375,0.17675629258155823,-0.6329874396324158,0.9225162863731384
1772785940398559000,6.05855908203125,0.2571001350879669,-0.6903820037841797,0.6938753724098206
1772785940408574700,6.06857470703125,0.3823128938674927,-0.6669965982437134,0.41375207901000977
1772785940418591700,6.078591796875,0.4964565336704254,-0.5833320617675781,0.0959155261516571
1772785940428607700,6.088607666015625,0.5799676775932312,-0.4599860608577728,-0.2052692174911499
1772785940438623700,6.098623779296875,0.5975010991096497,-0.30426517128944397,-0.4156235158443451
1772785940448640800,6.108640869140625,0.5526311993598938,-0.1071547344326973,-0.4872500002384186
1772785940458656800,6.11865673828125,0.48010244965553284,0.10472635924816132,-0.44758543372154236
1772785940468672800,6.1286728515625,0.334250807762146,0.28062525391578674,-0.3520767390727997
1772785940478689800,6.138689697265625,0.12208101153373718,0.40873900055885315,-0.23656345903873444
1772785940488705800,6.148705810546875,-0.07113232463598251,0.47891688346862793,-0.1126914918422699
1772785940498721800,6.1587216796875,-0.22006161510944366,0.4930611848831177,-0.002002525608986616
1772785940508738800,6.16873876953125,-0.34510689973831177,0.4512004852294922,0.09551277756690979
1772785940518754800,6.1787548828125,-0.4404904246330261,0.39299947023391724,0.17450933158397675
1772785940528770600,6.1887705078125,-0.5017092823982239,0.3162420392036438,0.21537384390830994
1772785940538787800,6.198787841796875,-0.5424883961677551,0.2253936231136322,0.2317802459001541
1772785940548803800,6.208803955078125,-0.5573616027832031,0.13539555668830872,0.22537027299404144
1772785940558819800,6.21881982421875,-0.5391048192977905,0.05076083913445473,0.1986960470676422
1772785940568835800,6.2288359375,-0.49921777844429016,-0.011910693719983101,0.15299871563911438
1772785940578852600,6.2388525390625,-0.4422945976257324,-0.046535249799489975,0.10426605492830276
1772785940588868900,6.248868896484375,-0.3765884041786194,-0.06057964265346527,0.06102705001831055
1772785940598884900,6.258884765625,-0.3073480725288391,-0.061502955853939056,0.03349875286221504
1772785940608901600,6.268901611328125,-0.2520504891872406,-0.05371224135160446,0.03241318091750145
1772785940618917600,6.278917724609375,-0.22258953750133514,-0.03392655402421951,0.055261239409446716
1772785940628933600,6.28893359375,-0.2221623957157135,0.012114251032471657,0.09331332892179489
1772785940638951000,6.298950927734375,-0.24439392983913422,0.07989116758108139,0.113105408847332
1772785940648967000,6.308966796875,-0.30083343386650085,0.14713777601718903,0.10594753921031952
1772785940658982700,6.318982666015625,-0.3847898542881012,0.19450901448726654,0.06990804523229599
1772785940668999700,6.328999755859375,-0.47118914127349854,0.23179596662521362,0.016255797818303108
1772785940679015700,6.339015625,-0.537649929523468,0.22734208405017853,-0.044889580458402634
1772785940689032000,6.349031982421875,-0.580049991607666,0.1900029182434082,-0.07278120517730713
1772785940699048700,6.359048583984375,-0.6165052056312561,0.1406763792037964,-0.04269493743777275
1772785940709064700,6.369064697265625,-0.6203945279121399,0.10134521126747131,0.03657827526330948
1772785940719080700,6.379080810546875,-0.5868674516677856,0.07653360068798065,0.1209791824221611
1772785940729097700,6.38909765625,-0.5382428765296936,0.0863598957657814,0.19940507411956787
1772785940739113700,6.39911376953125,-0.48477885127067566,0.10278467833995819,0.25009143352508545
1772785940749129700,6.409129638671875,-0.42554062604904175,0.11585447192192078,0.272461473941803
1772785940759146800,6.419146728515625,-0.37207260727882385,0.13073408603668213,0.2775087058544159
1772785940769162800,6.429162841796875,-0.31497547030448914,0.1334659606218338,0.27795425057411194
1772785940779178800,6.4391787109375,-0.25465700030326843,0.09810104966163635,0.2621036469936371
1772785940789195800,6.44919580078125,-0.18711446225643158,0.04506036639213562,0.2384464144706726
1772785940799211800,6.459211669921875,-0.10390640795230865,-0.006562350317835808,0.22403845191001892
1772785940809227800,6.469227783203125,-0.034119490534067154,-0.05912547558546066,0.2254091501235962
1772785940819244800,6.479244873046875,0.019735217094421387,-0.10106094181537628,0.24718688428401947
1772785940829260800,6.4892607421875,0.05014257878065109,-0.1298077553510666,0.28240466117858887
1772785940839276800,6.49927685546875,0.08081181347370148,-0.13006500899791718,0.3308968245983124
1772785940849292800,6.509292724609375,0.12502071261405945,-0.0994528979063034,0.3707706332206726
1772785940859309600,6.5193095703125,0.20158366858959198,0.01659674197435379,0.3685527443885803
1772785940869325600,6.52932568359375,0.2740771174430847,0.17807310819625854,0.30222976207733154
1772785940879341800,6.539341796875,0.2751149535179138,0.3501066267490387,0.1863657683134079
1772785940889358800,6.54935888671875,0.1593647301197052,0.46777597069740295,0.06602729856967926
1772785940899374800,6.559374755859375,-0.09055642038583755,0.5232810378074646,0.018753791227936745
1772785940909390600,6.569390625,-0.23092354834079742,0.5922350287437439,-0.06504104286432266
1772785940919407900,6.579407958984375,-0.23515930771827698,0.6526296138763428,-0.12769590318202972
1772785940929424000,6.589423828125,-0.19496840238571167,0.6792135238647461,-0.12019463628530502
1772785940939439900,6.59943994140625,-0.20515179634094238,0.6674487590789795,-0.01157122291624546
1772785940949456600,6.60945654296875,-0.16816991567611694,0.6349630355834961,0.13307391107082367
1772785940959472600,6.61947265625,-0.07647542655467987,0.5511360168457031,0.2440001666545868
1772785940969489000,6.629489013671875,0.023973185569047928,0.42012661695480347,0.28534945845603943
1772785940979505700,6.639505615234375,0.12386036664247513,0.2585286796092987,0.24862313270568848
1772785940989521700,6.649521728515625,0.1724403202533722,0.09625984728336334,0.17081564664840698
1772785940999537700,6.65953759765625,0.1593703329563141,-0.030715681612491608,0.05081547051668167
1772785941009555000,6.669554931640625,0.09152489900588989,-0.10778208822011948,-0.0984167531132698
1772785941019571000,6.679571044921875,-0.02210526168346405,-0.1358155906200409,-0.23588593304157257
1772785941029586700,6.689586669921875,-0.17330153286457062,-0.10199897736310959,-0.2912455201148987
1772785941039602700,6.699602783203125,-0.3219487965106964,-0.012604917399585247,-0.25953206419944763
1772785941049619700,6.70961962890625,-0.431733101606369,0.07112646847963333,-0.16961358487606049
1772785941059635700,6.7196357421875,-0.49405720829963684,0.1455487757921219,-0.05910918489098549
1772785941069652000,6.72965185546875,-0.520939290523529,0.1699349284172058,0.04750601574778557
1772785941079668700,6.739668701171875,-0.5168763399124146,0.12859520316123962,0.11556576192378998
1772785941089684700,6.749684814453125,-0.4852841794490814,0.03295405954122543,0.14671054482460022
1772785941099700700,6.75970068359375,-0.44606781005859375,-0.09177055954933167,0.13078084588050842
1772785941109717800,6.7697177734375,-0.3876899480819702,-0.22710351645946503,0.07496611773967743
1772785941119733800,6.779733642578125,-0.3086766302585602,-0.3625686764717102,-0.019813649356365204
1772785941129749800,6.789749755859375,-0.20957109332084656,-0.46338504552841187,-0.11714153736829758
1772785941139766800,6.799766845703125,-0.09092007577419281,-0.5116713643074036,-0.17205511033535004
1772785941149782800,6.80978271484375,0.02745063044130802,-0.5155775547027588,-0.18871010839939117
1772785941159798800,6.819798828125,0.134597048163414,-0.4935619831085205,-0.18620674312114716
1772785941169815800,6.82981591796875,0.2261277139186859,-0.44549620151519775,-0.1846352219581604
1772785941179831800,6.839831787109375,0.30069810152053833,-0.39039355516433716,-0.19590730965137482
1772785941189847800,6.849847900390625,0.35893791913986206,-0.3315266966819763,-0.22601565718650818
1772785941199864800,6.85986474609375,0.39582720398902893,-0.2782951593399048,-0.2694196105003357
1772785941209880800,6.869880859375,0.4271124303340912,-0.2580021619796753,-0.3286362588405609
1772785941219896800,6.879896728515625,0.4553845524787903,-0.2602221667766571,-0.3780014216899872
1772785941229912800,6.889912841796875,0.47034046053886414,-0.2694018483161926,-0.4188535809516907
1772785941239929600,6.8999296875,0.46567779779434204,-0.280062198638916,-0.4429836869239807
1772785941249945600,6.909945556640625,0.4141921103000641,-0.26566407084465027,-0.44291597604751587
1772785941259961900,6.9199619140625,0.3145808279514313,-0.22922348976135254,-0.39897993206977844
1772785941269979000,6.929978759765625,0.1744254231452942,-0.1565466821193695,-0.31734350323677063
1772785941279994600,6.93999462890625,0.024247100576758385,-0.07842418551445007,-0.22981815040111542
1772785941290009900,6.950009765625,-0.1036478579044342,-0.017708763480186462,-0.1570039838552475
1772785941300027000,6.96002685546875,-0.20350147783756256,0.012923713773488998,-0.10819145292043686
1772785941310043000,6.97004296875,-0.26628223061561584,0.007823516614735126,-0.08602354675531387
1772785941320059000,6.980058837890625,-0.3027784526348114,-0.014057813212275505,-0.08647362142801285
1772785941330076000,6.990075927734375,-0.31649652123451233,-0.03612622246146202,-0.10875401645898819
1772785941340092000,7.000091796875,-0.3172818720340729,-0.05645120143890381,-0.15774978697299957
1772785941350108000,7.01010791015625,-0.32019540667533875,-0.08123992383480072,-0.2307198941707611
1772785941360124000,7.0201240234375,-0.33019208908081055,-0.0925450399518013,-0.29794368147850037
1772785941370140700,7.030140625,-0.34918850660324097,-0.0656244158744812,-0.34703710675239563
1772785941380157000,7.040156982421875,-0.37055346369743347,-0.014359364286065102,-0.37325459718704224
1772785941390173000,7.0501728515625,-0.39557933807373047,0.06355555355548859,-0.3791522979736328
1772785941400190000,7.06018994140625,-0.41725215315818787,0.15773211419582367,-0.378390908241272
1772785941410206000,7.0702060546875,-0.4302590489387512,0.23136767745018005,-0.36588793992996216
1772785941420221700,7.0802216796875,-0.4455312192440033,0.28337281942367554,-0.3452593684196472
1772785941430239000,7.090239013671875,-0.46407458186149597,0.30081111192703247,-0.3246998190879822
1772785941440255000,7.1002548828125,-0.4760609269142151,0.28079959750175476,-0.32108643651008606
1772785941450271000,7.11027099609375,-0.48915818333625793,0.24048756062984467,-0.318423867225647
1772785941460287700,7.120287841796875,-0.5069313049316406,0.1970258355140686,-0.30955368280410767
1772785941470303700,7.1303037109375,-0.5365009307861328,0.14628009498119354,-0.3030957877635956
1772785941480320000,7.140320068359375,-0.5608741641044617,0.11006003618240356,-0.3004395365715027
1772785941490336000,7.1503359375,-0.5832730531692505,0.09135522693395615,-0.29388293623924255
1772785941500352800,7.160352783203125,-0.5993108749389648,0.09219944477081299,-0.28186675906181335
1772785941510368800,7.17036865234375,-0.6052159667015076,0.10341354459524155,-0.259197860956192
1772785941520384800,7.180384765625,-0.6026337742805481,0.1297551393508911,-0.22875447571277618
1772785941530402000,7.190402099609375,-0.5865755677223206,0.16045023500919342,-0.202924445271492
1772785941540417800,7.200417724609375,-0.5591614842414856,0.1757759302854538,-0.18809543550014496
1772785941550433800,7.210433837890625,-0.5301160216331482,0.171548530459404,-0.17980648577213287
1772785941560450800,7.220450927734375,-0.4993261396884918,0.15053991973400116,-0.17019860446453094
1772785941570467000,7.230467041015625,-0.45967525243759155,0.11329030990600586,-0.16164159774780273
1772785941580483000,7.240483154296875,-0.42498040199279785,0.06135653704404831,-0.1576085090637207
1772785941590499800,7.250499755859375,-0.39771777391433716,0.004140079021453857,-0.15068405866622925
1772785941600515800,7.260515869140625,-0.37431207299232483,-0.042458049952983856,-0.13789954781532288
1772785941610531800,7.27053173828125,-0.3622400164604187,-0.08080840855836868,-0.11900980025529861
1772785941620547800,7.2805478515625,-0.36129483580589294,-0.09681853652000427,-0.09452363103628159
1772785941630564900,7.29056494140625,-0.3641325533390045,-0.09548236429691315,-0.06259067356586456
1772785941640580900,7.300580810546875,-0.3743732273578644,-0.08589285612106323,-0.026308031752705574
1772785941650596900,7.310596923828125,-0.394756019115448,-0.0704035609960556,0.012544912286102772
1772785941660614000,7.32061376953125,-0.42961761355400085,-0.06969409435987473,0.038276106119155884
1772785941670630000,7.3306298828125,-0.4741660952568054,-0.0934479609131813,0.038516800850629807
1772785941680646000,7.34064599609375,-0.5285676121711731,-0.13084113597869873,0.024006832391023636
1772785941690663000,7.350662841796875,-0.5897321701049805,-0.1779983639717102,-0.0015329790767282248
1772785941700679000,7.360678955078125,-0.6593959331512451,-0.22989751398563385,-0.021021192893385887
1772785941710695000,7.37069482421875,-0.7215080261230469,-0.2438010722398758,-0.03126931190490723
1772785941720711000,7.3807109375,-0.7590892314910889,-0.23690296709537506,-0.050333015620708466
1772785941730728000,7.39072802734375,-0.807290256023407,-0.2478579431772232,-0.0923633724451065
1772785941740744000,7.400743896484375,-0.8398751020431519,-0.23655709624290466,-0.12700417637825012
1772785941750760000,7.410760009765625,-0.8364044427871704,-0.18166330456733704,-0.13018886744976044
1772785941760777000,7.42077685546875,-0.8084878325462341,-0.08459320664405823,-0.1227559819817543
1772785941770793000,7.43079296875,-0.7655181884765625,0.029547784477472305,-0.12986178696155548
1772785941780809000,7.44080908203125,-0.7187368273735046,0.11787071824073792,-0.15684732794761658
1772785941790825700,7.45082568359375,-0.6706067323684692,0.18050219118595123,-0.18990564346313477
1772785941800841700,7.460841796875,-0.608752965927124,0.21632090210914612,-0.2205149531364441
1772785941810857700,7.470857666015625,-0.5271446704864502,0.23003163933753967,-0.2571693956851959
1772785941820874000,7.4808740234375,-0.4190352261066437,0.19945961236953735,-0.2953697741031647
1772785941830891000,7.49089111328125,-0.3014359176158905,0.14417408406734467,-0.296196311712265
1772785941840906800,7.50090673828125,-0.17819519340991974,0.07871225476264954,-0.24095916748046875
1772785941850922800,7.5109228515625,-0.05468405783176422,0.011310598812997341,-0.15063217282295227
1772785941860940000,7.52093994140625,0.060708582401275635,-0.05785408988595009,-0.0452149398624897
1772785941870956000,7.5309560546875,0.1665835678577423,-0.1241694912314415,0.07670295238494873
1772785941880972000,7.540971923828125,0.2445116639137268,-0.18236753344535828,0.20346195995807648
1772785941890988800,7.55098876953125,0.280970960855484,-0.23301814496517181,0.33608800172805786
1772785941901004800,7.5610048828125,0.3232952654361725,-0.27267715334892273,0.460744172334671
1772785941911021000,7.57102099609375,0.3813574016094208,-0.28934040665626526,0.5669088363647461
1772785941921037000,7.581037109375,0.45901304483413696,-0.32380756735801697,0.6312808990478516
1772785941931053800,7.5910537109375,0.569499135017395,-0.37080106139183044,0.648408055305481
1772785941941069800,7.60106982421875,0.6782692670822144,-0.4153054356575012,0.6207369565963745
1772785941951085800,7.6110859375,0.7419978976249695,-0.4572210907936096,0.5364291071891785
1772785941961102800,7.621102783203125,0.7767462730407715,-0.46850091218948364,0.398932546377182
1772785941971118800,7.631118896484375,0.7597236037254333,-0.4112260937690735,0.2515319585800171
1772785941981134800,7.641134765625,0.695785641670227,-0.2978486716747284,0.11664951592683792
1772785941991151900,7.65115185546875,0.5918430685997009,-0.14294499158859253,0.012463296763598919
1772785942001168000,7.66116796875,0.4751278758049011,0.013129027560353279,-0.06979083269834518
1772785942011183900,7.671183837890625,0.3592832684516907,0.1326712816953659,-0.10697561502456665
1772785942021200000,7.681199951171875,0.25078049302101135,0.1987091451883316,-0.10981827229261398
1772785942031217000,7.691216796875,0.15570655465126038,0.19687168300151825,-0.09828399866819382
1772785942041233000,7.70123291015625,0.06748880445957184,0.1442556083202362,-0.07407905906438828
1772785942051249000,7.711248779296875,-0.023434987291693687,0.056742895394563675,-0.04923807457089424
1772785942061266000,7.721265869140625,-0.11308657377958298,-0.036696240305900574,-0.022656003013253212
1772785942071282000,7.731281982421875,-0.2054491937160492,-0.11428464949131012,-0.001835016766563058
1772785942081298000,7.7412978515625,-0.2886764407157898,-0.16395527124404907,0.028805984184145927
1772785942091314000,7.75131396484375,-0.36524561047554016,-0.1926070898771286,0.07767265290021896
1772785942101331000,7.7613310546875,-0.42239251732826233,-0.16572700440883636,0.13910271227359772
1772785942111347000,7.771346923828125,-0.45335710048675537,-0.12678928673267365,0.19567245244979858
1772785942121363000,7.781363037109375,-0.4586288332939148,-0.0779639482498169,0.25866180658340454
1772785942131380000,7.7913798828125,-0.43232518434524536,0.005814777221530676,0.30565401911735535
1772785942141395700,7.801395751953125,-0.3716844916343689,0.09012086689472198,0.2939733862876892
1772785942151411700,7.81141162109375,-0.2831321060657501,0.13802693784236908,0.2972416877746582
1772785942161429000,7.821428955078125,-0.2020827680826187,0.14209038019180298,0.33134132623672485
1772785942171445000,7.831445068359375,-0.14663881063461304,0.11973194032907486,0.3632538318634033
1772785942181460700,7.841460693359375,-0.1126488745212555,0.07968811690807343,0.3681841492652893
1772785942191476700,7.851476806640625,-0.09159960597753525,0.022674348205327988,0.34830522537231445
1772785942201494000,7.861493896484375,-0.08344713598489761,-0.021999379619956017,0.3180125653743744
1772785942211510000,7.871510009765625,-0.07203608006238937,-0.08182135224342346,0.28661665320396423
1772785942221526000,7.881526123046875,-0.05965637043118477,-0.13073348999023438,0.2741461396217346
1772785942231542800,7.891542724609375,-0.04834620654582977,-0.15050898492336273,0.2911904454231262
1772785942241558800,7.901558837890625,-0.032120101153850555,-0.129807710647583,0.3357296884059906
1772785942251575000,7.911574951171875,-0.0078078368678689,-0.08353261649608612,0.3946492075920105
1772785942261591000,7.921591064453125,0.021621691063046455,-0.04358546808362007,0.4533362090587616
1772785942271607800,7.93160791015625,0.04719455540180206,-0.02830369770526886,0.5001116991043091
1772785942281623800,7.941623779296875,0.06706519424915314,-0.03546547144651413,0.5380241870880127
1772785942291640300,7.951640380859375,0.06601156294345856,-0.0560421384871006,0.5605976581573486
1772785942301657300,7.9616572265625,0.05846283584833145,-0.08607300370931625,0.542259693145752
1772785942311673300,7.97167333984375,0.055947087705135345,-0.11296088248491287,0.5047439336776733
1772785942321689300,7.981689453125,0.05846404284238815,-0.13177718222141266,0.45828187465667725
1772785942331705300,7.991705322265625,0.06141761690378189,-0.14437785744667053,0.4131528437137604
1772785942341722400,8.001722412109375,0.05530805513262749,-0.13246899843215942,0.36903518438339233
1772785942351738400,8.01173828125,0.047056473791599274,-0.07232126593589783,0.33145982027053833
1772785942361754400,8.02175439453125,0.041028942912817,0.01925019733607769,0.3063667118549347
1772785942371771400,8.031771484375,0.044147588312625885,0.095528744161129,0.29206371307373047
1772785942381787400,8.041787353515625,0.05428411439061165,0.15143461525440216,0.29106608033180237
1772785942391803400,8.051803466796875,0.07321695238351822,0.20241029560565948,0.3014945983886719
1772785942401819400,8.0618193359375,0.10527981072664261,0.2352912873029709,0.3059804141521454
1772785942411836400,8.07183642578125,0.14120392501354218,0.23518884181976318,0.29816359281539917
1772785942421852400,8.081852294921875,0.18397802114486694,0.21380552649497986,0.2667635977268219
1772785942431868400,8.091868408203124,0.23607678711414337,0.16517244279384613,0.20615004003047943
1772785942441885400,8.101885498046874,0.2816503942012787,0.09915562719106674,0.13677601516246796
1772785942451901400,8.1119013671875,0.3162345290184021,0.04819896072149277,0.08200252056121826
1772785942461917400,8.12191748046875,0.3204633593559265,0.027486758306622505,0.03356334567070007
1772785942471934200,8.131934326171875,0.360732764005661,0.045862406492233276,-0.04323066398501396
1772785942481950200,8.1419501953125,0.4343116283416748,0.0686553344130516,-0.13616858422756195
1772785942491966500,8.151966552734375,0.5124971866607666,0.10389380902051926,-0.20187456905841827
1772785942501982500,8.161982421875,0.5705572962760925,0.14087660610675812,-0.21720771491527557
1772785942511999500,8.17199951171875,0.6124507188796997,0.18257549405097961,-0.16397228837013245
1772785942522015200,8.18201513671875,0.6272616386413574,0.20563898980617523,-0.07402189075946808
1772785942532031200,8.19203125,0.615714967250824,0.19710230827331543,0.01794566959142685
1772785942542047200,8.202047119140625,0.594714343547821,0.17739172279834747,0.1026507019996643
1772785942552064500,8.212064453125,0.5513612031936646,0.1361304670572281,0.17027226090431213
1772785942562080300,8.222080322265626,0.48723411560058594,0.07433927804231644,0.20491066575050354
1772785942572096300,8.23209619140625,0.4082862138748169,0.0031916373409330845,0.20976990461349487
1772785942582113300,8.24211328125,0.33493608236312866,-0.06007787957787514,0.19044600427150726
1772785942592129500,8.252129638671875,0.2732454240322113,-0.10099190473556519,0.15901044011116028
1772785942602145500,8.2621455078125,0.21784794330596924,-0.10571901500225067,0.12202019989490509
1772785942612161300,8.272161376953125,0.15980146825313568,-0.052474409341812134,0.0871991217136383
1772785942622178300,8.28217822265625,0.09388475865125656,0.02156146615743637,0.0441398024559021
1772785942632194300,8.2921943359375,0.03669791668653488,0.09141689538955688,-0.015522542409598827
1772785942642210600,8.30221044921875,-0.01740207150578499,0.13875140249729156,-0.08475301414728165
1772785942652227300,8.312227294921875,-0.06329035758972168,0.15945865213871002,-0.14995159208774567
1772785942662243300,8.322243408203125,-0.10186891257762909,0.16437165439128876,-0.2033972442150116
1772785942672259300,8.33225927734375,-0.13187023997306824,0.16077761352062225,-0.2319626808166504
1772785942682275300,8.342275390625,-0.15115977823734283,0.14637337625026703,-0.24523933231830597
1772785942692292400,8.352292236328125,-0.1535155177116394,0.1072259396314621,-0.24623620510101318
1772785942702308400,8.362308349609375,-0.155206099152565,0.05695771053433418,-0.22752882540225983
1772785942712324400,8.372324462890624,-0.15590201318264008,0.01337691955268383,-0.2004104107618332
1772785942722341400,8.38234130859375,-0.1602056920528412,-0.018181007355451584,-0.16229738295078278
1772785942732357400,8.392357421875,-0.16028955578804016,-0.046129632741212845,-0.1271573156118393
1772785942742373400,8.402373291015625,-0.15789936482906342,-0.06923148781061172,-0.10589809715747833
1772785942752389400,8.412389404296874,-0.1602368950843811,-0.0720173642039299,-0.10002844035625458
1772785942762406400,8.422406494140626,-0.16621968150138855,-0.0790955126285553,-0.11186911910772324
1772785942772422400,8.43242236328125,-0.17837344110012054,-0.08183442056179047,-0.14185883104801178
1772785942782438400,8.4424384765625,-0.1877078115940094,-0.057588208466768265,-0.17573344707489014
1772785942792455400,8.452455322265624,-0.19031672179698944,-0.020982949063181877,-0.2009345442056656
1772785942802471400,8.462471435546876,-0.1904570758342743,0.018751414492726326,-0.22876191139221191
1772785942812487400,8.4724873046875,-0.1973639875650406,0.04746413230895996,-0.24718636274337769
1772785942822503400,8.48250341796875,-0.20900094509124756,0.07369493693113327,-0.25173768401145935
1772785942832520400,8.4925205078125,-0.23056764900684357,0.09985750168561935,-0.23586133122444153
1772785942842536400,8.502536376953126,-0.2613692283630371,0.1388736069202423,-0.20819588005542755
1772785942852552400,8.512552490234375,-0.2763080596923828,0.15331152081489563,-0.20025606453418732
1772785942862568400,8.522568359375,-0.2807595133781433,0.1268455535173416,-0.1996200978755951
1772785942872585200,8.532585205078124,-0.27802687883377075,0.10042763501405716,-0.18928906321525574
1772785942882601200,8.542601318359376,-0.2691020667552948,0.08226887136697769,-0.17509308457374573
1772785942892617500,8.552617431640625,-0.2685360908508301,0.05527162551879883,-0.16399887204170227
1772785942902634500,8.562634521484375,-0.26670435070991516,0.02897956594824791,-0.1553286910057068
1772785942912650200,8.572650146484374,-0.28058061003685,0.010949313640594482,-0.1535005420446396
1772785942922666200,8.582666259765626,-0.30627185106277466,-0.0051297880709171295,-0.1613214612007141
1772785942932682200,8.59268212890625,-0.3223733603954315,-0.015451580286026001,-0.16343538463115692
1772785942942699500,8.602699462890625,-0.329545795917511,-0.004305184818804264,-0.1361779272556305
1772785942952715500,8.612715576171874,-0.32711362838745117,0.024026919156312943,-0.08347365260124207
1772785942962731300,8.622731201171876,-0.3292902112007141,0.06597969681024551,-0.015939613804221153
1772785942972748300,8.632748291015625,-0.3398822546005249,0.11772559583187103,0.05226701498031616
1772785942982764500,8.6427646484375,-0.3507178723812103,0.16672615706920624,0.10293445736169815
1772785942992780500,8.652780517578124,-0.3429202735424042,0.19637931883335114,0.12350864708423615
1772785943002796300,8.66279638671875,-0.3266262412071228,0.20084597170352936,0.11425656080245972
1772785943012813300,8.672813232421875,-0.30238109827041626,0.1664530336856842,0.06942960619926453
1772785943022829300,8.682829345703125,-0.26448512077331543,0.1136888861656189,0.018225546926259995
1772785943032845600,8.692845458984374,-0.2224995195865631,0.05598593130707741,-0.02440525032579899
1772785943042861600,8.702861572265626,-0.1906430572271347,0.01700577698647976,-0.047320686280727386
1772785943052878300,8.71287841796875,-0.16004307568073273,-0.0033018107060343027,-0.051618147641420364
1772785943062894300,8.722894287109375,-0.1352836638689041,0.009306126274168491,-0.037527360022068024
1772785943072910300,8.732910400390624,-0.1160384863615036,0.052373290061950684,-0.008892664685845375
1772785943082927400,8.74292724609375,-0.1022808626294136,0.10112351924180984,0.025359582155942917
1772785943092943400,8.752943359375,-0.09521536529064178,0.14975786209106445,0.056056998670101166
1772785943102959400,8.76295947265625,-0.09334288537502289,0.16601327061653137,0.0713248997926712
1772785943112975400,8.772975341796876,-0.09278124570846558,0.15853571891784668,0.07387682050466537
1772785943122992400,8.782992431640626,-0.09481589496135712,0.12329544126987457,0.049568288028240204
1772785943133008400,8.79300830078125,-0.10221841931343079,0.09009141474962234,0.02655511535704136
1772785943143024400,8.8030244140625,-0.11595633625984192,0.06527820974588394,0.012483770959079266
1772785943153040400,8.813040283203126,-0.1252925992012024,0.05006471648812294,0.004550829064100981
1772785943163057400,8.823057373046876,-0.12903833389282227,0.041498128324747086,0.008206816390156746
1772785943173073400,8.833073486328125,-0.13584889471530914,0.030111039057374,0.017316753044724464
1772785943183089400,8.84308935546875,-0.1486416459083557,0.017080191522836685,0.022991683334112167
1772785943193106400,8.8531064453125,-0.1648753583431244,0.0070297615602612495,0.019350137561559677
1772785943203122400,8.863122314453125,-0.17884576320648193,0.00426353607326746,0.005562153644859791
1772785943213138400,8.873138427734375,-0.18592065572738647,-0.009497905150055885,-0.019149132072925568
1772785943223154400,8.883154541015625,-0.18393473327159882,-0.023995887488126755,-0.04906335473060608
1772785943233171500,8.89317138671875,-0.17304451763629913,-0.02502056583762169,-0.07463785260915756
1772785943243187500,8.9031875,-0.1573137640953064,-0.02364690788090229,-0.08557891845703125
1772785943253203500,8.913203369140625,-0.14662699401378632,-0.014453836716711521,-0.09195442497730255
1772785943263219500,8.923219482421874,-0.13668222725391388,-0.007067560218274593,-0.0875607430934906
1772785943273236200,8.933236328125,-0.12039507925510406,-0.001621937146410346,-0.07482283562421799
1772785943283252500,8.94325244140625,-0.10961008071899414,0.0108278077095747,-0.05464140698313713
1772785943293268000,8.95326806640625,-0.09655818343162537,0.03246084973216057,-0.030263978987932205
1772785943303284000,8.963283935546874,-0.08074352890253067,0.0530681237578392,-0.00863245315849781
1772785943313300700,8.97330078125,-0.05850537493824959,0.05917845666408539,0.006576573476195335
1772785943323316700,8.983316650390625,-0.03130251541733742,0.04747679457068443,-0.0022395544219762087
1772785943333332700,8.993332763671875,-0.004405213054269552,0.015450446866452694,-0.007875824347138405
1772785943343350000,9.00335009765625,0.016609258949756622,-0.013209427706897259,-0.004225961863994598
1772785943353366000,9.013365966796876,0.02619343250989914,-0.035026807337999344,0.01687081716954708
1772785943363381800,9.0233818359375,0.03536456078290939,-0.06399747729301453,0.10054094344377518
1772785943373397800,9.033397705078125,0.04673033207654953,-0.04015698283910751,0.1266520619392395
1772785943383415000,9.0434150390625,0.05684288963675499,-0.022016063332557678,0.09530904144048691
1772785943393431000,9.05343115234375,0.06426707655191422,0.004646409768611193,0.06957940757274628
1772785943403447000,9.063447021484375,0.0708506777882576,0.03049451857805252,0.06851706653833389
1772785943413462800,9.073462890625,0.08048907667398453,0.03037641942501068,0.08063645660877228
1772785943423479800,9.083479736328124,0.08796670287847519,0.020941905677318573,0.06695286929607391
1772785943433496000,9.09349609375,0.09157916903495789,0.01154318917542696,0.02440633624792099
1772785943443512000,9.103511962890625,0.08102213591337204,0.018463412299752235,-0.038438670337200165
1772785943453528800,9.11352880859375,0.07045227289199829,0.03522852063179016,-0.07753016799688339
1772785943463544800,9.123544921875,0.05049401521682739,0.0346924252808094,-0.06683331727981567
1772785943473560800,9.133560791015626,0.02055971510708332,0.021831287071108818,-0.030530640855431557
1772785943483576800,9.143576904296875,-0.00916515663266182,0.015482576563954353,-0.02652897499501705
