time,seconds_elapsed,z,y,x
1772618980330075100,0.0740751953125,0.1323755033135414,0.014496581255644559,0.14269395863432435
1772618980340106200,0.084106201171875,0.16620938385426998,0.020587007085233925,0.19456494258176535
1772618980350137300,0.094137451171875,0.19373802677094934,0.02517418874502182,0.1918136711122468
1772618980360167200,0.104167236328125,0.21488193708658218,0.0309960267663002,0.17933938946444541
1772618980370198300,0.1141982421875,0.23367957653701305,0.035495384012162685,0.20116382939014582
1772618980380229000,0.12422900390625,0.2112684227645397,0.04582739293426275,0.18946882501915097
1772618980390259200,0.13425927734375,0.13168518296182155,0.05301306665465235,0.13596267761792988
1772618980400290300,0.144290283203125,0.06893500453829765,0.05853270685896277,0.1261220689419657
1772618980410321200,0.154321044921875,0.023715222108364103,0.0744393010430038,0.10198306846357881
1772618980420351200,0.164351318359375,0.0045329672545194625,0.07774579524248838,0.10518661374524235
1772618980430382300,0.17438232421875,0.007590601259469985,0.07495499548017978,0.11424564358945935
1772618980440413200,0.1844130859375,0.0609463438719511,0.07171382160186768,0.14963102788850663
1772618980450443300,0.194443359375,0.07522679815888404,0.07856719462797045,0.21192769039086995
1772618980460474400,0.204474365234375,0.09427695106565952,0.06304331615120172,0.18818294992707668
1772618980470505200,0.214505126953125,0.12417407667934893,0.026234803713858126,0.16324889008086174
1772618980480535300,0.224535400390625,0.14765490550994873,0.00848228940218687,0.15710728205330668
1772618980490566100,0.234566162109375,0.21538813304305077,-0.014957769026607275,0.16755951982159167
1772618980500597200,0.24459716796875,0.2625824304163456,-0.02931830281242728,0.16285320529416203
1772618980510627300,0.25462744140625,0.2790419823080301,-0.026703590269386766,0.15595727176796645
1772618980520658200,0.264658203125,0.2605547239810228,-0.005847703114897012,0.1217185002207756
1772618980530689300,0.274689208984375,0.2328413721472025,-0.02135872211009264,0.1262591393250972
1772618980540719400,0.28471923828125,0.26397768416702744,-0.031108547230064867,0.13554222371615468
1772618980550750200,0.294750244140625,0.32313772914409633,-0.010943272688239813,0.13787497751265762
1772618980560780000,0.304780029296875,0.43606735823154447,-0.0002614274151623249,0.13945903183370828
1772618980570811400,0.314811279296875,0.4998310976117849,-0.009186638279259205,0.19297909816242753
1772618980580842200,0.32484228515625,0.423777785500884,-0.006137333711236715,0.17738262937348334
1772618980590872000,0.3348720703125,0.23700316800177096,-0.01204217384085059,0.06798844440318644
1772618980600903200,0.344903076171875,0.03834463596343994,0.0026207038924098013,0.03322049788273871
1772618980610934300,0.354934326171875,-0.044454643276333805,0.0447381363928318,-0.007029350647516548
1772618980620964000,0.364964111328125,-0.08401391572654247,0.06377572207897901,-0.012204342132620513
1772618980630995200,0.3749951171875,-0.08759528134465216,0.04321881787106394,0.0022385727070271966
1772618980641026300,0.3850263671875,-0.09985153632760048,0.017305062805116175,0.02919226527996361
1772618980651056000,0.39505615234375,-0.18653204091489314,0.007031652202457189,0.03985641049956903
1772618980661087200,0.405087158203125,-0.2840864062160253,-0.0230759012915194,0.05448158657094464
1772618980671118300,0.415118408203125,-0.3464893786370754,-0.034426147345453496,0.08087402853192761
1772618980681148200,0.425148193359375,-0.3495312305510044,-0.061650692749023434,0.0888424318615347
1772618980691179000,0.435178955078125,-0.30366496691107747,-0.11658318315893411,0.0720009314475581
1772618980701210400,0.44521044921875,-0.29165596468746663,-0.1540323315873742,0.08067980286777018
1772618980711240000,0.455239990234375,-0.3105354372024536,-0.1808873130261898,0.05627906444696709
1772618980721271000,0.46527099609375,-0.33775545256137846,-0.1582347517132759,0.029939795711636543
1772618980731302100,0.47530224609375,-0.32475685477852817,-0.184958215726912,0.011312854919303207
1772618980741332000,0.48533203125,-0.28080957650244237,-0.19842560006529092,0.0033773126796819266
1772618980751363000,0.495363037109375,-0.23559096311628816,-0.1873478873424232,0.020520627318136392
1772618980761394200,0.505394287109375,-0.1842903994679451,-0.1856175564184785,0.02412524594767019
1772618980771424000,0.515424072265625,-0.16570611050724982,-0.16967705996483565,0.029916250439267603
1772618980781455000,0.525455078125,-0.1820019962698221,-0.14187354562953114,0.015911489554867146
1772618980791486200,0.535486328125,-0.16484686332941054,-0.1388521519817412,-0.013843122315593063
1772618980801516000,0.54551611328125,-0.11688099706172943,-0.10865706633478403,-0.006592931991629302
1772618980811547100,0.555547119140625,-0.033809915143251414,-0.08722279477044939,0.007280786391627043
1772618980821578200,0.565578125,0.07037000577747822,-0.05285042343884706,0.03422026777612045
1772618980831608000,0.575608154296875,0.1637292574763298,-0.05090908011272549,0.06839346327381209
1772618980841639200,0.58563916015625,0.17651450476944447,-0.06486556314229965,0.039696799491066484
1772618980851670300,0.595670166015625,0.15947393811941146,-0.0753885645918548,0.01484344019824639
1772618980861700000,0.6057001953125,0.08493336865901946,-0.07234262102469802,-0.0315907777890563
1772618980871731000,0.61573095703125,-0.006316343539953232,-0.03418050202131271,-0.07020423902282491
1772618980881762300,0.62576220703125,-0.055659343379735944,-0.030219489435851572,-0.04312423492278904
1772618980891792100,0.635792236328125,-0.0549205077111721,-0.00036839492097496987,-0.0309183949528262
1772618980901823000,0.645822998046875,0.0034054245293140407,0.007399462601542473,-0.005557323599886149
1772618980911854300,0.655854248046875,0.025835867524147033,0.0005848141506314277,0.02069490617280826
1772618980921884200,0.66588427734375,-0.009772036951780319,-0.0024262042336165904,0.027601068832073358
1772618980931915000,0.6759150390625,-0.044774961271882054,0.027780864112079143,0.046135271573346105
1772618980941945000,0.685945068359375,-0.043541035562753676,0.021540946809202433,0.04164539454188198
1772618980951976000,0.695975830078125,-0.03865735517442226,-0.03055485887005925,0.024087544285785405
1772618980962007000,0.706007080078125,-0.04052198000252247,-0.019058043952286243,0.03756417137654498
1772618980972037000,0.716037109375,-0.00878945565521717,-0.015439999585598706,0.053633554906863716
1772618980982068000,0.72606787109375,-0.013188567396998405,-0.02108998817130923,0.05957158492002636
1772618980992099000,0.73609912109375,-0.0008919804036617279,-0.014130524422228336,0.056441433668136594
1772618981002129200,0.746129150390625,-0.006501636978983879,-0.02616319978237152,0.06539240002799779
1772618981012160000,0.756159912109375,-0.047152211797237394,-0.03060103609934449,0.08052070331592112
1772618981022191000,0.766191162109375,-0.08671966755390166,-0.0320383754260838,0.10353453568927944
1772618981032221200,0.77622119140625,-0.13006956445872783,-0.01047623969838023,0.09504588961154221
1772618981042252000,0.786251953125,-0.15325287164747714,-0.019053806168586016,0.11441805928060785
1772618981052283100,0.796283203125,-0.15850830795764922,-0.012123130122572183,0.13070682118264956
1772618981062313000,0.80631298828125,-0.12409925787746906,-0.01034209192469716,0.15637966189850122
1772618981072344000,0.816343994140625,-0.05958499239087105,-0.02511836690455675,0.16043421625262125
1772618981082375200,0.826375244140625,-0.0029220249265432354,-0.03020180764868855,0.13797489422317594
1772618981092405000,0.836405029296875,0.024700141492486,-0.059725131513923405,0.11047942292373626
1772618981102435800,0.846435791015625,0.007668927192687988,-0.08007526110336184,0.03951006301362067
1772618981112466700,0.856466796875,-0.05462649320065975,-0.07270487846583128,-0.010852379534393549
1772618981122496800,0.866496826171875,-0.09442775771319865,-0.06693272480517626,-0.035682321419008074
1772618981132527900,0.87652783203125,-0.10026245521605014,-0.060333472670614716,-0.04275383070781827
1772618981142558700,0.886558837890625,-0.05055179110765457,-0.07225961891636253,-0.03507134991381317
1772618981152588800,0.8965888671875,-0.07666355296373367,-0.08438055708184838,-0.09524543077163397
1772618981162620000,0.906619873046875,-0.1353606566041708,-0.09474413018599152,-0.10543836001660674
1772618981172650800,0.916650634765625,-0.20105390274226664,-0.10194061756134033,-0.11604363292213529
1772618981182680800,0.926680908203125,-0.223729844930768,-0.07049860059320927,-0.08958733194470406
1772618981192712000,0.9367119140625,-0.17839958786368368,-0.06348419178649783,-0.05487955464627593
1772618981202742800,0.94674267578125,-0.09438567213714122,-0.06384235757440328,-0.009538009000197053
1772618981212772900,0.95677294921875,-0.014313187512755393,-0.0401698055639863,0.03560794100854545
1772618981222803700,0.9668037109375,0.08081716551184653,-0.03238148977532983,0.06646686085909605
1772618981232834800,0.976834716796875,0.1186462531685829,-0.013108487898111343,0.10259984865505248
1772618981242865000,0.986864990234375,0.09940320803821086,-0.005002630592882633,0.1083888803852722
1772618981252895700,0.996895751953125,0.08319032438397407,0.03018646394908428,0.11953198649454862
1772618981262926800,1.0069267578125,0.10893266840577125,0.07162555879652499,0.1477824043471366
1772618981272957000,1.01695703125,0.15606676002442835,0.10031491605564952,0.20230894430465995
1772618981282987800,1.02698779296875,0.1869260086685419,0.11125994230955838,0.2213344742268324
1772618981293019000,1.037018798828125,0.16606383790373802,0.10144041295424103,0.20188498327154664
1772618981303049000,1.047049072265625,0.09151391609311103,0.09596768063157796,0.13023871048055588
1772618981313079800,1.057079833984375,0.06373685137331485,0.13033771387562154,0.15172577167805285
1772618981323111000,1.06711083984375,0.09986848746240139,0.12863836261183023,0.1313271267717704
1772618981333140700,1.077140625,0.14316343930959702,0.09091098176389932,0.14042309109289197
1772618981343171800,1.087171875,0.1707920354694128,0.09298238121047615,0.1561168462438509
1772618981353203000,1.097202880859375,0.14738894805014133,0.09044716364443302,0.1559098158970475
1772618981363232800,1.107232666015625,0.12045651746094226,0.09996712553128599,0.16350765061490236
1772618981373264000,1.117263916015625,0.05710895766615867,0.0782576902873814,0.11253767062779516
1772618981383293700,1.127293701171875,-0.09142857589721679,0.03742839790135622,0.01227817455381155
1772618981393324800,1.13732470703125,-0.21292671136558056,0.0036002164490520953,-0.10704057104885578
1772618981403356000,1.14735595703125,-0.2733224356174469,-0.022442425693571567,-0.15108926387280225
1772618981413385700,1.1573857421875,-0.2618488554447889,-0.06812354202494025,-0.17602767110057174
1772618981423416800,1.167416748046875,-0.22307167328298091,-0.08408522739708423,-0.16548625721149146
1772618981433448000,1.177447998046875,-0.16227204440534113,-0.09821092951372265,-0.12005524318367242
1772618981443477500,1.1874775390625,-0.106381814879179,-0.11333090336471795,-0.06370864819213748
1772618981453508900,1.1975087890625,-0.07051087555289268,-0.12407003178298473,-0.039427389698848125
1772618981463539700,1.207539794921875,-0.07297989601492881,-0.13416472481787203,-0.03126578361839056
1772618981473569500,1.217569580078125,-0.09817162041664124,-0.15369593923985958,-0.060830754668265576
1772618981483601000,1.227600830078125,-0.07934767748117447,-0.1469222073212266,-0.05994849194101989
1772618981493631700,1.2376318359375,-0.052908583366870876,-0.13651070342212915,-0.07539784387685358
1772618981503661600,1.24766162109375,-0.029395021310448646,-0.11235577472224831,-0.09289002675190568
1772618981513693000,1.25769287109375,0.003183306211233139,-0.08199775359854101,-0.088783614346385
1772618981523723800,1.267723876953125,0.04394610923230648,-0.013385989665240048,-0.01881291008479893
1772618981533753600,1.277753662109375,0.0942903950691223,0.02450315761566162,0.023475933459773658
1772618981543785000,1.287784912109375,0.13042320020198822,0.03275909091606736,0.04355572167523205
1772618981553815800,1.29781591796875,0.13344868550300598,0.032117139750719066,0.04369622612446546
1772618981563845600,1.307845703125,0.1671709223628044,0.05917845741659403,0.07573840094283223
1772618981573876700,1.317876708984375,0.18053776893615722,0.0767819186463952,0.09542626723125576
1772618981583907800,1.327907958984375,0.16211773062646387,0.09525587910041212,0.15189341986253857
1772618981593937700,1.337937744140625,0.1525783333867788,0.12709259447455407,0.23088943436183035
1772618981603968500,1.347968505859375,0.1808960808545351,0.1292206925444305,0.27064685973264274
1772618981613999900,1.357999755859375,0.21504911034703253,0.09211904237940907,0.23980200494006274
1772618981624029700,1.36802978515625,0.1899538320571184,0.06523527323752641,0.19238149759545922
1772618981634060500,1.378060546875,0.14604863935708998,0.03273892491087317,0.10192417788319288
1772618981644092000,1.388091796875,0.05183189404606819,0.0334654856197536,0.05085018953233957
1772618981654121700,1.398121826171875,-0.0029857378125190733,0.05571136582791805,0.06145692374259233
1772618981664152600,1.408152587890625,-0.04518120398521423,0.0689886344216764,0.09440671492516994
1772618981674182700,1.4181826171875,-0.04954699797928333,0.07082549446001649,0.1554223246410489
1772618981684213800,1.4282138671875,-0.02217909858226776,0.06478811399191618,0.19978454039357602
1772618981694244600,1.43824462890625,-0.009264671951532364,0.045615503749251364,0.1777852553576231
1772618981704274700,1.448274658203125,-0.028056466183066366,0.010338730923831462,0.16596337320394813
1772618981714305500,1.458305419921875,-0.049126142218708986,-0.03104147334322333,0.12186536134555935
1772618981724336600,1.468336669921875,-0.06956921078860759,-0.0519184032857418,0.0587934766869992
1772618981734366700,1.47836669921875,-0.08397475275993346,-0.06442965594306588,0.018179215291142463
1772618981744397600,1.4883974609375,-0.08737316302657126,-0.11333689471408724,-0.03660436816737055
1772618981754428700,1.4984287109375,-0.06793605662882328,-0.14645225172191859,-0.07852956603132188
1772618981764458800,1.508458740234375,-0.02831599390208721,-0.1333010937258601,-0.053553603272140024
1772618981774489600,1.518489501953125,0.027630934247374533,-0.11761179555431008,-0.045865752183273434
1772618981784520700,1.528520751953125,0.05625906283855438,-0.09690949152633548,-0.018366262295842168
1772618981794550800,1.53855078125,0.06485562627017498,-0.05492649906054139,0.018697978468239305
1772618981804581600,1.54858154296875,0.045536008772253986,-0.05828866897001862,0.028966274504363534
1772618981814612700,1.55861279296875,0.08045067028701305,-0.020146862102299927,0.0003962327759712934
1772618981824642600,1.568642578125,0.06949380746483802,-0.00570098812058568,0.027781887025386094
1772618981834673700,1.578673583984375,0.018218378257751463,-0.017756752095371482,0.02955254995971918
1772618981844704500,1.58870458984375,-0.0007335749715566634,-0.043993163244426245,0.0030418519139289854
1772618981854734600,1.598734619140625,-0.027412907582521438,-0.05207797776162624,0.028455840764194724
1772618981864765700,1.608765625,-0.013932663762569427,-0.05722513139173388,0.07238361062221228
1772618981874796500,1.618796630859375,0.008776011651754378,-0.030094547881931066,0.08854571393728256
1772618981884826600,1.62882666015625,0.038432314246892925,-0.03538417872264981,0.09043189301006495
1772618981894857700,1.638857666015625,0.03895604586005211,-0.038664807828515765,0.12635222443602978
1772618981904888600,1.648888671875,0.010753449204564093,-0.006076397304236888,0.1320380149874836
1772618981914918700,1.658918701171875,-0.021809096226096152,0.01499386325329542,0.15025339757055042
1772618981924949800,1.66894970703125,-0.07476619490981101,0.011689999402314424,0.14070632848106324
1772618981934980600,1.678980712890625,-0.09104162240624428,0.022482465443015097,0.12881934520192442
1772618981945010700,1.6890107421875,-0.1150169567555189,0.03852554548829794,0.127127227396518
1772618981955041500,1.69904150390625,-0.10510580359399319,0.006544891598820686,0.13106332473643123
1772618981965072600,1.70907275390625,-0.06585983487665653,-0.003389788568764925,0.16835932842977344
1772618981975102700,1.719102783203125,-0.03870002527236938,-0.01097600591406226,0.17547164465300738
1772618981985133600,1.729133544921875,-0.01734510255455971,0.004531213688850402,0.18810593916811047
1772618981995164700,1.73916455078125,-0.020542437291145323,0.01898234836757183,0.23623006473742425
1772618982005194800,1.74919482421875,-0.01631108333170414,0.014840133996307849,0.18962989733237773
1772618982015225600,1.7592255859375,-0.05559036979675293,-0.002384264788031578,0.1289602149773389
1772618982025255700,1.769255615234375,-0.06816986538469791,-0.011153846698999404,0.09227967630121857
1772618982035286800,1.779286865234375,-0.05504208826422691,-0.00021188918501138687,0.04998608351629227
1772618982045317600,1.789317626953125,-0.04584171372056007,-0.027966742072999477,0.055789618695899844
1772618982055347700,1.79934765625,-0.05092588511705398,-0.014135931249707936,0.08472505967058241
1772618982065378600,1.809378662109375,-0.09227847072482108,-0.001650105294585228,0.10388919434584677
1772618982075409700,1.81940966796875,-0.15848258899450302,-0.0027056056968867777,0.1314404874857515
1772618982085439700,1.829439697265625,-0.1862906333744526,0.011844313181191682,0.153686733020097
1772618982095470600,1.839470703125,-0.16591887647509573,0.02237184467539191,0.20644750541411339
1772618982105502200,1.849502197265625,-0.18097089965641497,0.01508431801572442,0.22699692043531686
1772618982115532000,1.859531982421875,-0.1972562640249729,0.02972732200473547,0.2322906429292634
1772618982125563100,1.869563232421875,-0.18581307899057864,0.03814195299819111,0.20931151654310523
1772618982135594200,1.87959423828125,-0.09541267709732056,0.019160627543926237,0.14918514728453008
1772618982145624000,1.8896240234375,-0.014745149189233779,-0.02366436870396137,0.09867189808897674
1772618982155655200,1.8996552734375,0.06373685137331485,-0.06810074567124247,0.04796155541874468
1772618982165686000,1.90968603515625,0.10126549477875232,-0.07981003429591656,0.0011720759866759181
1772618982175716000,1.919716064453125,0.07766951513588428,-0.06768515060767531,-0.0013789967356249689
1772618982185747200,1.929747314453125,0.07837269496917725,-0.0442730030991137,-0.011771028749272227
1772618982195778000,1.939778076171875,0.11216448993384838,-0.013249503803998232,0.003179762547276914
1772618982205808000,1.94980810546875,0.09689385556578635,-0.015114713153988123,0.033729762579128145
1772618982215839200,1.959839111328125,0.06715455086231231,-0.02755626157596707,0.011159582320041954
1772618982225870000,1.9698701171875,-0.005685644420981407,-0.03146934336647391,0.015618863283842802
1772618982235900200,1.979900146484375,-0.01395429107248783,-0.022850129711627958,0.0249674871917814
1772618982245931300,1.98993115234375,0.04705868829488754,0.018225830911844966,0.0594213262617588
1772618982255962000,1.999962158203125,0.11483341688215731,0.01521495865806937,0.10511968598887324
1772618982265992200,2.0099921875,0.14104337841570377,0.014113427156955002,0.13459208338446915
1772618982276023000,2.02002294921875,0.15263035583496093,-0.01639905387610197,0.0956061173101887
1772618982286054100,2.03005419921875,0.15089549486637113,-0.05678191766887903,0.04182276040278375
1772618982296084200,2.040084228515625,0.11993921558856964,-0.08386340133994817,-0.01771148818153888
1772618982306115000,2.050114990234375,0.11516133366227149,-0.10520035000964999,-0.06409158309511839
1772618982316146200,2.060146240234375,0.10986965699493885,-0.10975538296550512,-0.016563815983757377
1772618982326176300,2.07017626953125,0.09181903651952743,-0.0751170541740954,0.01942022832818329
1772618982336207000,2.08020703125,0.020194646766781805,-0.05178542455583811,0.0381742478325963
1772618982346237200,2.0902373046875,-0.07576748090684414,-0.04213686785325408,0.009755341545306146
1772618982356268300,2.100268310546875,-0.10643033019602298,-0.04798267127200961,0.00039743835236877203
1772618982366299100,2.110299072265625,-0.06728899089694022,-0.034551673421263696,0.0023790040910243986
1772618982376329200,2.1203291015625,0.07304711603224277,-0.06334814431667328,0.05285184821095317
1772618982386360000,2.130360107421875,0.21238310600817203,-0.10755348900705575,0.0936031069247052
1772618982396391200,2.14039111328125,0.2590840669065714,-0.14107903425097465,0.1270726841976866
1772618982406421200,2.150421142578125,0.18854864143431185,-0.10760638823807239,0.12839151171129196
1772618982416452000,2.1604521484375,0.08017711404263973,-0.0680178896933794,0.09181384888775646
1772618982426483200,2.170483154296875,-0.04047404920756817,-0.04378653475642204,0.08520002023857086
1772618982436513300,2.18051318359375,-0.10379062934219836,-0.038624621948599815,0.04545088777206838
1772618982446544100,2.190544189453125,-0.08288169682621956,-0.020103315221518276,0.00987999083828181
1772618982456575200,2.2005751953125,0.0094809450507164,-0.020499621062725782,0.024307342782616613
1772618982466605300,2.210605224609375,0.08702069632709025,-0.060463236530125135,0.04818889790121466
1772618982476636200,2.22063623046875,0.04672667986154556,-0.09650850951001047,0.09113927409444003
1772618982486667300,2.230667236328125,-0.03975216467380523,-0.0732673346541822,0.13232022946234792
1772618982496697000,2.240697021484375,-0.18108955760002135,-0.024241437939554453,0.16446454948093742
1772618982506728200,2.250728271484375,-0.2884855179578066,-0.010448036517202854,0.2027345127729699
1772618982516759000,2.260759033203125,-0.32138650156259535,0.00848594266399741,0.206338893940486
1772618982526789000,2.2707890625,-0.29839900920689105,0.021419658517092464,0.23460030811112373
1772618982536820200,2.2808203125,-0.22428455620408058,0.009244213685393333,0.2395883256567642
1772618982546851000,2.29085107421875,-0.1823293285280466,0.0045243455566465855,0.24189758897982536
1772618982556881200,2.300881103515625,-0.162736739307642,-0.0020049100816249845,0.23236407349165528
1772618982566912300,2.310912353515625,-0.12910919499397278,-0.010041209281980991,0.1874950772607699
1772618982576943000,2.320943115234375,-0.07269464933276176,0.006043371817469597,0.19869455319978296
1772618982586973200,2.33097314453125,-0.0312964710175991,0.01658726992458105,0.23920791150443255
1772618982597004300,2.34100439453125,0.028587212058901783,0.012883885361999272,0.21812877352070062
1772618982607035100,2.35103515625,0.06742167736589909,-0.0032978725016117095,0.19282124071959406
1772618982617065200,2.361065185546875,0.09575520692467689,-0.015769377670437096,0.16947112559657543
1772618982627096000,2.371095947265625,0.12905074280500411,0.012127660167217254,0.14234298977218568
1772618982637127200,2.381127197265625,0.16462006883621214,0.004295359106361866,0.09751381409503519
1772618982647157200,2.3911572265625,0.1988549313932657,-0.012943506594747304,0.08093662717305124
1772618982657188000,2.40118798828125,0.1647398958235979,0.008945376869291066,0.06700063894223421
1772618982667218200,2.41121826171875,0.11759762089848518,0.04758256603851914,0.07144998303391038
1772618982677249300,2.421249267578125,0.06150105514526367,0.08044803993850946,0.01936795015167445
1772618982687280000,2.431280029296875,0.027317045992612837,0.06264058056920767,-0.04278090137783438
1772618982697310200,2.441310302734375,0.030635376760363577,0.04447451702058315,-0.03096544896494597
1772618982707341300,2.45134130859375,0.051180152139067646,0.024565993718802928,-0.04377013161089271
1772618982717372200,2.4613720703125,0.10497136355936526,0.007523819633573293,-0.05561477358564734
1772618982727402200,2.47140234375,0.1661865875005722,-0.01766322859302163,-0.05501158352810889
1772618982737433000,2.48143310546875,0.1883557492107153,-0.04605637938454747,-0.05611470419811085
1772618982747464200,2.491464111328125,0.16296411832273006,-0.06838117004781961,-0.07192127207377925
1772618982757494300,2.501494384765625,0.12738310185372828,-0.084144410238415,-0.07262417791243642
1772618982767525000,2.511525146484375,0.059490299844741815,-0.09353080887347459,-0.05538697444545105
1772618982777556200,2.52155615234375,-0.01221066227555275,-0.06701426560878754,-0.04749654998918995
1772618982787586300,2.53158642578125,-0.05030161573886871,-0.04115983951464295,-0.044113885280955584
1772618982797617200,2.5416171875,-0.024845687443017957,-0.023682488882541656,-0.01617973030330613
1772618982807648300,2.551648193359375,0.0038309564650058745,-0.05392492080256343,-0.001361862937733531
1772618982817678300,2.56167822265625,-0.0008498948276042938,-0.08009893423989414,-0.02199358594752848
1772618982827709200,2.571709228515625,-0.03437339424490928,-0.05370864770337939,-0.0025992044466547665
1772618982837740300,2.581740234375,-0.04682195692956447,-0.03833820622265339,-0.0008569456228986382
1772618982847770000,2.59177001953125,-0.025402152281999588,-0.04979220491200685,0.006920519978180527
1772618982857801200,2.60180126953125,0.007022445982694626,-0.03431786466538906,0.012803422270622103
1772618982867832000,2.61183203125,0.0334533567905426,-0.016506752034276723,0.05872795543642714
1772618982877862100,2.621862060546875,0.03296469649076462,0.0031458968102931976,0.07379199784910306
1772618982887893200,2.631893310546875,-0.014539397484064102,0.019413579391688106,0.08044266964364796
1772618982897924000,2.641924072265625,-0.08789104942083359,0.03046089697629213,0.027663685739506033
1772618982907954200,2.6519541015625,-0.13667057015895842,0.07148892680481075,0.07235690527837724
1772618982917985300,2.6619853515625,-0.11446575261354446,0.08336933421269059,0.13805789633151144
1772618982928016100,2.67201611328125,-0.05224164389073849,0.08747019366025924,0.18086574051519855
1772618982938046200,2.682046142578125,0.01275660572052002,0.05341200284436345,0.2374001496964134
1772618982948077300,2.692077392578125,0.06593290011286736,0.06156520642265677,0.24859447453627362
1772618982958108200,2.702108154296875,0.13212006724774836,0.023042145152390003,0.269242290164344
1772618982968138200,2.71213818359375,0.19678572390377522,-0.03506298394426703,0.2092701616194099
1772618982978169000,2.722169189453125,0.23883739769160747,-0.10360752786025404,0.08923073705937713
1772618982988200200,2.7322001953125,0.2192898166567087,-0.1395496327266097,-0.0008593933083117008
1772618982998230300,2.742230224609375,0.10227847121357918,-0.10682254438400268,-0.02748454804662615
1772618983008261000,2.75226123046875,-0.0008422960430383682,-0.053041562096774575,-0.012893730902578681
1772618983018291200,2.762291259765625,-0.12722820355296136,0.011661796221137046,-0.007029058386571705
1772618983028322300,2.772322265625,-0.21527473579645157,0.051938277029991146,0.01578884955588728
1772618983038353200,2.782353271484375,-0.23782091412544248,0.08297565871998668,0.04817275048401207
1772618983048383200,2.79238330078125,-0.17930735035836695,0.0942721287600696,0.07272049616007134
1772618983058414300,2.802414306640625,-0.07004676517248153,0.04918415601626038,0.11103475525155662
1772618983068445200,2.812445068359375,0.04922492641806602,0.006860533419251442,0.10823862172700464
1772618983078475300,2.822475341796875,0.11760872681438922,-0.025424510244280097,0.07460769814616068
1772618983088506000,2.832506103515625,0.15332593688368795,-0.06632555269226431,0.04031184438318014
1772618983098537200,2.842537109375,0.10026362425982951,-0.08737243237420916,-0.00616909882267937
1772618983108567600,2.852567626953125,0.025094109246134755,-0.07474880538359284,-0.021551139409653843
1772618983118598400,2.862598388671875,-0.016114683976769448,-0.03499620231837034,-0.02924640661999583
1772618983128629500,2.87262939453125,-0.039410219368338585,-0.023483751440048217,0.009425232808105647
1772618983138659600,2.88265966796875,-0.046021161940693854,-0.03617752105742693,0.0447698832379654
1772618983148690400,2.8926904296875,-0.07984042943418025,-0.029959523325413465,0.07760910845184699
1772618983158721500,2.902721435546875,-0.12565583966970442,-0.021634470311552283,0.08676297697266563
1772618983168751400,2.91275146484375,-0.11994272271990776,-0.0012467851907014846,0.09983306908914819
1772618983178782500,2.922782470703125,-0.043736265873909,-0.002848813559859991,0.11193743971232324
1772618983188813600,2.9328134765625,0.0632166268914938,-0.005304390018433332,0.1261712783785537
1772618983198843400,2.942843505859375,0.14605623814165591,0.010868746147304773,0.10119334285799414
1772618983208874500,2.95287451171875,0.147721541005373,-0.018231530000269412,0.055966126040276135
1772618983218905300,2.9629052734375,0.10692717380225658,-0.01993584970012307,-0.003360653805825859
1772618983228935400,2.972935302734375,0.08145838602483273,0.018327099329233168,-0.04443802093509584
1772618983238966500,2.982966552734375,0.03950374287068844,0.0235815127260983,-0.05586052850764244
1772618983248997400,2.992997314453125,0.0337760128736496,0.036096710906177755,-0.005289484710246324
1772618983259027500,3.00302734375,0.0216588741004467,0.04170315261110663,0.03190862983288243
1772618983269058600,3.01305859375,-0.022165070056915284,0.06792758106142283,0.057454263972491024
1772618983279089400,3.02308935546875,-0.06737140848338603,0.06865574920549988,0.07558984105130657
1772618983289119500,3.033119384765625,-0.031840076375007624,0.02649009364917874,0.08172883699666708
1772618983299150600,3.043150634765625,0.02021978120803833,0.008205226026475429,0.07374793951166793
1772618983309181400,3.053181396484375,0.051931847289204594,-0.01084098135754466,0.1117477440928109
1772618983319211500,3.06321142578125,0.03456219481527805,-0.012444909422844647,0.1184423280943185
1772618983329242400,3.073242431640625,0.024889526584744453,-0.015531038869917392,0.08257200982253998
1772618983339272400,3.0832724609375,0.016495207726955414,-0.027808775032311675,0.056881706515233964
1772618983349303600,3.093303466796875,-0.05718260742425918,-0.057305357021093364,0.015361034331563859
1772618983359334400,3.10333447265625,-0.11562895117402076,-0.05274550175964832,0.009697419079300015
1772618983369364500,3.113364501953125,-0.1244236675262451,-0.02740706236362457,0.046198308605886994
1772618983379395600,3.1233955078125,-0.11405600276887416,-0.031891368170827626,0.06843635256746783
1772618983389426400,3.133426513671875,-0.09086509679555893,-0.014992401948571205,0.1144626473410055
1772618983399456500,3.14345654296875,-0.059846858197450635,-0.03634937049299478,0.10225649684378876
1772618983409487400,3.1534873046875,-0.07277122170031071,-0.054658057382702824,0.08144496028767899
1772618983419518500,3.1635185546875,-0.13776011896133422,-0.057926703789830204,0.0860711039846763
1772618983429548500,3.173548583984375,-0.18237492123544216,-0.04008884928226471,0.07549195190109312
1772618983439579400,3.183579345703125,-0.15828443607389925,-0.04645414653047919,0.09561061082221567
1772618983449610500,3.193610595703125,-0.12549801875948904,-0.04711816339716315,0.1119097662541084
1772618983459640600,3.203640625,-0.12737491854727268,-0.05154854706004262,0.10733191867824643
1772618983469671400,3.21367138671875,-0.12919336614608765,-0.0851671774148941,0.0519926740983501
1772618983479702500,3.22370263671875,-0.1457861890286207,-0.09735504333674908,0.03347491103522479
1772618983489732600,3.233732666015625,-0.0949310310602188,-0.08491904787272214,0.032114326739124954
1772618983499763500,3.243763427734375,-0.025005261918902396,-0.07039192534834146,0.07857311291210353
1772618983509794600,3.253794677734375,0.02960486466884613,-0.06030643853321671,0.1208105185303837
1772618983519824400,3.263824462890625,0.03474865729808807,-0.0346449046626687,0.11561002727784216
1772618983529855500,3.27385546875,-0.016593991926312446,0.003344341991841793,0.08341098139733076
1772618983539886600,3.283886474609375,-0.03545709782838821,0.0270582489259541,0.07672218781579285
1772618983549916400,3.29391650390625,-0.014707739788293837,0.025511896266788243,0.05387266089236364
1772618983559947500,3.303947509765625,0.023586627292633056,0.04784370119273662,0.06087020989581942
1772618983569978400,3.313978271484375,0.07887012309730053,0.04437076438516378,0.055705447543784974
1772618983580008400,3.324008544921875,0.14605039292275904,0.04639101816639304,0.03317063085902482
1772618983590039600,3.33403955078125,0.1691144576460123,0.03932619434669614,0.03808498038025573
1772618983600070400,3.3440703125,0.17710837900936602,0.049424540643393994,0.01993314628638327
1772618983610100500,3.3541005859375,0.16753157236874103,0.05486527039259672,0.038194523435644806
1772618983620131600,3.364131591796875,0.15500409922897815,0.03750058635473251,0.08202237658314407
1772618983630162400,3.374162353515625,0.15764906077980995,0.032170623503625394,0.10163533273814246
1772618983640192500,3.384192626953125,0.14262100299596786,0.02818886039108038,0.10357698659151791
1772618983650223600,3.3942236328125,0.10763269172310828,0.00456029365286231,0.0769919081352651
1772618983660254500,3.40425439453125,0.04413958597779274,-0.004370762430131435,0.03145500431386754
1772618983670284500,3.414284423828125,0.020429040044546126,-0.021778554957360027,-0.026535595025029033
1772618983680315400,3.4243154296875,0.0041238019317388535,-0.04939166128709912,-0.09240964109012857
1772618983690346500,3.434346435546875,0.007260930913686752,-0.0368267787463963,-0.06833703864514827
1772618983700376600,3.44437646484375,-0.013456278422474861,0.005527823510766029,-0.047275162323471155
1772618983710407400,3.454407470703125,-0.04261398384571075,0.010731529633700847,-0.028615451772697267
1772618983720437200,3.464437255859375,-0.05125087928771972,0.00022927871122956273,0.0203603404561989
1772618983730468600,3.474468505859375,-0.08548165019154548,0.01441328688636422,0.04485681260274723
1772618983740499500,3.48449951171875,-0.0992144074678421,0.015363573348522185,0.03518518555182963
1772618983750529300,3.494529296875,-0.06556172871291636,-0.006567980213463306,0.06148446933664381
1772618983760560600,3.504560546875,-0.04398644124269485,-0.003574643616378307,0.11255336138727143
1772618983770591500,3.514591552734375,0.008314239358901977,-0.013959990160912275,0.09873473419211805
1772618983780621300,3.524621337890625,0.040330841344594956,-0.04510770035758614,0.08355753199486061
1772618983790652400,3.53465234375,0.03514613218307495,-0.05628200532272458,0.06556333614811301
1772618983800683500,3.54468359375,-0.019758593437075613,-0.03200710350498557,0.05007644694717601
1772618983810713300,3.55471337890625,-0.05497545276880264,-0.026426526893675327,0.058543301318213344
1772618983820744400,3.564744384765625,-0.05061959564685821,0.0008113163828849792,0.1212300408503972
1772618983830775600,3.574775634765625,-0.056150341767072676,0.02030336783826351,0.11917833248497918
1772618983840805400,3.584805419921875,-0.0722527507841587,0.008994330577552319,0.10480159648302942
1772618983850836500,3.59483642578125,-0.05875263321995735,-0.007211100422590971,0.06494209897723048
1772618983860867600,3.60486767578125,-0.05457330170869827,0.007389379598945379,0.07155875890431926
1772618983870897400,3.6148974609375,-0.020175357544422148,0.016034458347409963,0.0788591633118689
1772618983880928500,3.624928466796875,0.001578209102153778,0.016280542062968015,0.08024685481060295
1772618983890959600,3.634959716796875,0.03545475974082946,0.022897914376109836,0.09324505073465407
1772618983900989200,3.6449892578125,0.03218786689937114,-0.0017686171077191829,0.07286755821425467
1772618983911020500,3.6550205078125,0.04609481169879436,0.011010200444608926,0.05221398869883269
1772618983921051400,3.665051513671875,0.11779577381908893,-0.002003887168318033,0.06040768868429586
1772618983931081200,3.675081298828125,0.21097499277591705,0.03298646993115544,0.11778631187099962
1772618983941112600,3.685112548828125,0.24624738168716429,0.03712079325690865,0.16097062468426301
1772618983951143400,3.695143310546875,0.2700011822402477,0.04583090006560087,0.1681379590303637
1772618983961173200,3.70517333984375,0.252118904069066,0.05509089584201574,0.14247843445381148
1772618983971204600,3.71520458984375,0.2225228072285652,0.07427592717483639,0.12616791737768798
1772618983981235500,3.7252353515625,0.18258418007194996,0.08125745662525295,0.12842024461543186
1772618983991265300,3.735265380859375,0.09202887987792491,0.0893871331974864,0.10708602675893343
1772618984001296600,3.745296630859375,-0.03253858003318309,0.09682911976650356,0.07750295379678718
1772618984011327500,3.755327392578125,-0.13410335001945495,0.0692336952239275,0.0015939911931753157
1772618984021357300,3.765357421875,-0.20462065531313417,0.05785480759739876,0.014218020042590797
1772618984031388400,3.775388427734375,-0.20842881542444228,0.02470116440579295,0.04446367596616037
1772618984041419500,3.78541943359375,-0.12308452787697315,-0.0012868249401450157,0.05170773794343695
1772618984051449300,3.795449462890625,-0.06349661287665367,-0.010706249061971903,0.10916381941367871
1772618984061480400,3.80548046875,-0.023161095356941223,-0.03347410731762648,0.12625081902132368
1772618984071511600,3.815511474609375,-0.020889643293619156,-0.03837985340729356,0.14039784705378114
1772618984081541400,3.825541259765625,-0.054630584853887554,-0.04953223880156874,0.12346832129647954
1772618984091572500,3.835572509765625,-0.14331483047902582,-0.06753580526486039,0.072546920558298
1772618984101603600,3.845603515625,-0.19321487967967985,-0.06140431677252054,0.019048417607415467
1772618984111633000,3.8556328125,-0.19213000705242156,-0.06607493893206119,-0.005069741012342274
1772618984121663700,3.865663818359375,-0.15779577577412127,-0.0660452744461596,0.011947947085602208
1772618984131694800,3.87569482421875,-0.1321539695173502,-0.056153848898410796,0.00850655619376339
1772618984141725000,3.885724853515625,-0.11505378163456915,-0.03371536872759461,-0.0030721100548747925
1772618984151755800,3.895755859375,-0.12507482491135596,-0.013732026623934506,0.02470262571051717
1772618984161785900,3.905785888671875,-0.09598141689598559,-0.008868950632214545,0.054690279151871794
1772618984171816700,3.915816650390625,-0.06136719963252544,-0.005795534536242485,0.072652280628914
1772618984181847800,3.925847900390625,-0.027115385940670967,-0.007080167519301176,0.09003008900983259
1772618984191878000,3.9358779296875,-0.0026899697363376614,0.0034157997928559777,0.08176553401155397
1772618984201908700,3.94590869140625,0.005863339075446129,0.019084201306849718,0.07162313851057552
1772618984211939800,3.95593994140625,0.011646014130115508,0.024037147539108992,0.04309110897132195
1772618984221970000,3.965969970703125,0.03769055596888065,0.0067900985315442084,0.04193064122404903
1772618984232000800,3.976000732421875,0.06926350584030151,0.034765900693833826,0.09381140677998773
1772618984242031900,3.986031982421875,0.07661620669066906,0.028091683626919984,0.06450464827488177
1772618984252062000,3.99606201171875,0.07171966682076454,0.007383680510520935,0.021522433904977514
1772618984262092800,4.0060927734375,0.08498305301964282,-0.0059440030962228775,0.01707596675697714
1772618984272124000,4.0161240234375,0.03028407910466194,-0.01780249093323946,0.018168876560218632
1772618984282153700,4.02615380859375,0.0043301381587982175,-0.011349077010154723,-0.007021751862950623
1772618984292184800,4.036184814453125,-0.014153613036870955,-0.0033741526082158085,-0.021176899269782005
1772618984302216000,4.0462158203125,-0.042433951103687285,-0.02673325475528836,-0.009173833596613258
1772618984312245800,4.056245849609375,-0.044592005920410155,-0.021606413260847328,-0.04509644831120967
1772618984322276900,4.06627685546875,-0.052308279386162754,0.0055802843503654,0.018343557273689658
1772618984332307700,4.0763076171875,-0.02550210552513599,0.0013609130896627903,0.06950862144147976
1772618984342337800,4.086337890625,-0.012894552886486053,0.0009957330390810966,0.10358615627866238
1772618984352369000,4.096368896484375,-0.07171499064564704,-0.005050269126892089,0.103208609936852
1772618984362399700,4.106399658203125,-0.09566811316311359,0.017487872026115656,0.062102729099150746
1772618984372429800,4.116429931640625,-0.06683014121353625,-0.005849164419621229,0.03946478083347901
1772618984382461000,4.1264609375,-0.0054489130556583405,-0.057686465293169016,0.015024477587267755
1772618984392491800,4.13649169921875,0.049590837121009826,-0.049404374638199806,0.01277801383472979
1772618984402521900,4.14652197265625,0.0726882195919752,-0.03224778039306402,0.013528119815979152
1772618984412553000,4.156552978515625,0.026698037311434743,-0.012574527151882647,0.030601346626598386
1772618984422583800,4.166583740234375,-0.05901742163598537,0.025140140344947576,0.0779437289673835
1772618984432614000,4.17661376953125,-0.11424012716412543,0.05368994300290942,0.08897135547082871
1772618984442644700,4.186644775390625,-0.12451485294103622,0.06263458921983837,0.12300528862830251
1772618984452675800,4.19667578125,-0.05270224713981151,0.059437692874670024,0.14199006641497836
1772618984462706000,4.206705810546875,0.04873042089939117,0.03085910251364112,0.1209110928280279
1772618984472736800,4.21673681640625,0.12565408610403536,-0.0007505261063575744,0.13258585812859236
1772618984482768000,4.226767822265625,0.18299626800417898,0.009012743017077446,0.10293835989441721
1772618984492798000,4.2367978515625,0.18314532108604906,-0.011139818173646926,0.1249126748858951
1772618984502828800,4.246828857421875,0.13007307159006595,0.0012171207047998905,0.11655592982582748
1772618984512860000,4.25685986328125,0.07210194413661956,0.05128054377362132,0.13390536149563267
1772618984522889700,4.2668896484375,0.03828559925258159,0.0813657393053174,0.16134199701361357
1772618984532920800,4.2769208984375,0.07143909631371498,0.06392594420462847,0.12594002690594644
1772618984542952000,4.286951904296875,0.07102642385959625,0.031731501433998346,0.07974663193719461
1772618984552981800,4.296981689453125,0.0637391894608736,-0.02616597626134753,0.043879857329372315
1772618984563012900,4.307012939453125,0.058116088882088655,-0.06456131949871778,-0.021646818336471915
1772618984573043700,4.317043701171875,-0.005768062007427215,-0.07577288773432374,-0.026225469629932194
1772618984583073800,4.32707373046875,-0.05832417867481708,-0.06518982666060329,-0.0336332616684027
1772618984593105000,4.33710498046875,-0.02425707390010357,-0.06253229788914322,-0.05809910121466964
1772618984603135700,4.3471357421875,0.02155833633542061,-0.1251777007639408,-0.043089108810480684
1772618984613165800,4.357165771484375,0.03325988004505634,-0.15991379084140062,0.0018624511373229323
1772618984623197000,4.367197021484375,-0.016354337951540947,-0.14041808612421156,0.053168732140399515
1772618984633226800,4.377226806640625,-0.12848200300633908,-0.11170008729249238,0.0673934376521036
1772618984643257900,4.3872578125,-0.2556137604475021,-0.10585618356987833,0.04801763298753649
1772618984653289000,4.3972890625,-0.3150537914097309,-0.08808584134057164,0.011622359259892254
1772618984663319800,4.40731982421875,-0.29703005894124507,-0.09946224474906921,-0.010781999445613474
1772618984673350000,4.417349853515625,-0.24871640214920043,-0.0850429665133357,-0.05101153584020212
1772618984683380700,4.427380615234375,-0.17461130149662493,-0.09505962587594985,-0.12416017601815983
1772618984693411800,4.437411865234375,-0.0642705198585987,-0.08468187811598181,-0.14141122534740716
1772618984703442000,4.44744189453125,0.06819558434784412,-0.0798123723834753,-0.04562626260528341
1772618984713472800,4.45747265625,0.18856909970045088,-0.05786766707897186,0.05005492923511192
1772618984723502800,4.4675029296875,0.17535598238408565,-0.02728182854875922,0.08963299771733582
1772618984733534000,4.477533935546875,0.11796119351387023,0.020689006154984233,0.08938282234854995
1772618984743564800,4.487564697265625,0.05488309831023216,0.047992462013661856,0.09472527935504912
1772618984753595000,4.497594970703125,-0.004403203395009041,0.05051277427151799,0.07248900722544639
1772618984763626000,4.5076259765625,-0.04312017980217933,0.06799611625298857,0.03171539054941386
1772618984773656800,4.51765673828125,0.0006365443378686904,0.06922010508999228,0.010131371783465147
1772618984783687000,4.52768701171875,0.09610825814604759,0.05566358116343617,0.04990790371354669
1772618984793717800,4.5377177734375,0.16434066737294195,0.029641981808841228,0.06707385030891747
1772618984803748900,4.547748779296875,0.23681027577817437,0.016937252406030893,0.06440258527304976
1772618984813779000,4.557779052734375,0.24123744457066057,0.02644362415894866,0.06949395359531045
1772618984823809800,4.567809814453125,0.2030956377029419,0.003089490447938442,0.05570471689142287
1772618984833841000,4.5778408203125,0.14653788417875765,-0.0022810966745018956,0.05545399353336543
1772618984843871000,4.58787109375,0.11265256571173667,-0.00577113074734807,0.05404058307148516
1772618984853901800,4.59790185546875,0.08841828816533089,-0.014024141438305377,0.04684077122788876
1772618984863933000,4.607932861328125,-0.003669628423452377,-0.03317541663199663,0.04137527236361056
1772618984873962800,4.617962646484375,-0.08150807038545609,-0.028437574455142018,0.03814195299819111
1772618984883993900,4.627993896484375,-0.12458324200212954,-0.01779270019158721,0.07170096212029457
1772618984894025000,4.63802490234375,-0.1395820736914873,-0.004952946232259273,0.07414689396768807
1772618984904054800,4.6480546875,-0.1371194829702377,-0.018874504078924655,0.07525934872161597
1772618984914086000,4.6580859375,-0.13506664209365843,-0.0322213307775557,0.06571951309051365
1772618984924116700,4.66811669921875,-0.11986556583046913,-0.06620791766196489,0.05994944178909063
1772618984934146800,4.678146728515625,-0.06426818177103996,-0.05043824773058295,0.06392861108575015
1772618984944178000,4.688177978515625,-0.026094226199388504,-0.05875760165601968,0.09790909702293574
1772618984954208800,4.698208740234375,-0.038351650226116175,-0.07081088141277432,0.10659268115088343
1772618984964238800,4.70823876953125,-0.08571487442553043,-0.05485737934708595,0.06400573144257068
1772618984974270000,4.71827001953125,-0.09577683423459529,-0.014787527026236057,0.06705806821789592
1772618984984300800,4.72830078125,-0.08162731285095215,-0.0022052549593150612,0.09829086288213729
1772618984994331000,4.738330810546875,-0.006330956587195396,0.0019175240591168402,0.13336904439553618
1772618985004362000,4.748362060546875,0.06881926920413971,0.018688041596114636,0.12632413085270672
1772618985014392800,4.758392822265625,0.10132043983638286,-0.012279489728063345,0.10746617604978383
1772618985024423000,4.7684228515625,0.09564297872185706,0.007313684014230966,0.11710713396780192
1772618985034453800,4.778453857421875,0.08629179753065108,0.019629267968982456,0.10409399620294571
1772618985044484900,4.78848486328125,0.06725158149600029,0.045860710681974885,0.08742865607347339
1772618985054515000,4.798514892578125,0.11645897225737571,0.04934840666726231,0.11395115415491162
1772618985064545800,4.8085458984375,0.21085165865719316,0.019270663789659737,0.10779719810243696
1772618985074577000,4.818576904296875,0.25738135464191436,-0.019837357761710882,0.07552563497498631
1772618985084607000,4.82860693359375,0.2619143218964338,-0.03582476209700108,0.06522752832248807
1772618985094637800,4.838637939453125,0.1767085660368204,-0.03836567875146866,0.03172262400779873
1772618985104669000,4.8486689453125,0.02859305727779865,-0.02245090126097202,0.0032498686414211986
1772618985114699000,4.858698974609375,-0.10609715271890163,0.022599662081897256,0.02410453195320442
1772618985124729900,4.868729736328125,-0.15849778656363486,0.04289031656906008,0.042850148955453186
1772618985134761200,4.87876123046875,-0.18066168757677079,0.013500117564201355,0.04347242730595171
1772618985144790800,4.888790771484375,-0.08928747221529483,-0.018986440020799637,-0.001835910190269351
1772618985154822000,4.89882177734375,-0.004435936620831489,-0.07378142165616154,0.028620292344596236
1772618985164853000,4.90885302734375,-0.04268938716948032,-0.10401040957272052,-0.012039488693419843
1772618985174882800,4.9188828125,-0.05823474682569504,-0.07145049449056387,-0.05799648109041154
1772618985184914000,4.928913818359375,-0.05701368059813976,-0.07503858211040497,-0.018278456148225812
1772618985194945000,4.938945068359375,-0.054767947497963904,-0.09198094908297061,0.0034932854758575557
1772618985204974800,4.948974853515625,-0.08107610870897769,-0.08331380463317035,0.00750672236829996
1772618985215006000,4.959005859375,-0.08308043426871299,-0.05128405090495944,-0.010016915090940891
1772618985225037000,4.969037109375,-0.024618308427929878,-0.036655075441300866,0.011851747568976133
1772618985235067000,4.97906689453125,0.02164309200942516,-0.05004778710827231,0.0477952772074379
1772618985245098000,4.989097900390625,0.010966799694299697,-0.07760039542242884,0.05189940632432699
1772618985255127800,4.9991279296875,-0.02339899576604366,-0.04956526428833603,0.030763898510858416
1772618985265159000,5.009158935546875,-0.05639467191696167,-0.007481441796571016,0.03290193345285952
1772618985275189800,5.019189697265625,-0.0038490766435861586,0.021622633743286133,0.08806695397701114
1772618985285219800,5.0292197265625,0.07509644977748393,0.018535627513378856,0.09666362700648605
1772618985295251000,5.0392509765625,0.1368365743756294,0.007729863599687814,0.09020254123359918
1772618985305281800,5.04928173828125,0.14373276363015175,0.001977437552809715,0.08039156051091849
1772618985315311900,5.059311767578125,0.10087678772211074,0.02971680061072111,0.08711516967751086
1772618985325343000,5.069343017578125,0.059629416054487225,0.038352234748005865,0.10346128778997808
1772618985335373800,5.079373779296875,-0.0033037177205085754,0.05093567585870623,0.10832418111860752
1772618985345404000,5.08940380859375,-0.04383271198570728,0.06548486408442258,0.12333926982302218
1772618985355435000,5.09943505859375,-0.07781973726153374,0.053606210242211814,0.12116817286163568
1772618985365465900,5.1094658203125,-0.061328621187806125,0.05667758051156997,0.13472038593925534
1772618985375496000,5.119495849609375,-0.03771569041013718,0.05150879957154393,0.1673524164095521
1772618985385526800,5.12952685546875,-0.019016835159063338,0.006638561231642961,0.13845365418344735
1772618985395558000,5.139557861328125,-0.022677695754170415,-0.028566607662290334,0.08586188168078661
1772618985405588000,5.149587890625,-0.03466740875542164,-0.04861395491287112,0.04236567164044827
1772618985415618800,5.159618896484375,-0.04867430679798126,-0.05046323604136705,0.03463964396566152
1772618985425650000,5.16964990234375,-0.032362054422497746,-0.015843027428537607,0.0564671160986647
1772618985435680000,5.179679931640625,-0.05024024094045162,-0.009729366853833198,0.07894706079103052
1772618985445710800,5.1897109375,-0.07258242112994194,-0.021197832459956406,0.05814820105340331
1772618985455742000,5.199741943359375,-0.09389233566224575,-0.007546469856798649,0.0133012705238536
1772618985465772000,5.20977197265625,-0.0868488468915224,-0.007840338236838579,0.012016418345086276
1772618985475803000,5.219802978515625,-0.06826689601838588,-0.014920213495194911,-0.008752849971875547
1772618985485834000,5.229833984375,-0.013691840744018554,0.0027332243561744686,-0.007996990103274584
1772618985495863800,5.23986376953125,0.009991232660412788,0.005454904405027628,0.009082301121950149
1772618985505895000,5.24989501953125,0.018392565780878067,-0.00857201351225376,0.004037621485628188
1772618985515925800,5.25992578125,0.00007598784565925598,-0.022024784803390502,-0.054626931592077016
1772618985525955800,5.269955810546875,-0.013230068451166152,-0.04951280344873667,-0.06617032559793443
1772618985535987000,5.279987060546875,0.008386135551333426,-0.04352992964684963,-0.04498816563114524
1772618985546017800,5.290017822265625,0.01276478902697563,-0.014137684815376996,-0.011319741317816078
1772618985556048000,5.3000478515625,0.03432137179672718,0.0022505554057657717,0.01321647831723094
1772618985566079000,5.310078857421875,0.0487555553406477,-0.017935177402198313,0.004247428311407566
1772618985576109800,5.32010986328125,0.03407879521250724,-0.04145136980712413,-0.003134206372499466
1772618985586140000,5.330139892578125,0.023258125990629194,-0.045330110936611885,0.010280644061043858
1772618985596171000,5.3401708984375,0.041301147681474686,-0.03916720439270138,0.0336072687106207
1772618985606201900,5.350201904296875,0.01907820995748043,-0.02054638281390071,0.05900518320892006
1772618985616232000,5.36023193359375,-0.015578092882037162,-0.012623919251561163,0.04111391801368445
1772618985626262800,5.3702626953125,-0.008120762613415718,0.03462444639652967,0.04583933910038322
1772618985636294000,5.3802939453125,-0.020194646766781805,0.026976123600453136,0.07486658654436469
1772618985646324000,5.390323974609375,-0.00604103372991085,0.04425429839864373,0.09845387142412364
1772618985656354800,5.400354736328125,0.035762218254804606,0.04728431374430656,0.12232863147575407
1772618985666386000,5.410385986328125,0.00184825821518898,0.024921821419149635,0.10781451456341892
1772618985676416000,5.420416015625,-0.023649755656719205,0.044545974821597334,0.0992987978156656
1772618985686446800,5.43044677734375,-0.020595044261217117,0.053549511618912214,0.09738737470377236
1772618985696478000,5.44047802734375,0.01719780303835869,0.035331425622105596,0.1148421116452664
1772618985706508000,5.450508056640625,0.03718611357808113,0.030166736335307358,0.12640651190653443
1772618985716539000,5.460538818359375,0.012346855875849723,0.04383490394279361,0.1056109035719186
1772618985726570000,5.470570068359375,0.03098550537228584,0.042836978946626185,0.13590301985256373
1772618985736599800,5.480599853515625,0.052609308159351345,0.052311201995611185,0.18910335270762443
1772618985746631000,5.490630859375,0.017875848430395126,0.06309183146804571,0.18130246969833969
1772618985756662000,5.500662109375,-0.03282207314968109,0.040955841375142334,0.10946052820477634
1772618985766691800,5.51069189453125,-0.06983166111707687,0.004850070379674434,0.03878163914121687
1772618985776723000,5.520722900390625,-0.07627601495087147,-0.003604454232752323,0.042260676896013316
1772618985786753800,5.53075390625,-0.06526829872429371,-0.016835399466753005,0.030446941516175864
1772618985796783900,5.540783935546875,-0.04063654629290104,0.007734393644332886,0.08540953480340539
1772618985806815000,5.55081494140625,-0.0595084200233221,-0.002876432219147682,0.11742924206163734
1772618985816845800,5.560845703125,-0.07106850943565368,0.003629150282591581,0.1284362641684711
1772618985826876000,5.5708759765625,-0.050664019310474394,-0.002221913833171129,0.12386979650314897
1772618985836907000,5.580906982421875,-0.03844984990358352,-0.051476212476193904,0.08605345873013139
1772618985846937900,5.590937744140625,-0.0031190088033676146,-0.07226707157045602,0.04184489916935563
1772618985856968000,5.600968017578125,-0.008041267636418343,-0.056120531150698656,0.04501545549686998
1772618985866998800,5.610998779296875,0.02089373494684696,-0.036110885562002655,0.044510940040834245
1772618985877030000,5.62102978515625,0.05045592951774597,-0.03185089002996683,0.055285724294371896
1772618985887060000,5.63106005859375,0.02347498361170292,-0.028450872328132388,0.036926585859060286
1772618985897090800,5.6410908203125,-0.03825403507053852,-0.007033990290015935,0.0038536066882312297
1772618985907121000,5.651120849609375,-0.07241057169437408,0.00712137631252408,-0.004183678892813623
1772618985917152000,5.661152099609375,-0.05016016144156456,0.019746902999281883,0.014705876624770462
1772618985927182800,5.671182861328125,0.007231704819202422,0.0013543372184038162,0.04185980447754264
1772618985937213000,5.681212890625,0.04230418724417686,-0.008305471530556678,0.049919448020868
1772618985947244000,5.691244140625,0.024769115075469014,-0.023145313265919683,0.05227434058394283
1772618985957275000,5.70127490234375,0.009787819042801857,0.008032353677600622,0.05857683826163411
1772618985967305000,5.711304931640625,0.001886252138018608,-0.0022419337078928947,0.06931012146100402
1772618985977335800,5.721335693359375,0.028573768055438993,-0.00008490180447697639,0.06912124782539904
1772618985987367000,5.731366943359375,0.031205870124697683,-0.009981734179705382,0.07235021980926394
1772618985997397000,5.74139697265625,0.037144028002023696,-0.024429069466143843,0.06716412240825594
1772618986007427800,5.751427734375,0.06661971333324909,-0.018061287999898194,0.10373433257769793
1772618986017459000,5.761458984375,0.03590893324911594,-0.03393003439158201,0.05906023786440491
1772618986027489000,5.771489013671875,-0.020402152037620542,-0.01722279134914279,0.029725458841212093
1772618986037520000,5.781519775390625,-0.03952069400548935,0.004205050474405289,0.040145803633891045
1772618986047551000,5.791551025390625,-0.037540918365120884,0.039257220763713116,0.0768636055804789
1772618986057581000,5.8015810546875,-0.010808978784084319,0.04166004412174225,0.09713058693110942
1772618986067612000,5.81161181640625,0.020787351962924003,0.028585604623705147,0.08056282542459667
1772618986077643000,5.82164306640625,0.05097264686822891,0.007664251017570495,0.1069887312637642
1772618986087672800,5.8316728515625,0.09021101680099963,-0.0015906301923096179,0.08721041021291166
1772618986097704000,5.841703857421875,0.10753215395808219,-0.015230448488146066,0.06525299155730754
1772618986107735000,5.851735107421875,0.09698971715569496,-0.004734188915044069,0.05693696210011839
1772618986117764900,5.861764892578125,0.06695522889792918,0.00970028688982129,0.030318931222334502
1772618986127796000,5.8717958984375,0.007523381242156029,0.0341689577139914,0.025835283002257344
1772618986137826800,5.881826904296875,0.03523030333518982,0.05005100197866559,-0.008528357033617795
1772618986147857000,5.89185693359375,0.07285305476486682,-0.021639731008559464,0.051461928222514684
1772618986157888000,5.901887939453125,-0.012356208226084709,-0.0036520927667617795,0.03399517204966396
1772618986167918800,5.9119189453125,-0.06810849058628082,0.013301526252180337,-0.019328312261030076
1772618986177949000,5.921948974609375,-0.10750935760438442,-0.017721973042935133,0.029437070353887974
1772618986187980000,5.93197998046875,-0.10480769743025302,0.013900953450053929,0.08186539592314511
1772618986198011000,5.942010986328125,-0.07746843960583209,0.023932079729437828,0.11816833345852791
1772618986208041000,5.952041015625,-0.04112345302700996,0.010912585289031267,0.1380894970461726
1772618986218072000,5.962072021484375,-0.008990531185269355,-0.036040889065712685,0.10329857150893658
1772618986228103000,5.97210302734375,-0.015663433077931402,-0.05444748337194323,0.06731839965451508
1772618986238133000,5.982133056640625,-0.04054010018110275,-0.06142272921204567,0.038548707168176766
1772618986248163800,5.992163818359375,-0.07197334932088852,-0.046420098130404944,0.034597960248403246
1772618986258195000,6.00219482421875,-0.11000058989822864,-0.004795855974406004,0.05198032607343048
1772618986268225000,6.01222509765625,-0.1352776544958353,0.01995265470445156,0.07446801568083465
1772618986278255900,6.022255859375,-0.13948387401401996,0.03293634717911482,0.13243764529693872
1772618986288287000,6.032286865234375,-0.14599369429945944,0.05793620227053761,0.16216069298535585
1772618986298317000,6.042317138671875,-0.15054945790767668,0.06268047418817878,0.17666092750281095
1772618986308348000,6.052347900390625,-0.12061316932737827,0.05959799800291657,0.18898747124299406
1772618986318379000,6.06237890625,-0.09498305350840092,0.05934007771909237,0.19330993755199014
1772618986328408800,6.072408935546875,-0.06598141542971134,0.03705795715376735,0.17327829932719468
1772618986338440000,6.08243994140625,-0.07078793892860412,0.031563743651658295,0.1546750499377027
1772618986348471000,6.092470947265625,-0.07154080312252044,0.018389789301902056,0.11170436160881071
1772618986358500900,6.1025009765625,-0.07421089911460876,0.027127076378464697,0.08630732389334589
1772618986368532000,6.112531982421875,-0.05529635528624057,0.018807868583500385,0.04474135126322508
1772618986378562800,6.122562744140625,-0.0022755437165498734,-0.006261983004212379,0.016987521288543937
1772618986388593000,6.132593017578125,0.05275777671933174,-0.04191431114375591,0.025271000183001158
1772618986398624000,6.1426240234375,0.07992401606440544,-0.02987856704369187,0.031924357124976814
1772618986408654800,6.15265478515625,0.07842121028602123,-0.00002484218031167984,0.03670625763926655
1772618986418685000,6.162684814453125,0.0717208358645439,-0.01321034083738923,0.03533613832984119
1772618986428716000,6.172716064453125,0.08048691064417361,-0.0396580566495657,0.06322254517562687
1772618986438747000,6.182746826171875,0.02793956180512905,-0.01847206075787544,0.057225094859115776
1772618986448777000,6.19277685546875,-0.028802900636196133,0.0037102526947855948,0.04580350060202181
1772618986458808000,6.20280810546875,-0.06155483115911484,0.00039396775364875793,0.03322681802567094
1772618986468839000,6.2128388671875,-0.04947276369929313,-0.031209669516980645,-0.007574928766302764
1772618986478869000,6.222868896484375,-0.00007481880187988281,-0.033720921685546634,-0.03708316466026008
1772618986488899800,6.23289990234375,0.07668868740499019,-0.06948343220129609,-0.06573518558368087
1772618986498931000,6.242930908203125,0.1355862820535898,-0.07381430101245641,-0.058907494988106185
1772618986508961000,6.2529609375,0.16054302865564823,-0.07602788540869951,-0.030481099514104423
1772618986518992000,6.262991943359375,0.17984861762821674,-0.06301774331852793,-0.010882044020295143
1772618986529023000,6.27302294921875,0.15978431924283504,-0.04289470048323273,0.019576405270583925
1772618986539053000,6.283052978515625,0.1167208380639553,-0.024385668715834617,0.030482122427411374
1772618986549084000,6.293083984375,0.057900984826683995,-0.011021014099568127,0.013297872990369795
1772618986559115000,6.303114990234375,0.03762976569235325,0.011333441049605607,0.014151274949312209
1772618986569145000,6.31314501953125,0.06258592777252196,0.022164193274080753,0.022641784190572795
1772618986579176000,6.323176025390625,0.07004091995358466,0.002171060428768396,0.017422917031124235
1772618986589207000,6.33320703125,0.07679448586702346,0.01111702181994915,-0.001521656609326601
1772618986599236900,6.34323681640625,0.09656243165433406,-0.007196195114403963,-0.01944561849776655
1772618986609268000,6.35326806640625,0.11164601901769637,-0.015524316868185997,-0.017872523962147533
1772618986619298800,6.363298828125,0.09320318435430526,-0.019624299532920123,0.01741013061478734
1772618986629329000,6.373328857421875,0.05378302811384201,-0.0008330898232758045,0.04841982058025896
1772618986639360000,6.383360107421875,-0.057923196658492083,-0.014880466006696224,0.05276000520903617
1772618986649390800,6.393390869140625,-0.15082242963016032,-0.0008785364001989365,0.05358838232457638
1772618986659421000,6.4034208984375,-0.1766705721139908,0.0259767372995615,0.08622538123093546
1772618986669452000,6.4134521484375,-0.11928104394078254,0.01599412633702159,0.11892207443527876
1772618986679483000,6.42348291015625,-0.05745499462485313,0.00079363459572196,0.1500384761782363
1772618986689513000,6.433512939453125,-0.022128245177865026,-0.019550357513874767,0.13818294748328624
1772618986699544000,6.4435439453125,-0.022678280276060104,-0.058268502964824435,0.07740626108981669
1772618986709575000,6.453574951171875,-0.06501227813661098,-0.0788800599694252,0.02948478195313364
1772618986719605000,6.46360498046875,-0.09545768528282642,-0.07647986695989965,0.044243521276302634
1772618986729635800,6.4736357421875,-0.10860241353809832,-0.03059402183666825,0.11918642445988953
1772618986739667000,6.4836669921875,-0.13851298315525054,0.007019815634191036,0.1530000293975696
1772618986749697000,6.493697021484375,-0.11880875025391578,0.0004939209967851639,0.18400895217806099
1772618986759727900,6.503727783203125,-0.11944529459178448,-0.013017010222375391,0.154411065239273
1772618986769759000,6.513759033203125,-0.12840952229201794,-0.02225625547170639,0.08074906871169805
1772618986779789000,6.5237890625,-0.13227262746095655,-0.006154723237454891,0.041618360404483974
1772618986789820000,6.53381982421875,-0.08750409592986107,-0.02596285490468144,0.03097180564049631
1772618986799851000,6.54385107421875,-0.05491758510172367,-0.026932430589199065,0.04639310052562505
1772618986809881000,6.553881103515625,-0.06821545809209346,-0.0008484335228800773,0.057114327961020166
1772618986819912000,6.563911865234375,-0.041405777099728584,0.002071253316104412,0.061635093321092425
1772618986829943000,6.573943115234375,-0.03257189778089523,0.010724076979607342,0.044284657004289324
1772618986839972900,6.583972900390625,0.020524901634454727,0.03321750220805406,0.022407244782336053
1772618986850004000,6.59400390625,0.09539046526551247,0.016125789892673492,0.041973238256759936
1772618986860034800,6.604034912109375,0.1875532006561756,-0.0139196581505239,0.05075666602998972
1772618986870065000,6.61406494140625,0.19225275664925573,0.01789835252314806,0.07068520920649171
1772618986880096000,6.624095947265625,0.18584230508506297,0.03410466030612588,0.050540648659132416
1772618986890126800,6.634126953125,0.18334581209421158,0.021693214761465785,0.0638701223641634
1772618986900157000,6.644156982421875,0.15375965212583542,0.010874445235729217,0.006113331781141459
1772618986910188000,6.65418798828125,0.10878887602090835,0.0008173077322542667,0.010532901789061725
1772618986920219000,6.664218994140625,0.08219897525906562,0.00797989283800125,0.03992317385915667
1772618986930249000,6.6742490234375,0.06791910549402237,-0.0022936638951301575,0.05939045619945973
1772618986940280000,6.684280029296875,0.02969897269308567,-0.004671791203320026,0.05708893779143691
1772618986950311000,6.694310791015625,-0.006340893459320068,0.013682342263311147,0.08987656068224459
1772618986960341000,6.704341064453125,-0.00932020153105259,0.009503010752052067,0.07460008109528571
1772618986970371800,6.714371826171875,0.01672375578582287,0.012352262703329325,0.10714446981474757
1772618986980403000,6.72440283203125,0.02051905641555786,-0.010295622434467076,0.10469704013001173
1772618986990433000,6.73443310546875,-0.004453472277522087,-0.013593348805606364,0.09646065178029238
1772618987000464000,6.7444638671875,-0.06410451564192772,-0.013682196132838725,0.07626297280620783
1772618987010495000,6.754494873046875,-0.10959376266300677,-0.008877864591032266,0.04232004240043461
1772618987020525000,6.764525146484375,-0.12659107469320297,-0.01002864206135273,0.07760569265205412
1772618987030556000,6.774555908203125,-0.1255564709484577,-0.018460954841971397,0.08803250371813774
1772618987040587000,6.7845869140625,-0.14636369665563106,-0.008342734801024198,0.12313571007493883
1772618987050617000,6.7946171875,-0.193678990060091,-0.012040128014236687,0.11371500731147825
1772618987060648000,6.80464794921875,-0.22067805614471434,0.006087795481085777,0.13748334784656763
1772618987070679000,6.814678955078125,-0.18034546123445033,0.01358852650001645,0.15583127076812087
1772618987080708900,6.824708984375,-0.16169161416888236,0.023864421320706604,0.15285605434961616
1772618987090740000,6.834739990234375,-0.1236789866387844,0.005737959130108356,0.15542868131659923
1772618987100771000,6.84477099609375,-0.08855857341885566,-0.013671674738824366,0.13384137461502105
1772618987110801200,6.85480126953125,-0.026537293791770934,-0.013586480673402547,0.11394191140253096
1772618987120832300,6.864832275390625,0.05783434933125972,-0.04343304514363408,0.1069172003975138
1772618987130863000,6.874863037109375,0.07894435737729072,-0.050085488770157095,0.08377013356592505
1772618987140893200,6.88489306640625,0.09976210447847843,-0.0388614994443953,0.06559183159023523
1772618987150924300,6.89492431640625,0.12204232534766196,-0.04760667756646871,0.04520447526294738
1772618987160955100,6.904955078125,0.1348597213447094,-0.03433145479932427,0.05209003352560103
1772618987170985200,6.914985107421875,0.14514438399374485,-0.020389000295102596,0.028824016489461063
1772618987181016300,6.925016357421875,0.1494990720719099,-0.05412906507253647,0.013475750307925045
1772618987191047200,6.935047119140625,0.14448621234595774,-0.03715075000375509,-0.00571435905881226
1772618987201077200,6.9450771484375,0.13217267421782017,-0.03996083898842334,-0.021003551996871827
1772618987211108000,6.955108154296875,0.12849427796602247,-0.03697758539393544,-0.041243280014395714
1772618987221139200,6.96513916015625,0.12770166628360746,-0.014860153871029614,-0.048014198921434575
1772618987231169300,6.975169189453125,0.15411971760988236,-0.01998977184444666,-0.03994659126736223
1772618987241200000,6.9852001953125,0.15170914933681487,-0.03590776420533657,-0.01739054913148284
1772618987251231200,6.995231201171875,0.11652151609957218,-0.04214636633396148,-0.03414448085986078
1772618987261261300,7.00526123046875,0.09133388335108757,-0.023322861789911983,-0.05893346967957914
1772618987271292200,7.015292236328125,0.014942133066058159,-0.017899813827872275,0.0049448725236579776
1772618987281323300,7.0253232421875,-0.03606792320311069,0.03462342348322272,0.03605524638462811
1772618987291353300,7.035353271484375,-0.01960018800497055,0.03472542255297303,0.07723832064438611
1772618987301384200,7.04538427734375,-0.003527589604258537,0.016732085222750902,0.06801500361654907
1772618987311415300,7.055415283203125,0.03983049060702323,-0.0052025370791554445,0.04243680064789951
1772618987321445000,7.065445068359375,0.08966682692170143,-0.026067045931518075,0.043388146555982526
1772618987331476200,7.075476318359375,0.0918769041866064,-0.04976970081925392,0.04168287700805813
1772618987341507000,7.085507080078125,0.008335282146930694,-0.061910658859461544,0.03584255348201841
1772618987351537200,7.095537109375,-0.10292436790168284,-0.026618980725854634,0.024711101277917622
1772618987361568300,7.105568359375,-0.14997253480255604,0.005387099865823984,0.038203035535663364
1772618987371599000,7.11559912109375,-0.1556897434055805,0.010436638340353965,0.03057666884306818
1772618987381629200,7.125629150390625,-0.14581015442609785,0.00014335399344563485,0.04113755461759865
1772618987391660300,7.135660400390625,-0.13749240793585776,-0.006050678341090679,0.03147661335747689
1772618987401691100,7.145691162109375,-0.1349339556246996,-0.028657500816136598,0.03870050019640475
1772618987411721200,7.15572119140625,-0.10269698888659477,-0.04148863307759165,0.06388400475904345
1772618987421752300,7.16575244140625,-0.09880758023262023,-0.03569266014993191,0.07312314041052013
1772618987431783200,7.175783203125,-0.09279811068475245,0.0014740180753171443,0.09765559718590229
1772618987441813200,7.185813232421875,-0.06182721835970878,0.012031798577308654,0.07081270804367959
1772618987451844000,7.195843994140625,-0.02258767938315868,0.012787000858783721,0.0780207031937316
1772618987461875200,7.205875244140625,0.022522212931513786,-0.013855945264548062,0.04774820492900908
1772618987471905300,7.2159052734375,0.07061141331791877,-0.03718640583902597,0.033101145819388327
1772618987481936100,7.22593603515625,0.12110007606148719,-0.027202041310817,0.04145538839511573
1772618987491967200,7.23596728515625,0.13375263688564298,-0.033628128835558886,0.03604699001293629
1772618987501997300,7.245997314453125,0.13568623529672622,-0.024950024600327015,0.06444963928516954
1772618987512028200,7.256028076171875,0.1036889225333929,-0.0034118542701005936,0.054705257525295016
1772618987522059300,7.266059326171875,0.05086334127485752,0.011649959652870892,0.05612268657516688
1772618987532089300,7.27608935546875,0.04285188425481319,0.012289426600188016,0.029233291410095986
1772618987542120200,7.2861201171875,0.06979132910668849,-0.015774638367444277,0.03262855987157672
1772618987552151300,7.2961513671875,0.1020154363632202,-0.03664703826531768,0.038737799999490376
1772618987562181000,7.30618115234375,0.09370762674510479,-0.04850304188430309,0.04914996148571372
1772618987572212200,7.316212158203125,0.07350070501863956,-0.048586043992638585,0.06944920113813131
1772618987582243300,7.326243408203125,0.030631869629025456,-0.0314382175758481,0.08827011186629534
1772618987592273000,7.33627294921875,-0.016952303844690323,-0.02651376678571105,0.04487524330858141
1772618987602304300,7.34630419921875,-0.07707388733029365,-0.021313275533169508,0.017253296085260807
1772618987612335000,7.356335205078125,-0.05561199710667133,-0.03415361401438713,0.013676898903213441
1772618987622365000,7.366364990234375,-0.015395722052454947,-0.05373816605880856,-0.008680113529227674
1772618987632396300,7.376396240234375,0.03283843976259231,-0.0842165986917913,-0.0023788214279338716
1772618987642427100,7.38642724609375,0.03164016988873482,-0.07124123565405607,0.02577124132271856
1772618987652457000,7.39645703125,0.0005763385832309722,-0.050183834578096866,0.04889883626885712
1772618987662488300,7.40648828125,-0.02731295433938503,-0.040748043843358756,0.06980053532645106
1772618987672519200,7.416519287109375,-0.03047229515314102,-0.04106412405520677,0.07702204754520207
1772618987682549000,7.426549072265625,-0.023050620719790457,-0.03768105748817324,0.06554751752447337
1772618987692580000,7.436580078125,-0.004867898297309875,-0.052042029665410515,0.06915964360702782
1772618987702611200,7.446611083984375,-0.01028174003958702,-0.037675650660693644,0.05813070192933082
1772618987712641000,7.45664111328125,-0.08455576751828194,-0.01780249093323946,0.03882346898894757
1772618987722672000,7.466672119140625,-0.19031915823817253,0.00757233495041728,0.017009806185588238
1772618987732703200,7.476703125,-0.2677367444396019,0.04356923874393105,0.034518940195441244
1772618987742733000,7.486733154296875,-0.2853723543733358,0.04608282900005579,0.06880692117922008
1772618987752764200,7.49676416015625,-0.22877309979498386,0.03282382671535015,0.07670812275782227
1772618987762795300,7.506795166015625,-0.12438742716908455,0.040363720700889824,0.07761318183876574
1772618987772825000,7.5168251953125,-0.040977907076478005,0.010876783323287963,0.07727898144833743
1772618987782856200,7.526856201171875,0.027708091136813162,-0.0037049919977784154,0.07016662869248538
1772618987792887300,7.53688720703125,0.06824351514279842,-0.004536035994440317,0.06907733561843633
1772618987802917000,7.546917236328125,0.07241232526004314,-0.011540361798554659,0.05723119580633938
1772618987812948200,7.5569482421875,0.04022504288256168,-0.0010373802237212658,0.059221602438576514
1772618987822979300,7.566979248046875,-0.009270517170429229,0.028276830935478208,0.050445627319440245
1772618987833009000,7.5770087890625,-0.025161329263448714,0.030780045928061005,0.024209106572531162
1772618987843040300,7.587040283203125,-0.029877836391329765,0.0646511897392571,0.047175994531624015
1772618987853071000,7.597071044921875,0.005291676667332649,0.06930296106785536,0.0434230352062732
1772618987863101000,7.607100830078125,0.034517186629772184,0.060772887001186604,0.07529489495903254
1772618987873132300,7.61713232421875,0.09294365663528442,0.05262830512076616,0.07508545345943421
1772618987883163100,7.6271630859375,0.10609306106567382,0.062491235226392744,0.06365114585123956
1772618987893193000,7.63719287109375,0.13684417316019534,0.05662146641016006,0.07843805182296783
1772618987903224300,7.647224365234375,0.1135924769103527,0.020701865636557338,0.09044416796974837
1772618987913255200,7.657255126953125,0.08540332425832747,0.03485942419618368,0.08563687728587538
1772618987923285000,7.667284912109375,0.06410159303247928,0.04519610929340124,0.06449340536165982
1772618987933316400,7.67731640625,0.031097733575105667,0.02132788858041167,0.05846431779786944
1772618987943347200,7.68734716796875,0.012599369332194327,0.04478343683928251,0.016000190751627088
1772618987953377000,7.697376953125,0.00001695113480091095,0.05669482390731573,0.02554934220034629
1772618987963408100,7.707408203125,0.026179566395282745,0.03203735251277685,0.028686398117057976
1772618987973439200,7.717439208984375,0.04063771533668041,0.017097411403805017,0.042388504526764154
1772618987983469000,7.727468994140625,0.014303835162520408,0.003967442326247692,0.04914481038656086
1772618987993500200,7.737500244140625,-0.028670798689126968,0.01036971058398485,0.034780550273694096
1772618988003531300,7.74753125,-0.060735331469774244,0.001746697536855936,0.014981990152411162
1772618988013561000,7.75756103515625,-0.044833413460850714,0.0040296939074993135,0.037258265498839316
1772618988023592000,7.767592041015625,-0.019555764341354368,-0.006088818394392729,0.042460144990868864
1772618988033623300,7.777623291015625,-0.022445056042075157,-0.018607962097227572,0.0276334184654057
1772618988043653000,7.787653076171875,-0.03537643380761146,-0.015242138925939798,0.0248250465137884
1772618988053684000,7.79768408203125,-0.020752865171432495,-0.020889497163146732,0.012681311994604766
1772618988063715300,7.80771533203125,-0.017765958315134046,-0.014320055644959211,0.04381448220927268
1772618988073745000,7.817744873046875,-0.041433249628543854,0.0056391749307513235,0.0669709013910964
1772618988083776000,7.82777587890625,-0.04608838195800781,0.02640913736745715,0.10750040711294859
1772618988093807000,7.83780712890625,-0.06362286960482597,0.02713613646775484,0.12081837304327636
1772618988103837000,7.8478369140625,-0.02362520573735237,0.019098375962674618,0.133799069843255
1772618988113868800,7.857868896484375,0.018448679882287978,-0.010384615892171859,0.11565846952944993
1772618988123899600,7.867899658203125,0.08197276528775692,-0.00895107595771551,0.12967249143254012
1772618988133929700,7.8779296875,0.09587386486828327,-0.03189341399744153,0.12832469355277717
1772618988143960800,7.8879609375,0.10411094733774662,-0.01433423030078411,0.12439846001975238
1772618988153991700,7.89799169921875,0.04259703271090984,0.010656126309931277,0.1021253995437175
1772618988164021800,7.908021728515625,-0.0001841243952512741,0.008595832779258489,0.09581515695098787
1772618988174052600,7.918052490234375,-0.018683657681941985,0.005554711517691612,0.08989080840330571
1772618988184083700,7.928083740234375,-0.05405950696766376,0.016249562402814624,0.11766626568790524
1772618988194113800,7.93811376953125,-0.037186698099970814,-0.0003853460557758808,0.10858999244794248
1772618988204144600,7.94814453125,-0.031124037060141562,-0.04537015068605542,0.10707334080729633
1772618988214175700,7.95817578125,-0.024808862563967703,-0.026538024444133043,0.10461834887061268
1772618988224205800,7.968205810546875,-0.0615869798630476,-0.003133037328720093,0.10089929181486368
1772618988234236700,7.978236572265625,-0.08552782742083072,0.023062165027111767,0.13385726630389688
1772618988244267800,7.988267822265625,-0.08457154960930346,0.027704876266419886,0.11993041122760623
1772618988254297900,7.9982978515625,-0.045298692885041236,0.027701369135081765,0.1213148147907108
1772618988264328700,8.00832861328125,-0.0030517887860536572,-0.0013724573969841002,0.1080513189939782
1772618988274359800,8.01835986328125,0.049667994010448455,-0.021056378162652253,0.06624145460538566
1772618988284389600,8.0283896484375,0.0735515584230423,-0.04731982344910502,0.04474427387267351
1772618988294420700,8.038420654296875,0.0634644641727209,-0.06763692755177617,0.03231240659449249
1772618988304451600,8.04845166015625,0.032303017711639403,-0.04129033402651548,0.027878406202420592
1772618988314481700,8.058481689453124,0.014136661902070045,-0.01957359225898981,0.033868367332220074
1772618988324512800,8.0685126953125,-0.0002671265035867691,-0.006477379320561885,0.032070268401689826
1772618988334543600,8.078543701171874,0.017874094864726065,-0.010354659145325422,0.06537457211036235
1772618988344573700,8.08857373046875,0.06171499015688896,-0.022209785981476306,0.04982683783397078
1772618988354604800,8.098604736328125,0.08621054898798465,-0.051874271883070464,0.03405336851030588
1772618988364635600,8.1086357421875,0.07770400192737578,-0.062222355157136915,0.021043847474642097
1772618988374665700,8.118665771484375,0.011100070685148239,-0.06578793868422508,-0.011536233612708746
1772618988384696800,8.12869677734375,-0.02278641682565212,-0.07009571888074279,-0.06308657077103853
1772618988394727700,8.138727783203125,-0.030343700337409973,-0.11819777874872088,-0.08600757376179098
1772618988404757800,8.1487578125,-0.02108545812666416,-0.10081804327219725,-0.07409728267230092
1772618988414788600,8.15878857421875,0.09131985482573508,-0.017809212934970856,0.005081979439407587
1772618988424819700,8.16881982421875,0.20443068569898604,0.010990618961304426,0.1266047744249925
1772618988434849800,8.178849853515626,0.11829495551288127,-0.015747750360518693,0.19136965367179362
1772618988444880600,8.188880615234375,0.029410803401470183,0.025495821914821862,0.12473065111618488
1772618988454911700,8.198911865234376,-0.07942249628305435,-0.009275339476019143,0.02946439675223082
1772618988464941800,8.20894189453125,-0.13763152414560317,-0.06729439772441982,-0.03807210263237357
1772618988474972700,8.21897265625,-0.14862988802194593,-0.05053966227844357,-0.03181099641099572
1772618988485003800,8.229003662109376,-0.08224865961968898,-0.03130567723736167,-0.06894790055248885
1772618988495034600,8.23903466796875,0.00918809958398342,-0.03231967658549547,0.0016852496732026338
1772618988505064700,8.249064697265625,0.10289455728530883,0.011187164446711539,0.12206336813569069
1772618988515095800,8.259095703125,0.09962766444385052,0.05037015093043446,0.12301369113046676
1772618988525126700,8.269126708984375,0.09233400030434132,0.03377104443758726,0.1179325519412756
1772618988535156700,8.27915673828125,0.08777180695533753,0.010787351474165915,0.09570946808680891
1772618988545187600,8.2891875,0.06833820768892765,-0.024858985316008327,0.04623305112570524
1772618988555218700,8.29921875,-0.03248363497555256,-0.04116685377731919,0.04737805644236505
1772618988565248800,8.309248779296874,-0.07476034969091415,0.005152998849004507,0.03948302887622267
1772618988575279600,8.319279541015625,-0.0073322425842285155,0.029748949314653873,0.06662661799807101
1772618988585310700,8.329310791015626,0.054072950971126556,0.0073282970614731305,0.13722217615973203
1772618988595340800,8.3393408203125,0.08915478574633598,-0.013813567427545786,0.11433690206948667
1772618988605371600,8.34937158203125,0.03404138581156731,0.006712357120215892,0.1311041682034731
1772618988615402800,8.35940283203125,0.021709142982959746,0.03176481918171048,0.07246854895930736
1772618988625432800,8.369432861328125,-0.014499065473675727,-0.003589548924565315,0.0653944823872298
1772618988635463700,8.379463623046876,0.0006429740786552428,-0.03083732907325029,0.0036997678333893416
1772618988645494800,8.389494873046875,0.007077391040325165,-0.0419648722872138,0.03515858980584889
1772618988655524600,8.399524658203125,0.011549568018317222,-0.009635404960066079,0.057627245919220145
1772618988665555700,8.4095556640625,0.1019376949518919,0.05134805605188012,0.09194178611636161
1772618988675586800,8.4195869140625,0.13246142803132532,0.06953004782199859,0.1909866091709584
1772618988685616600,8.42961669921875,0.07936462861597537,0.03515402322858572,0.16560710711218415
1772618988695647700,8.439647705078125,0.0521364299505949,0.03216419376283884,0.13304722856264561
1772618988705678600,8.4496787109375,0.03221241681873798,0.004734919567406177,0.051828496512584386
1772618988715708700,8.459708740234374,0.03869827170670032,-0.03256795225813985,-0.020340521510876713
1772618988725739800,8.46973974609375,0.08896598517596721,-0.049517771884799,-0.05638535609934479
1772618988735770600,8.4797705078125,0.09563362637162208,-0.06107859194949269,-0.0042587534230202435
1772618988745800700,8.48980078125,0.06591185732483863,-0.07154884029850363,-0.02901095389630645
1772618988755831800,8.499831787109375,0.037060441371798515,-0.0987330536916852,-0.07597768959142268
1772618988765862700,8.509862548828124,0.03010463088452816,-0.12154197461009025,-0.07559040730688721
1772618988775892700,8.519892822265625,-0.0351221667855978,-0.1578457523956895,-0.0805799592224881
1772618988785923800,8.529923828125,-0.08161971406638621,-0.16158493892401457,-0.10013820778187364
1772618988795954700,8.53995458984375,-0.07223872225880622,-0.14480930682048201,-0.1084098135754466
1772618988805984800,8.54998486328125,-0.10166998392641544,-0.13414470494315028,-0.11546495625134556
1772618988816015600,8.560015625,-0.0665361267030239,-0.15425941834151743,-0.1483683510089293
1772618988826046700,8.570046630859375,-0.026886837881803512,-0.16553791433349252,-0.11157266152054071
1772618988836076800,8.580076904296876,-0.0789934572160244,-0.1568729618407786,-0.07654193587806075
1772618988846107600,8.590107666015625,-0.16222762074172495,-0.14734525503888726,-0.03222783358357847
1772618988856138800,8.600138671875,-0.18905016121566295,-0.09459361579939722,-0.02319620320294052
1772618988866168800,8.6101689453125,-0.15119067842066286,-0.06359583546742796,-0.011919862635433673
1772618988876199700,8.62019970703125,-0.057903322914242744,-0.02664528421089053,0.02594130065999925
1772618988886230800,8.630230712890626,0.010037994411587715,-0.037872926798462866,0.12143244982101023
1772618988896260900,8.6402607421875,0.01453121417760849,0.0003233867354691028,0.1279069795973599
1772618988906291700,8.650291748046875,0.0052080900371074676,0.008902268379926682,0.12696706839874386
1772618988916322800,8.66032275390625,-0.06581833382248878,0.016186434038728475,0.11399265520907938
1772618988926352600,8.6703525390625,-0.10302899731993674,0.01400222186744213,0.07502557649835943
1772618988936383700,8.6803837890625,-0.10267477705478667,-0.037176322836428875,0.008371084112673998
1772618988946414600,8.69041455078125,-0.09182897339165211,-0.08842559468895196,-0.029766923362761735
1772618988956444700,8.700444580078125,-0.019407880303263663,-0.14353636427521704,-0.09460596382431685
1772618988966475800,8.710475830078124,0.03935936596393585,-0.2057711405225098,-0.14900398203134535
