time,seconds_elapsed,z,y,x
1772618980330075100,0.0740751953125,-0.0037989765405654907,0.01579214259982109,0.029439983889460564
1772618980340106200,0.084106201171875,0.004098627716302872,0.011119361966848373,0.021995650604367256
1772618980350137300,0.094137451171875,0.005654520820826292,-0.003745666006579995,0.015947453677654266
1772618980360167200,0.104167236328125,0.009358711540699005,-0.029035311192274094,0.012645134702324867
1772618980370198300,0.1141982421875,0.015126636251807213,-0.04541175067424774,0.0041566467843949795
1772618980380229000,0.12422900390625,0.015301872044801712,-0.05261427164077759,0.007097575347870588
1772618980390259200,0.13425927734375,0.013580305501818657,-0.05030371621251106,0.010293223895132542
1772618980400290300,0.144290283203125,0.011055095121264458,-0.03722013905644417,0.012110299430787563
1772618980410321200,0.154321044921875,0.0134982168674469,-0.007592726498842239,0.010744119994342327
1772618980420351200,0.164351318359375,0.01848924532532692,0.009800911881029606,0.011947868391871452
1772618980430382300,0.17438232421875,0.028553757816553116,0.009585237130522728,0.01097473781555891
1772618980440413200,0.1844130859375,0.03995715081691742,0.0001640385016798973,0.01485469751060009
1772618980450443300,0.194443359375,0.0470845103263855,-0.006792441010475159,0.019069302827119827
1772618980460474400,0.204474365234375,0.0493420735001564,-0.02172824740409851,0.023082686588168144
1772618980470505200,0.214505126953125,0.05161627382040024,-0.029437856748700142,0.01981387846171856
1772618980480535300,0.224535400390625,0.05512046068906784,-0.04235418513417244,0.007758813910186291
1772618980490566100,0.234566162109375,0.05475268512964249,-0.05180685967206955,-0.007409886457026005
1772618980500597200,0.24459716796875,0.05921721085906029,-0.054856445640325546,-0.023503368720412254
1772618980510627300,0.25462744140625,0.05895070731639862,-0.06002916395664215,-0.033592380583286285
1772618980520658200,0.264658203125,0.06284690648317337,-0.06575975567102432,-0.034070149064064026
1772618980530689300,0.274689208984375,0.06156789883971214,-0.07968861609697342,-0.03337705507874489
1772618980540719400,0.28471923828125,0.07063889503479004,-0.09634881466627121,-0.026271209120750427
1772618980550750200,0.294750244140625,0.07657619565725327,-0.13226273655891418,-0.025780849158763885
1772618980560780000,0.304780029296875,0.08143113553524017,-0.18787699937820435,-0.025004005059599876
1772618980570811400,0.314811279296875,0.0814819484949112,-0.255260705947876,-0.021152079105377197
1772618980580842200,0.32484228515625,0.07485094666481018,-0.2969982922077179,-0.012296536937355995
1772618980590872000,0.3348720703125,0.06492868810892105,-0.2925798296928406,-0.0018945024348795414
1772618980600903200,0.344903076171875,0.05419827997684479,-0.2569997012615204,-0.0053313118405640125
1772618980610934300,0.354934326171875,0.049191687256097794,-0.19386960566043854,-0.025745555758476257
1772618980620964000,0.364964111328125,0.050342172384262085,-0.13298894464969635,-0.056836094707250595
1772618980630995200,0.3749951171875,0.048422135412693024,-0.0863063782453537,-0.0827770084142685
1772618980641026300,0.3850263671875,0.048792049288749695,-0.06256642937660217,-0.09284135699272156
1772618980651056000,0.39505615234375,0.04546624422073364,-0.052330970764160156,-0.08472491800785065
1772618980661087200,0.405087158203125,0.0480889268219471,-0.05461516231298447,-0.06067577004432678
1772618980671118300,0.415118408203125,0.04497004672884941,-0.05927290394902229,-0.03930610418319702
1772618980681148200,0.425148193359375,0.04328266531229019,-0.0695955827832222,-0.03568260744214058
1772618980691179000,0.435178955078125,0.03991350159049034,-0.07464919239282608,-0.033485498279333115
1772618980701210400,0.44521044921875,0.03707190975546837,-0.060482777655124664,-0.032040469348430634
1772618980711240000,0.455239990234375,0.033035457134246826,-0.03171423822641373,-0.03094816394150257
1772618980721271000,0.46527099609375,0.022186005488038063,-0.01076821144670248,-0.030144954100251198
1772618980731302100,0.47530224609375,0.019582899287343025,0.007189457770437002,-0.03194902837276459
1772618980741332000,0.48533203125,0.014249388128519058,0.014617545530200005,-0.028904234990477562
1772618980751363000,0.495363037109375,0.012088261544704437,0.011683030053973198,-0.023402772843837738
1772618980761394200,0.505394287109375,0.006647157017141581,0.00006871717050671577,-0.01632009632885456
1772618980771424000,0.515424072265625,0.0014905554708093405,0.0021182242780923843,-0.008435167372226715
1772618980781455000,0.525455078125,-0.0032711769454181194,0.0065172333270311356,0.002275533741340041
1772618980791486200,0.535486328125,-0.011962821707129478,0.012856213375926018,0.0024183294735848904
1772618980801516000,0.54551611328125,-0.012182001024484634,0.019824640825390816,0.00015517498832195997
1772618980811547100,0.555547119140625,-0.012424297630786896,0.03314404562115669,-0.013349909335374832
1772618980821578200,0.565578125,-0.009763799607753754,0.031950149685144424,-0.028361082077026367
1772618980831608000,0.575608154296875,-0.016699038445949554,0.01716320775449276,-0.04407067969441414
1772618980841639200,0.58563916015625,-0.02118140459060669,0.006390454713255167,-0.0555046945810318
1772618980851670300,0.595670166015625,-0.029223181307315826,0.0003685080446302891,-0.05533653125166893
1772618980861700000,0.6057001953125,-0.03959432989358902,0.003689203877002001,-0.05280599370598793
1772618980871731000,0.61573095703125,-0.04085669666528702,0.011639470234513283,-0.04313982278108597
1772618980881762300,0.62576220703125,-0.04475849121809006,0.022654570639133453,-0.037999656051397324
1772618980891792100,0.635792236328125,-0.04236215353012085,0.02641076035797596,-0.03671703860163689
1772618980901823000,0.645822998046875,-0.03953947126865387,0.01907401904463768,-0.03808297589421272
1772618980911854300,0.655854248046875,-0.03211984038352966,0.008833719417452812,-0.028087662532925606
1772618980921884200,0.66588427734375,-0.03262397646903992,0.0011345203965902328,-0.018498685210943222
1772618980931915000,0.6759150390625,-0.03152017667889595,-0.006979536730796099,-0.0068405382335186005
1772618980941945000,0.685945068359375,-0.03344643861055374,-0.0125050637871027,0.004143669735640287
1772618980951976000,0.695975830078125,-0.03557014465332031,-0.009667204692959785,0.009619783610105515
1772618980962007000,0.706007080078125,-0.03244972229003906,-0.004514520522207022,0.0028380434960126877
1772618980972037000,0.716037109375,-0.02972118742763996,0.002240395173430443,-0.00551558006554842
1772618980982068000,0.72606787109375,-0.029752345755696297,0.009636260569095612,-0.011884529143571854
1772618980992099000,0.73609912109375,-0.029466163367033005,0.008786054328083992,-0.0186103954911232
1772618981002129200,0.746129150390625,-0.030304525047540665,0.002686616498976946,-0.01577998697757721
1772618981012160000,0.756159912109375,-0.031621430069208145,0.0015890966169536114,-0.013216884806752205
1772618981022191000,0.766191162109375,-0.02588258683681488,0.012279024347662926,-0.00018949992954730988
1772618981032221200,0.77622119140625,-0.0280978512018919,0.019566847011446953,0.007060219068080187
1772618981042252000,0.786251953125,-0.022402146831154823,0.023799408227205276,0.023021342232823372
1772618981052283100,0.796283203125,-0.01900283806025982,0.03058634325861931,0.03414996713399887
1772618981062313000,0.80631298828125,-0.013121780008077621,0.028225984424352646,0.03708583489060402
1772618981072344000,0.816343994140625,-0.012211538851261139,0.02218644693493843,0.03700949624180794
1772618981082375200,0.826375244140625,-0.019159726798534393,0.02921639382839203,0.02311605215072632
1772618981092405000,0.836405029296875,-0.02958371303975582,0.04517056792974472,0.011806312948465347
1772618981102435800,0.846435791015625,-0.04099216312170029,0.08005664497613907,-0.0017198825953528285
1772618981112466700,0.856466796875,-0.05010070651769638,0.12517352402210236,-0.019545219838619232
1772618981122496800,0.866496826171875,-0.05333804711699486,0.16163113713264465,-0.028718743473291397
1772618981132527900,0.87652783203125,-0.06399289518594742,0.1816369891166687,-0.040391840040683746
1772618981142558700,0.886558837890625,-0.07454434037208557,0.19422733783721924,-0.04528912901878357
1772618981152588800,0.8965888671875,-0.08269865065813065,0.1988820731639862,-0.03634752705693245
1772618981162620000,0.906619873046875,-0.09613536298274994,0.19360342621803284,-0.010387299582362175
1772618981172650800,0.916650634765625,-0.10214748233556747,0.19948475062847137,0.019681483507156372
1772618981182680800,0.926680908203125,-0.09817750751972198,0.19961923360824585,0.03599041327834129
1772618981192712000,0.9367119140625,-0.10000160336494446,0.19358685612678528,0.04960900917649269
1772618981202742800,0.94674267578125,-0.08748314529657364,0.17580199241638184,0.05256272107362747
1772618981212772900,0.95677294921875,-0.07621732354164124,0.15306350588798523,0.040241390466690063
1772618981222803700,0.9668037109375,-0.06883877515792847,0.1327212154865265,0.032250843942165375
1772618981232834800,0.976834716796875,-0.06156712770462036,0.10529986023902893,0.031184997409582138
1772618981242865000,0.986864990234375,-0.051287323236465454,0.08927828073501587,0.035201042890548706
1772618981252895700,0.996895751953125,-0.044806040823459625,0.06806953251361847,0.03924737870693207
1772618981262926800,1.0069267578125,-0.034403733909130096,0.04236310347914696,0.04511139169335365
1772618981272957000,1.01695703125,-0.025246035307645798,0.01890532299876213,0.03824597969651222
1772618981282987800,1.02698779296875,-0.024800755083560944,0.0039133247919380665,0.033934853971004486
1772618981293019000,1.037018798828125,-0.02431088499724865,0.016412995755672455,0.032729823142290115
1772618981303049000,1.047049072265625,-0.01860000193119049,0.03984162211418152,0.037962138652801514
1772618981313079800,1.057079833984375,-0.020380059257149696,0.04013669863343239,0.02698378637433052
1772618981323111000,1.06711083984375,-0.015150941908359528,0.02902306243777275,0.022421259433031082
1772618981333140700,1.077140625,-0.010139331221580505,0.015737289562821388,0.015317652374505997
1772618981343171800,1.087171875,0.0006198398768901825,-0.006174667272716761,0.009014483541250229
1772618981353203000,1.097202880859375,0.0031698860693722963,-0.018203379586338997,0.010504497215151787
1772618981363232800,1.107232666015625,0.00689857779070735,-0.025049833580851555,0.011087729595601559
1772618981373264000,1.117263916015625,-0.005693524610251188,-0.017769210040569305,0.01596256159245968
1772618981383293700,1.127293701171875,-0.02112840861082077,0.020439429208636284,0.020260369405150414
1772618981393324800,1.13732470703125,-0.038115061819553375,0.06881002336740494,0.02396569773554802
1772618981403356000,1.14735595703125,-0.05500030517578125,0.1063438206911087,0.02006922848522663
1772618981413385700,1.1573857421875,-0.06587137281894684,0.132812038064003,0.012249848805367947
1772618981423416800,1.167416748046875,-0.07076253741979599,0.13850614428520203,0.011724673211574554
1772618981433448000,1.177447998046875,-0.07129427045583725,0.12355437874794006,0.01349874958395958
1772618981443477500,1.1874775390625,-0.06744574010372162,0.1038440465927124,0.019170483574271202
1772618981453508900,1.1975087890625,-0.06880725920200348,0.07464075833559036,0.03083108179271221
1772618981463539700,1.207539794921875,-0.07162754237651825,0.05438502877950668,0.04582387953996658
1772618981473569500,1.217569580078125,-0.07162719964981079,0.050094880163669586,0.05967482551932335
1772618981483601000,1.227600830078125,-0.07996529340744019,0.045564308762550354,0.06703100353479385
1772618981493631700,1.2376318359375,-0.08907908201217651,0.044366255402565,0.06395414471626282
1772618981503661600,1.24766162109375,-0.09716151654720306,0.04676336795091629,0.058689601719379425
1772618981513693000,1.25769287109375,-0.09729079157114029,0.05920260399580002,0.04248395189642906
1772618981523723800,1.267723876953125,-0.09361483156681061,0.06844083964824677,0.030666176229715347
1772618981533753600,1.277753662109375,-0.09047981351613998,0.06973713636398315,0.01467515341937542
1772618981543785000,1.287784912109375,-0.08590157330036163,0.07085593044757843,0.00977067556232214
1772618981553815800,1.29781591796875,-0.08281929045915604,0.06572908908128738,0.001173215452581644
1772618981563845600,1.307845703125,-0.07797154039144516,0.04787339270114899,-0.003479326842352748
1772618981573876700,1.317876708984375,-0.0661792978644371,0.02081254869699478,-0.0004707180196419358
1772618981583907800,1.327907958984375,-0.051225386559963226,-0.006946909707039595,0.016582302749156952
1772618981593937700,1.337937744140625,-0.03473830223083496,-0.03857829049229622,0.022479208186268806
1772618981603968500,1.347968505859375,-0.024748515337705612,-0.06383730471134186,0.025966085493564606
1772618981613999900,1.357999755859375,-0.024046748876571655,-0.06882134079933167,0.01693880371749401
1772618981624029700,1.36802978515625,-0.031018905341625214,-0.07086798548698425,0.008885137736797333
1772618981634060500,1.378060546875,-0.036309950053691864,-0.05042681470513344,-0.0020043461117893457
1772618981644092000,1.388091796875,-0.036809291690588,-0.02685464546084404,-0.005738364066928625
1772618981654121700,1.398121826171875,-0.034273792058229446,-0.007990370504558086,-0.011217301711440086
1772618981664152600,1.408152587890625,-0.02074120193719864,0.001334155909717083,-0.007800998166203499
1772618981674182700,1.4181826171875,-0.008493499830365181,-0.006431081797927618,-0.00705117080360651
1772618981684213800,1.4282138671875,0.0033682198263704777,-0.02258448489010334,0.0047008260153234005
1772618981694244600,1.43824462890625,0.007369546685367823,-0.0381367988884449,0.021305128931999207
1772618981704274700,1.448274658203125,0.0076664891093969345,-0.0513005368411541,0.034303221851587296
1772618981714305500,1.458305419921875,0.0013926641549915075,-0.05644695833325386,0.057210203260183334
1772618981724336600,1.468336669921875,-0.009740946814417839,-0.05311401188373566,0.07401768118143082
1772618981734366700,1.47836669921875,-0.0223834291100502,-0.050689004361629486,0.08526618033647537
1772618981744397600,1.4883974609375,-0.03743961080908775,-0.05972857028245926,0.10361243039369583
1772618981754428700,1.4984287109375,-0.04518955945968628,-0.07004579901695251,0.11920102685689926
1772618981764458800,1.508458740234375,-0.05327252298593521,-0.09111645817756653,0.12201519310474396
1772618981774489600,1.518489501953125,-0.05680544674396515,-0.11279985308647156,0.11277005821466446
1772618981784520700,1.528520751953125,-0.059976737946271896,-0.11699379980564117,0.10097198933362961
1772618981794550800,1.53855078125,-0.055243805050849915,-0.09808900207281113,0.07827339321374893
1772618981804581600,1.54858154296875,-0.058869168162345886,-0.08518252521753311,0.04024931415915489
1772618981814612700,1.55861279296875,-0.054478373378515244,-0.03746488317847252,0.008791734464466572
1772618981824642600,1.568642578125,-0.05097871646285057,-0.000855474267154932,-0.011147885583341122
1772618981834673700,1.578673583984375,-0.05384214594960213,0.017567742615938187,-0.020641256123781204
1772618981844704500,1.58870458984375,-0.052813101559877396,0.01577729918062687,-0.01839195005595684
1772618981854734600,1.598734619140625,-0.05524686351418495,0.006539331283420324,-0.00501767685636878
1772618981864765700,1.608765625,-0.050635598599910736,-0.011780287139117718,0.008467505685985088
1772618981874796500,1.618796630859375,-0.05048486962914467,-0.03203481063246727,0.013413087464869022
1772618981884826600,1.62882666015625,-0.049506157636642456,-0.05271851643919945,0.02208567038178444
1772618981894857700,1.638857666015625,-0.045700035989284515,-0.055691491812467575,0.017248105257749557
1772618981904888600,1.648888671875,-0.03642211854457855,-0.054783351719379425,0.016860082745552063
1772618981914918700,1.658918701171875,-0.03517254441976547,-0.0407450832426548,0.014466828666627407
1772618981924949800,1.66894970703125,-0.031636398285627365,-0.018310612067580223,0.008815335109829903
1772618981934980600,1.678980712890625,-0.030301332473754883,0.004867746029049158,0.007842251099646091
1772618981945010700,1.6890107421875,-0.024358488619327545,0.018413381651043892,0.00735169742256403
1772618981955041500,1.69904150390625,-0.020175060257315636,0.017710767686367035,0.009955025278031826
1772618981965072600,1.70907275390625,-0.013719556853175163,0.008152414113283157,0.01253829151391983
1772618981975102700,1.719102783203125,-0.0023481352254748344,-0.011413780972361565,0.01714489609003067
1772618981985133600,1.729133544921875,0.00763658806681633,-0.029990127310156822,0.023025421425700188
1772618981995164700,1.73916455078125,0.013969176448881626,-0.04237455129623413,0.03461514785885811
1772618982005194800,1.74919482421875,0.010868458077311516,-0.03850977122783661,0.03388331085443497
1772618982015225600,1.7592255859375,0.009314331226050854,-0.023324105888605118,0.035636480897665024
1772618982025255700,1.769255615234375,0.0036109054926782846,-0.0018121562898159027,0.03320688009262085
1772618982035286800,1.779286865234375,0.0040175942704081535,0.01197536289691925,0.024560963734984398
1772618982045317600,1.789317626953125,0.002864445559680462,0.015689672902226448,0.01620795950293541
1772618982055347700,1.79934765625,0.006956424564123154,0.025173306465148926,0.007966971024870872
1772618982065378600,1.809378662109375,0.019170746207237244,0.02622472122311592,0.015642734244465828
1772618982075409700,1.81940966796875,0.028316106647253036,0.01752592995762825,0.033389754593372345
1772618982085439700,1.829439697265625,0.039026807993650436,-0.003223024308681488,0.05348330736160278
1772618982095470600,1.839470703125,0.05272768437862396,-0.03555146977305412,0.07718460261821747
1772618982105502200,1.849502197265625,0.06017947196960449,-0.0504678338766098,0.10174080729484558
1772618982115532000,1.859531982421875,0.06295754015445709,-0.05094793066382408,0.12065157294273376
1772618982125563100,1.869563232421875,0.06616584956645966,-0.0342634916305542,0.1256902664899826
1772618982135594200,1.87959423828125,0.06238454580307007,-0.019623173400759697,0.11538548022508621
1772618982145624000,1.8896240234375,0.0534118227660656,-0.005643441341817379,0.09697744250297546
1772618982155655200,1.8996552734375,0.043767333030700684,0.004211510997265577,0.07860065251588821
1772618982165686000,1.90968603515625,0.03756216913461685,0.01862693578004837,0.06559883058071136
1772618982175716000,1.919716064453125,0.033014699816703796,0.039226364344358444,0.052801765501499176
1772618982185747200,1.929747314453125,0.03537265956401825,0.05145639926195145,0.046356912702322006
1772618982195778000,1.939778076171875,0.03462768346071243,0.040783461183309555,0.047961991280317307
1772618982205808000,1.94980810546875,0.029585253447294235,0.01714710332453251,0.05808892473578453
1772618982215839200,1.959839111328125,0.025912046432495117,-0.003246794454753399,0.07543729990720749
1772618982225870000,1.9698701171875,0.02508300542831421,-0.017470205202698708,0.0873461589217186
1772618982235900200,1.979900146484375,0.030663102865219116,-0.009244567714631557,0.08834906667470932
1772618982245931300,1.98993115234375,0.04308914393186569,-0.007465309463441372,0.08171886205673218
1772618982255962000,1.999962158203125,0.050307497382164,-0.016582252457737923,0.07137812674045563
1772618982265992200,2.0099921875,0.05236212536692619,-0.032174527645111084,0.06497614830732346
1772618982276023000,2.02002294921875,0.04940524697303772,-0.044638633728027344,0.06230490654706955
1772618982286054100,2.03005419921875,0.04007299989461899,-0.05582763999700546,0.05388292670249939
1772618982296084200,2.040084228515625,0.025803541764616966,-0.06257841736078262,0.052140720188617706
1772618982306115000,2.050114990234375,0.017387686297297478,-0.0692879855632782,0.0401836596429348
1772618982316146200,2.060146240234375,0.020230580121278763,-0.07280630618333817,0.029217390343546867
1772618982326176300,2.07017626953125,0.0181016493588686,-0.06127322092652321,0.022579727694392204
1772618982336207000,2.08020703125,0.014494376257061958,-0.04107246175408363,0.022661052644252777
1772618982346237200,2.0902373046875,0.017362069338560104,-0.008617051877081394,0.028802568092942238
1772618982356268300,2.100268310546875,0.020682498812675476,0.01213989220559597,0.035942502319812775
1772618982366299100,2.110299072265625,0.023243658244609833,0.010720958933234215,0.03348493576049805
1772618982376329200,2.1203291015625,0.02797774039208889,-0.015269976109266281,0.02205245941877365
1772618982386360000,2.130360107421875,0.0306257214397192,-0.053990740329027176,0.014224628917872906
1772618982396391200,2.14039111328125,0.031980760395526886,-0.08295894414186478,0.013491498306393623
1772618982406421200,2.150421142578125,0.029077649116516113,-0.10434545576572418,0.019021285697817802
1772618982416452000,2.1604521484375,0.022791609168052673,-0.11432123929262161,0.03419914469122887
1772618982426483200,2.170483154296875,0.017186986282467842,-0.10057613253593445,0.052728354930877686
1772618982436513300,2.18051318359375,0.007419106550514698,-0.0702376738190651,0.050398070365190506
1772618982446544100,2.190544189453125,0.003485617693513632,-0.04133652150630951,0.03419060260057449
1772618982456575200,2.2005751953125,0.0017944606952369213,-0.03386488929390907,0.01515398919582367
1772618982466605300,2.210605224609375,0.002519639441743493,-0.03215806931257248,0.002232864499092102
1772618982476636200,2.22063623046875,0.011401522904634476,-0.04726305603981018,0.01290411502122879
1772618982486667300,2.230667236328125,0.01612650416791439,-0.0659392699599266,0.038929589092731476
1772618982496697000,2.240697021484375,0.024352669715881348,-0.08907143026590347,0.0791591927409172
1772618982506728200,2.250728271484375,0.027589209377765656,-0.10431989282369614,0.11573531478643417
1772618982516759000,2.260759033203125,0.040035489946603775,-0.11144331097602844,0.13156592845916748
1772618982526789000,2.2707890625,0.04618952423334122,-0.11215677112340927,0.14128807187080383
1772618982536820200,2.2808203125,0.05282784253358841,-0.10359596461057663,0.13588176667690277
1772618982546851000,2.29085107421875,0.052138082683086395,-0.08914405852556229,0.12828004360198975
1772618982556881200,2.300881103515625,0.05270218849182129,-0.0737157016992569,0.12091515213251114
1772618982566912300,2.310912353515625,0.06131085753440857,-0.056347090750932693,0.10376252979040146
1772618982576943000,2.320943115234375,0.06471752375364304,-0.034672293812036514,0.09094971418380737
1772618982586973200,2.33097314453125,0.06897085905075073,-0.021266739815473557,0.08332402259111404
1772618982597004300,2.34100439453125,0.07401813566684723,-0.01837329752743244,0.07955346256494522
1772618982607035100,2.35103515625,0.07727411389350891,-0.02503359690308571,0.07989887148141861
1772618982617065200,2.361065185546875,0.07582148164510727,-0.034765295684337616,0.0838710218667984
1772618982627096000,2.371095947265625,0.07474210113286972,-0.055086009204387665,0.08349897712469101
1772618982637127200,2.381127197265625,0.06691083312034607,-0.07983066141605377,0.07422415912151337
1772618982647157200,2.3911572265625,0.06955934315919876,-0.0877666026353836,0.07028374820947647
1772618982657188000,2.40118798828125,0.07360267639160156,-0.08021248131990433,0.06684499233961105
1772618982667218200,2.41121826171875,0.07259093970060349,-0.07146798819303513,0.0686492845416069
1772618982677249300,2.421249267578125,0.07497415691614151,-0.05943809449672699,0.07207988947629929
1772618982687280000,2.431280029296875,0.07168622314929962,-0.05232265964150429,0.07725147902965546
1772618982697310200,2.441310302734375,0.06524940580129623,-0.04292475804686546,0.07088154554367065
1772618982707341300,2.45134130859375,0.05921415239572525,-0.03639522194862366,0.058251768350601196
1772618982717372200,2.4613720703125,0.05274173244833946,-0.028389951214194298,0.03712429106235504
1772618982727402200,2.47140234375,0.04383452609181404,-0.021254010498523712,0.01779240556061268
1772618982737433000,2.48143310546875,0.03949533402919769,-0.0250447615981102,0.004155545495450497
1772618982747464200,2.491464111328125,0.027726825326681137,-0.02914949133992195,-0.0038336715660989285
1772618982757494300,2.501494384765625,0.019266031682491302,-0.038466840982437134,-0.0038222442381083965
1772618982767525000,2.511525146484375,0.013392696157097816,-0.028297025710344315,-0.002027007518336177
1772618982777556200,2.52155615234375,0.008018436841666698,-0.01431223563849926,-0.005674206651747227
1772618982787586300,2.53158642578125,0.011232872493565083,-0.001735723577439785,0.000858527491800487
1772618982797617200,2.5416171875,0.005474008619785309,-0.0030669565312564373,-0.0009992329869419336
1772618982807648300,2.551648193359375,0.0010875160805881023,-0.018577739596366882,-0.006044325418770313
1772618982817678300,2.56167822265625,-0.003301955759525299,-0.0156507957726717,-0.0005396437481977046
1772618982827709200,2.571709228515625,-0.006758472882211208,-0.012436360120773315,0.003297172486782074
1772618982837740300,2.581740234375,-0.01510700024664402,-0.009412476792931557,0.0013316870899870992
1772618982847770000,2.59177001953125,-0.015862805768847466,-0.00036199064925312996,-0.004145369865000248
1772618982857801200,2.60180126953125,-0.015051580965518951,-0.00033049657940864563,-0.008541679941117764
1772618982867832000,2.61183203125,-0.016340283676981926,-0.0075559187680482864,-0.015501052141189575
1772618982877862100,2.621862060546875,-0.015029357746243477,-0.016158338636159897,-0.0084047457203269
1772618982887893200,2.631893310546875,-0.0130037572234869,-0.016037963330745697,0.003500649705529213
1772618982897924000,2.641924072265625,-0.009970754384994507,-0.010847401805222034,0.017179599031805992
1772618982907954200,2.6519541015625,-0.002613239921629429,-0.008990911766886711,0.03204350173473358
1772618982917985300,2.6619853515625,0.008853169158101082,-0.015430223196744919,0.03831709921360016
1772618982928016100,2.67201611328125,0.02371200919151306,-0.033224932849407196,0.04498085752129555
1772618982938046200,2.682046142578125,0.037146519869565964,-0.05377648398280144,0.04929107800126076
1772618982948077300,2.692077392578125,0.04326566308736801,-0.07825253903865814,0.050541698932647705
1772618982958108200,2.702108154296875,0.04035027697682381,-0.09804628044366837,0.04030047357082367
1772618982968138200,2.71213818359375,0.02816098928451538,-0.1079588308930397,0.012725306674838066
1772618982978169000,2.722169189453125,0.010651746764779091,-0.08815722912549973,-0.018701894208788872
1772618982988200200,2.7322001953125,-0.0022842916660010815,-0.0666026771068573,-0.04143144190311432
1772618982998230300,2.742230224609375,-0.012280598282814026,-0.03910284489393234,-0.050864048302173615
1772618983008261000,2.75226123046875,-0.011538375169038773,-0.011966032907366753,-0.04734308272600174
1772618983018291200,2.762291259765625,-0.006109026726335287,0.021313074976205826,-0.03137413412332535
1772618983028322300,2.772322265625,0.006173738278448582,0.03975173458456993,-0.009638745337724686
1772618983038353200,2.782353271484375,0.01419343613088131,0.0401017963886261,0.010109173133969307
1772618983048383200,2.79238330078125,0.024744614958763123,0.0191672220826149,0.025756044313311577
1772618983058414300,2.802414306640625,0.029627256095409393,-0.010816823691129684,0.033354975283145905
1772618983068445200,2.812445068359375,0.027429882436990738,-0.038262829184532166,0.03138343617320061
1772618983078475300,2.822475341796875,0.0221010223031044,-0.05879563093185425,0.023333409801125526
1772618983088506000,2.832506103515625,0.011126402765512466,-0.05948059633374214,0.010743050836026669
1772618983098537200,2.842537109375,0.0019359719008207321,-0.0370132252573967,-0.005702546332031488
1772618983108567600,2.852567626953125,-0.0043469578959047794,-0.0057359966449439526,-0.015137061476707458
1772618983118598400,2.862598388671875,-0.006754727102816105,0.02140304632484913,-0.026232628151774406
1772618983128629500,2.87262939453125,-0.008199225179851055,0.031049547716975212,-0.028555704280734062
1772618983138659600,2.88265966796875,-0.00400389451533556,0.02548278123140335,-0.018044892698526382
1772618983148690400,2.8926904296875,-0.0017774919979274273,0.01878652721643448,-0.0011711043771356344
1772618983158721500,2.902721435546875,0.0010601540561765432,0.012167641893029213,0.015807153657078743
1772618983168751400,2.91275146484375,0.006148123182356358,0.003660708200186491,0.023202484473586082
1772618983178782500,2.922782470703125,0.011453503742814064,-0.0015998277813196182,0.016182804480195045
1772618983188813600,2.9328134765625,0.014909755438566208,-0.008782639168202877,0.0010645719012245536
1772618983198843400,2.942843505859375,0.009261023253202438,-0.011008236557245255,-0.010437210090458393
1772618983208874500,2.95287451171875,-0.0008057248778641224,-0.009846832603216171,-0.020363077521324158
1772618983218905300,2.9629052734375,-0.004822887480258942,0.007189320866018534,-0.027462473139166832
1772618983228935400,2.972935302734375,-0.011487448588013649,0.01617562584578991,-0.034700676798820496
1772618983238966500,2.982966552734375,-0.010526529513299465,0.02194065786898136,-0.03836125135421753
1772618983248997400,2.992997314453125,-0.006726464256644249,0.015092872083187103,-0.037258703261613846
1772618983259027500,3.00302734375,-0.003079825546592474,0.010157215408980846,-0.025399552658200264
1772618983269058600,3.01305859375,0.007195981219410896,-0.00013483641669154167,-0.007185927126556635
1772618983279089400,3.02308935546875,0.007301514036953449,-0.011444809846580029,0.005207469686865807
1772618983289119500,3.033119384765625,0.011519961059093475,-0.02832605503499508,0.005666065961122513
1772618983299150600,3.043150634765625,0.016522176563739777,-0.030767906457185745,-0.000935644144192338
1772618983309181400,3.053181396484375,0.01972356252372265,-0.025887398049235344,-0.007806066889315844
1772618983319211500,3.06321142578125,0.014403318986296654,-0.01645302027463913,-0.016357550397515297
1772618983329242400,3.073242431640625,0.009911097586154938,-0.001840522512793541,-0.028090639039874077
1772618983339272400,3.0832724609375,0.00508041400462389,0.001123377587646246,-0.02982085756957531
1772618983349303600,3.093303466796875,-0.0037434371188282967,0.00940500944852829,-0.02669217623770237
1772618983359334400,3.10333447265625,-0.00860789604485035,0.007294925861060619,-0.017770476639270782
1772618983369364500,3.113364501953125,-0.007025711704045534,0.009240364655852318,-0.007521035615354776
1772618983379395600,3.1233955078125,0.0010884813964366913,0.007201919797807932,0.000007030670531094074
1772618983389426400,3.133426513671875,0.004802259616553783,-0.004001732915639877,-0.00017433054745197296
1772618983399456500,3.14345654296875,0.008992718532681465,-0.012758273631334305,-0.0038857480976730585
1772618983409487400,3.1534873046875,0.014278827235102654,-0.007755526341497898,0.009852700866758823
1772618983419518500,3.1635185546875,0.012098061852157116,-0.00983300432562828,0.027439426630735397
1772618983429548500,3.173548583984375,0.015488531440496445,-0.009969357401132584,0.037294454872608185
1772618983439579400,3.183579345703125,0.016270633786916733,-0.009997792541980743,0.04269257187843323
1772618983449610500,3.193610595703125,0.015585135668516159,-0.008154884912073612,0.04883941635489464
1772618983459640600,3.203640625,0.009004062041640282,-0.002134953625500202,0.05293167009949684
1772618983469671400,3.21367138671875,0.0019629301968961954,0.0148197952657938,0.05516979098320007
1772618983479702500,3.22370263671875,-0.0026608863845467567,0.03163328394293785,0.057191234081983566
1772618983489732600,3.233732666015625,-0.0005428744480013847,0.037726860493421555,0.04338354244828224
1772618983499763500,3.243763427734375,0.003218719270080328,0.03356342017650604,0.02954757586121559
1772618983509794600,3.253794677734375,0.010674238204956055,0.02913750894367695,0.027691885828971863
1772618983519824400,3.263824462890625,0.011563301086425781,0.02970290556550026,0.02538386918604374
1772618983529855500,3.27385546875,0.010879933834075928,0.028036300092935562,0.03056664578616619
1772618983539886600,3.283886474609375,0.010079796425998211,0.026081999763846397,0.035861626267433167
1772618983549916400,3.29391650390625,0.011386343277990818,0.030157698318362236,0.0356975756585598
1772618983559947500,3.303947509765625,0.013080189935863018,0.03068712167441845,0.03294863551855087
1772618983569978400,3.313978271484375,0.010920099914073944,0.02804100327193737,0.025856904685497284
1772618983580008400,3.324008544921875,0.007940809242427349,0.0300360806286335,0.013761854730546474
1772618983590039600,3.33403955078125,0.006551438011229038,0.033984746783971786,0.0026905613485723734
1772618983600070400,3.3440703125,0.007854918949306011,0.027845339849591255,-0.0008648040238767862
1772618983610100500,3.3541005859375,0.010684527456760406,0.017429715022444725,-0.004286965820938349
1772618983620131600,3.364131591796875,0.01630750671029091,0.006654181983321905,-0.0029116130899637938
1772618983630162400,3.374162353515625,0.02160639874637127,-0.013044421561062336,-0.0028620781376957893
1772618983640192500,3.384192626953125,0.024876177310943604,-0.031941283494234085,-0.0005329496925696731
1772618983650223600,3.3942236328125,0.017134368419647217,-0.03715282306075096,0.005422411020845175
1772618983660254500,3.40425439453125,0.009091715328395367,-0.03617485612630844,0.007693832740187645
1772618983670284500,3.414284423828125,-0.0016762437298893929,-0.028666872531175613,0.0032892313320189714
1772618983680315400,3.4243154296875,-0.006486236583441496,-0.017266303300857544,-0.0026698431465774775
1772618983690346500,3.434346435546875,-0.009941687807440758,-0.0015991940163075924,-0.010302995331585407
1772618983700376600,3.44437646484375,-0.010044814087450504,0.011132081970572472,-0.013881813734769821
1772618983710407400,3.454407470703125,-0.0075486330315470695,0.012837572023272514,-0.0171351321041584
1772618983720437200,3.464437255859375,-0.004191259853541851,0.014809170737862587,-0.003086799755692482
1772618983730468600,3.474468505859375,-0.0038407882675528526,0.0059160771779716015,0.009792514145374298
1772618983740499500,3.48449951171875,-0.0030165808275341988,-0.002581094391644001,0.015087731182575226
1772618983750529300,3.494529296875,0.0013605908025056124,-0.0058786203153431416,0.014975612983107567
1772618983760560600,3.504560546875,0.0002265418879687786,-0.0019251913763582706,0.010197796858847141
1772618983770591500,3.514591552734375,0.00004811026155948639,-0.0054296450689435005,-0.0022226532455533743
1772618983780621300,3.524621337890625,-0.003715568222105503,-0.004938516765832901,-0.009571393951773643
1772618983790652400,3.53465234375,-0.010387319140136242,0.006695502437651157,-0.010836661793291569
1772618983800683500,3.54468359375,-0.012648273259401321,0.0071013071574270725,-0.009340654127299786
1772618983810713300,3.55471337890625,-0.011447986587882042,0.006265873555094004,-0.003405533265322447
1772618983820744400,3.564744384765625,-0.005366125609725714,0.005167318973690271,0.004191932734102011
1772618983830775600,3.574775634765625,-0.0034667584113776684,0.0019124043174088001,0.009079898707568645
1772618983840805400,3.584805419921875,-0.004478457849472761,0.004195912275463343,0.014763247221708298
1772618983850836500,3.59483642578125,-0.005317619536072016,0.006754678208380938,0.017463158816099167
1772618983860867600,3.60486767578125,-0.006584302522242069,0.014264008030295372,0.022541837766766548
1772618983870897400,3.6148974609375,-0.002638296689838171,0.009976319968700409,0.019265083596110344
1772618983880928500,3.624928466796875,0.001469821436330676,0.008228499442338943,0.01846696250140667
1772618983890959600,3.634959716796875,0.00034916307777166367,-0.004401274956762791,0.019832897931337357
1772618983900989200,3.6449892578125,0.00018027005717158318,-0.018705517053604126,0.02497325837612152
1772618983911020500,3.6550205078125,0.002859942615032196,-0.03749518096446991,0.026692062616348267
1772618983921051400,3.665051513671875,0.01271117478609085,-0.06395846605300903,0.026148002594709396
1772618983931081200,3.675081298828125,0.02124261111021042,-0.10042406618595123,0.02231171727180481
1772618983941112600,3.685112548828125,0.03527763485908508,-0.11636175960302353,0.019386358559131622
1772618983951143400,3.695143310546875,0.040536314249038696,-0.12369051575660706,0.008892970159649849
1772618983961173200,3.70517333984375,0.048406898975372314,-0.125055730342865,-0.006469922140240669
1772618983971204600,3.71520458984375,0.047805823385715485,-0.12380857020616531,-0.019191842526197433
1772618983981235500,3.7252353515625,0.054978590458631516,-0.11081688106060028,-0.03634742274880409
1772618983991265300,3.735265380859375,0.05760686472058296,-0.06820524483919144,-0.038294993340969086
1772618984001296600,3.745296630859375,0.04837288334965706,-0.041114501655101776,-0.03569228574633598
1772618984011327500,3.755327392578125,0.039745576679706573,-0.020158085972070694,-0.024971462786197662
1772618984021357300,3.765357421875,0.03243609145283699,-0.01193796657025814,-0.01700739935040474
1772618984031388400,3.775388427734375,0.02947572059929371,-0.0025346106849610806,-0.01929718442261219
1772618984041419500,3.78541943359375,0.03193328529596329,0.005041283555328846,-0.02964170090854168
1772618984051449300,3.795449462890625,0.033115729689598083,0.004668973386287689,-0.03941124305129051
1772618984061480400,3.80548046875,0.04041942209005356,-0.0016279201954603195,-0.044950783252716064
1772618984071511600,3.815511474609375,0.04312626272439957,-0.010317549109458923,-0.04403039440512657
1772618984081541400,3.825541259765625,0.03886377438902855,-0.011976437643170357,-0.032018352299928665
1772618984091572500,3.835572509765625,0.03261386603116989,-0.0059920488856732845,-0.019373131915926933
1772618984101603600,3.845603515625,0.022276008501648903,0.0020126146264374256,-0.0066706519573926926
1772618984111633000,3.8556328125,0.014141382649540901,0.009763479232788086,0.0026075346395373344
1772618984121663700,3.865663818359375,0.013186495751142502,0.01845109835267067,0.005019606556743383
1772618984131694800,3.87569482421875,0.01100669801235199,0.03127261996269226,0.002424356061965227
1772618984141725000,3.885724853515625,0.013013195246458054,0.04753408581018448,0.001137626706622541
1772618984151755800,3.895755859375,0.019046587869524956,0.0552964024245739,0.004143004305660725
1772618984161785900,3.905785888671875,0.02503201737999916,0.048303406685590744,0.01055266335606575
1772618984171816700,3.915816650390625,0.024464230984449387,0.02638345956802368,0.011115921661257744
1772618984181847800,3.925847900390625,0.02514152228832245,0.010544978082180023,0.01808016188442707
1772618984191878000,3.9358779296875,0.02424057386815548,0.00278079928830266,0.02246532216668129
1772618984201908700,3.94590869140625,0.02372901327908039,0.0039452482014894485,0.01968727633357048
1772618984211939800,3.95593994140625,0.023871226236224174,0.01268201507627964,0.014966290444135666
1772618984221970000,3.965969970703125,0.02425505593419075,0.0220341756939888,0.011473932303488255
1772618984232000800,3.976000732421875,0.02219962887465954,0.02323978953063488,0.0005528420442715287
1772618984242031900,3.986031982421875,0.01617778278887272,0.02638019435107708,-0.008088435977697372
1772618984252062000,3.99606201171875,0.01462356187403202,0.033573660999536514,-0.014015566557645798
1772618984262092800,4.0060927734375,0.010379431769251823,0.026423797011375427,-0.013905496336519718
1772618984272124000,4.0161240234375,0.0038616107776761055,0.0274677574634552,-0.012362194247543812
1772618984282153700,4.02615380859375,-0.004271228332072496,0.027101585641503334,-0.013403728604316711
1772618984292184800,4.036184814453125,-0.008798601105809212,0.03397973254323006,-0.014459672383964062
1772618984302216000,4.0462158203125,-0.016897637397050858,0.0459359847009182,-0.008831494487822056
1772618984312245800,4.056245849609375,-0.01396416500210762,0.055295396596193314,-0.008005914278328419
1772618984322276900,4.06627685546875,-0.008897671476006508,0.052560873329639435,-0.006465394981205463
1772618984332307700,4.0763076171875,-0.0010852883569896221,0.029334111139178276,-0.002302874345332384
1772618984342337800,4.086337890625,0.005117688328027725,0.00649601686745882,0.013806601986289024
1772618984352369000,4.096368896484375,0.003899824805557728,-0.0003088926896452904,0.03285246342420578
1772618984362399700,4.106399658203125,0.0012093919795006514,-0.013749387115240097,0.043642520904541016
1772618984372429800,4.116429931640625,-0.00817771814763546,-0.015829581767320633,0.0370357520878315
1772618984382461000,4.1264609375,-0.014839740470051765,-0.006035130470991135,0.020618649199604988
1772618984392491800,4.13649169921875,-0.018807584419846535,0.007035397458821535,-0.003247001674026251
1772618984402521900,4.14652197265625,-0.021142762154340744,0.01768317259848118,-0.018054360523819923
1772618984412553000,4.156552978515625,-0.018031124025583267,0.03117155097424984,-0.011347988620400429
1772618984422583800,4.166583740234375,-0.009484171867370605,0.03163248300552368,0.004455585964024067
1772618984432614000,4.17661376953125,-0.0017972229979932308,0.02813894860446453,0.024046331644058228
1772618984442644700,4.186644775390625,0.0038858000189065933,0.01653800532221794,0.03641778603196144
1772618984452675800,4.19667578125,0.003396577201783657,-0.00019809789955615997,0.0366596020758152
1772618984462706000,4.206705810546875,0.005534488242119551,-0.009992972016334534,0.028859365731477737
1772618984472736800,4.21673681640625,0.006767531856894493,-0.0175025537610054,0.01683439314365387
1772618984482768000,4.226767822265625,0.006700681056827307,-0.029552243649959564,-0.0009292892646044493
1772618984492798000,4.2367978515625,0.010842163115739822,-0.03480586037039757,-0.00536371860653162
1772618984502828800,4.246828857421875,0.01617971807718277,-0.022067291662096977,-0.008071813732385635
1772618984512860000,4.25685986328125,0.028321603313088417,-0.007065439596772194,-0.012756580486893654
1772618984522889700,4.2668896484375,0.031227676197886467,-0.0021810876205563545,-0.016042757779359818
1772618984532920800,4.2769208984375,0.029046813026070595,-0.0024727038107812405,-0.02146175689995289
1772618984542952000,4.286951904296875,0.023278072476387024,0.005013769026845694,-0.027143456041812897
1772618984552981800,4.296981689453125,0.010744703933596611,0.02029898203909397,-0.03840569779276848
1772618984563012900,4.307012939453125,-0.002301719505339861,0.04532058909535408,-0.04561492055654526
1772618984573043700,4.317043701171875,-0.0112462118268013,0.08678201586008072,-0.05929397791624069
1772618984583073800,4.32707373046875,-0.023065032437443733,0.12960539758205414,-0.07916764914989471
1772618984593105000,4.33710498046875,-0.021523594856262207,0.14878813922405243,-0.09793707728385925
1772618984603135700,4.3471357421875,-0.01591568998992443,0.14018777012825012,-0.11401394009590149
1772618984613165800,4.357165771484375,0.0009607602842152119,0.11781162023544312,-0.11170364916324615
1772618984623197000,4.367197021484375,0.01089729554951191,0.07986794412136078,-0.08306636661291122
1772618984633226800,4.377226806640625,0.021461524069309235,0.032053545117378235,-0.0302090123295784
1772618984643257900,4.3872578125,0.017740119248628616,0.00045551033690571785,0.018740028142929077
1772618984653289000,4.3972890625,0.012983180582523346,-0.017796197906136513,0.05828610435128212
1772618984663319800,4.40731982421875,0.002908727154135704,-0.0025900588370859623,0.07351689785718918
1772618984673350000,4.417349853515625,-0.011940259486436844,0.04788270220160484,0.07178504019975662
1772618984683380700,4.427380615234375,-0.024085380136966705,0.08815041184425354,0.057565681636333466
1772618984693411800,4.437411865234375,-0.033291928470134735,0.1109292209148407,0.029902631416916847
1772618984703442000,4.44744189453125,-0.03183723986148834,0.10629232972860336,-0.0008184196776710451
1772618984713472800,4.45747265625,-0.029805248603224754,0.0977100282907486,-0.019795572385191917
1772618984723502800,4.4675029296875,-0.020808611065149307,0.08067440241575241,-0.020643459632992744
1772618984733534000,4.477533935546875,-0.015820244327187538,0.05726361647248268,-0.008231264539062977
1772618984743564800,4.487564697265625,-0.01756599359214306,0.034395184367895126,0.016162686049938202
1772618984753595000,4.497594970703125,-0.020738618448376656,0.02431671880185604,0.0367923304438591
1772618984763626000,4.5076259765625,-0.02707093581557274,0.018025724217295647,0.05440736189484596
1772618984773656800,4.51765673828125,-0.029560193419456482,0.011979281902313232,0.05127708241343498
1772618984783687000,4.52768701171875,-0.027448486536741257,0.018749289214611053,0.031128104776144028
1772618984793717800,4.5377177734375,-0.0225360207259655,0.03041153773665428,0.005956172943115234
1772618984803748900,4.547748779296875,-0.01829962246119976,0.03954621031880379,-0.020658602938055992
1772618984813779000,4.557779052734375,-0.01438557356595993,0.04571063071489334,-0.03340662270784378
1772618984823809800,4.567809814453125,-0.012239571660757065,0.04542765021324158,-0.04321620985865593
1772618984833841000,4.5778408203125,-0.008932990953326225,0.029840432107448578,-0.04466443508863449
1772618984843871000,4.58787109375,-0.008990518748760223,0.009611548855900764,-0.042918864637613297
1772618984853901800,4.59790185546875,-0.009369485080242157,0.0001751692034304142,-0.03428995609283447
1772618984863933000,4.607932861328125,-0.008727926760911942,-0.013418622314929962,-0.017297526821494102
1772618984873962800,4.617962646484375,-0.006440804339945316,-0.016312412917613983,-0.005139931105077267
1772618984883993900,4.627993896484375,-0.0044900160282850266,-0.01768360659480095,0.008061927743256092
1772618984894025000,4.63802490234375,-0.004112113267183304,-0.016884125769138336,0.01890472322702408
1772618984904054800,4.6480546875,-0.004639267455786467,-0.014835964888334274,0.025591468438506126
1772618984914086000,4.6580859375,-0.008517894893884659,-0.0056749568320810795,0.02832626737654209
1772618984924116700,4.66811669921875,-0.010364346206188202,0.006943914573639631,0.019985543563961983
1772618984934146800,4.678146728515625,-0.010925207287073135,0.012103522196412086,0.01521875150501728
1772618984944178000,4.688177978515625,-0.01486634835600853,0.015981288626790047,0.009812643751502037
1772618984954208800,4.698208740234375,-0.015756642445921898,0.02965635620057583,0.009603852406144142
1772618984964238800,4.70823876953125,-0.009756797924637794,0.04663671925663948,0.013813638128340244
1772618984974270000,4.71827001953125,-0.007609757129102945,0.05174359679222107,0.01591620407998562
1772618984984300800,4.72830078125,0.002900584600865841,0.039887990802526474,0.019846348091959953
1772618984994331000,4.738330810546875,0.009986722841858864,0.023090636357665062,0.023151863366365433
1772618985004362000,4.748362060546875,0.014800881035625935,-0.0017873961478471756,0.027635665610432625
1772618985014392800,4.758392822265625,0.0176834873855114,-0.02389030158519745,0.033352941274642944
1772618985024423000,4.7684228515625,0.021771278232336044,-0.0359242744743824,0.03717697784304619
1772618985034453800,4.778453857421875,0.02356145530939102,-0.03815706819295883,0.0409964844584465
1772618985044484900,4.78848486328125,0.028183847665786743,-0.03858233988285065,0.03697504848241806
1772618985054515000,4.798514892578125,0.033070482313632965,-0.04607008397579193,0.02530241198837757
1772618985064545800,4.8085458984375,0.025678493082523346,-0.060787271708250046,0.010469618253409863
1772618985074577000,4.818576904296875,0.018803009763360023,-0.08311627805233002,0.001350954407826066
1772618985084607000,4.82860693359375,0.016510412096977234,-0.10062835365533829,0.00040891242679208517
1772618985094637800,4.838637939453125,0.00929723959416151,-0.09831485897302628,0.012165437452495098
1772618985104669000,4.8486689453125,0.009393572807312012,-0.086921826004982,0.026744088158011436
1772618985114699000,4.858698974609375,0.012665532529354095,-0.07969347387552261,0.04433613270521164
1772618985124729900,4.868729736328125,0.015348503366112709,-0.054540202021598816,0.06221945583820343
1772618985134761200,4.87876123046875,0.00810390617698431,-0.05000270530581474,0.05431013181805611
1772618985144790800,4.888790771484375,0.0050188712775707245,-0.04613448306918144,0.03811927139759064
1772618985154822000,4.89882177734375,0.003308589104562998,-0.023237690329551697,0.02718939445912838
1772618985164853000,4.90885302734375,-0.006957282777875662,0.005686620716005564,0.016440579667687416
1772618985174882800,4.9188828125,-0.011586388573050499,0.010255273431539536,0.008292905054986477
1772618985184914000,4.928913818359375,-0.02033773437142372,0.002982120029628277,0.000717921182513237
1772618985194945000,4.938945068359375,-0.027889929711818695,0.015473942272365093,-0.0036331515293568373
1772618985204974800,4.948974853515625,-0.029149670153856277,0.04285689443349838,-0.007149700541049242
1772618985215006000,4.959005859375,-0.028538208454847336,0.05458731949329376,-0.014265933074057102
1772618985225037000,4.969037109375,-0.028197430074214935,0.046940527856349945,-0.022984597831964493
1772618985235067000,4.97906689453125,-0.02396087348461151,0.03372432664036751,-0.01948307454586029
1772618985245098000,4.989097900390625,-0.026021787896752357,0.023961763828992844,-0.006588572636246681
1772618985255127800,4.9991279296875,-0.03031693398952484,0.019825076684355736,0.011613068170845509
1772618985265159000,5.009158935546875,-0.02658730372786522,0.01629839651286602,0.020583614706993103
1772618985275189800,5.019189697265625,-0.02641260251402855,0.008213572204113007,0.016270890831947327
1772618985285219800,5.0292197265625,-0.025106921792030334,0.007575539872050285,0.0038189056795090437
1772618985295251000,5.0392509765625,-0.022779852151870728,0.01340599823743105,-0.01289163064211607
1772618985305281800,5.04928173828125,-0.018116101622581482,0.011841725558042526,-0.019534582272171974
1772618985315311900,5.059311767578125,-0.016569072380661964,0.00873594731092453,-0.0199337899684906
1772618985325343000,5.069343017578125,-0.015118783339858055,0.00819858256727457,-0.015599074773490429
1772618985335373800,5.079373779296875,-0.01087157428264618,0.008741600438952446,-0.009403763338923454
1772618985345404000,5.08940380859375,-0.007653442677110434,0.008226431906223297,0.00338590401224792
1772618985355435000,5.09943505859375,0.0020662962924689054,0.001420722808688879,0.008501836098730564
1772618985365465900,5.1094658203125,0.005502848420292139,-0.004997715353965759,0.01460219919681549
1772618985375496000,5.119495849609375,0.009419559501111507,-0.012950712814927101,0.018432890996336937
1772618985385526800,5.12952685546875,0.008816758170723915,-0.011327638290822506,0.015163018368184566
1772618985395558000,5.139557861328125,0.0014035829808562994,-0.0024153697304427624,0.008925095200538635
1772618985405588000,5.149587890625,-0.0036757695488631725,0.008647410199046135,0.007506576366722584
1772618985415618800,5.159618896484375,-0.0014024954289197922,0.013445094227790833,-0.0015849227784201503
1772618985425650000,5.16964990234375,-0.0017285137437283993,0.014071332290768623,-0.000017193378880620003
1772618985435680000,5.179679931640625,-0.004745608661323786,0.009447552263736725,0.004402855411171913
1772618985445710800,5.1897109375,-0.003476685844361782,0.008929603733122349,0.013056239113211632
1772618985455742000,5.199741943359375,-0.006635727360844612,0.010278762318193913,0.01995861902832985
1772618985465772000,5.20977197265625,-0.011803831905126572,0.018494440242648125,0.019815292209386826
1772618985475803000,5.219802978515625,-0.01028369925916195,0.024096665903925896,0.016266098245978355
1772618985485834000,5.229833984375,-0.009232886135578156,0.025862134993076324,0.008413391187787056
1772618985495863800,5.23986376953125,-0.010275246575474739,0.024476494640111923,0.008195278234779835
1772618985505895000,5.24989501953125,-0.01876034401357174,0.017695795744657516,0.012334979139268398
1772618985515925800,5.25992578125,-0.026258474215865135,0.01458628848195076,0.015323844738304615
1772618985525955800,5.269955810546875,-0.03784462437033653,0.011316277086734772,0.019875524565577507
1772618985535987000,5.279987060546875,-0.039365287870168686,0.009152725338935852,0.014215774834156036
1772618985546017800,5.290017822265625,-0.04361114650964737,0.021977512165904045,0.006426598876714706
1772618985556048000,5.3000478515625,-0.039433177560567856,0.029738496989011765,-0.0022004451602697372
1772618985566079000,5.310078857421875,-0.042500294744968414,0.03960564732551575,-0.012316920794546604
1772618985576109800,5.32010986328125,-0.042921606451272964,0.030457422137260437,-0.011486280709505081
1772618985586140000,5.330139892578125,-0.04514471814036369,0.015493078157305717,-0.007223343010991812
1772618985596171000,5.3401708984375,-0.04489677771925926,0.002464627381414175,-0.007139985915273428
1772618985606201900,5.350201904296875,-0.04509987309575081,0.003739051055163145,-0.0025541498325765133
1772618985616232000,5.36023193359375,-0.04344338923692703,0.007024060469120741,0.006538680754601955
1772618985626262800,5.3702626953125,-0.04215304180979729,0.0052782041020691395,0.0049689048901200294
1772618985636294000,5.3802939453125,-0.04071040451526642,0.018117038533091545,0.0022689918987452984
1772618985646324000,5.390323974609375,-0.03432843089103699,0.026469998061656952,-0.005385319236665964
1772618985656354800,5.400354736328125,-0.037448324263095856,0.028117697685956955,-0.01103015523403883
1772618985666386000,5.410385986328125,-0.03633864223957062,0.03925245627760887,-0.005318674724549055
1772618985676416000,5.420416015625,-0.0312338937073946,0.04314013570547104,-0.0035801632329821587
1772618985686446800,5.43044677734375,-0.030260451138019562,0.0347479023039341,-0.0045067425817251205
1772618985696478000,5.44047802734375,-0.026201263070106506,0.03513379395008087,-0.003873176407068968
1772618985706508000,5.450508056640625,-0.027835991233587265,0.04016824811697006,-0.008215698413550854
1772618985716539000,5.460538818359375,-0.014858672395348549,0.02504655346274376,-0.005883833859115839
1772618985726570000,5.470570068359375,-0.0046249921433627605,0.003426874987781048,-0.005013053771108389
1772618985736599800,5.480599853515625,0.002794574946165085,-0.014813381247222424,0.0006022212328389287
1772618985746631000,5.490630859375,0.0033721013460308313,-0.020330486819148064,0.0073313950560987
1772618985756662000,5.500662109375,-0.003883947618305683,-0.014844641089439392,0.011763161048293114
1772618985766691800,5.51069189453125,-0.009128890931606293,0.0037870490923523903,0.009786293841898441
1772618985776723000,5.520722900390625,-0.011331059038639069,0.015624267980456352,0.0014639153378084302
1772618985786753800,5.53075390625,-0.009733336046338081,0.03149962052702904,-0.0049183848313987255
1772618985796783900,5.540783935546875,-0.003288219217211008,0.039849963039159775,-0.00274844141677022
1772618985806815000,5.55081494140625,0.010110605508089066,0.04046923294663429,0.003181425156071782
1772618985816845800,5.560845703125,0.011593719944357872,0.023823676630854607,0.016605354845523834
1772618985826876000,5.5708759765625,0.010662548243999481,-0.0011318628676235676,0.028531480580568314
1772618985836907000,5.580906982421875,0.008537879213690758,-0.016971012577414513,0.03890795633196831
1772618985846937900,5.590937744140625,0.00559475040063262,-0.015889443457126617,0.03720874339342117
1772618985856968000,5.600968017578125,0.0023832444567233324,-0.011472323909401894,0.02528231218457222
1772618985866998800,5.610998779296875,0.00231693172827363,-0.008262415416538715,0.017108004540205002
1772618985877030000,5.62102978515625,0.0010503323283046484,-0.003312930930405855,0.007309436798095703
1772618985887060000,5.63106005859375,-0.0049570719711482525,0.006971854716539383,0.011229689233005047
1772618985897090800,5.6410908203125,-0.009026648476719856,0.012582868337631226,0.01722739450633526
1772618985907121000,5.651120849609375,-0.010565947741270065,0.020702868700027466,0.019634006544947624
1772618985917152000,5.661152099609375,-0.0061525567434728146,0.020411252975463867,0.017161527648568153
1772618985927182800,5.671182861328125,-0.009929748252034187,0.014216648414731026,0.013976436108350754
1772618985937213000,5.681212890625,-0.009727614000439644,0.016875814646482468,0.005149389151483774
1772618985947244000,5.691244140625,-0.010994063690304756,0.03714023903012276,0.002684500068426132
1772618985957275000,5.70127490234375,-0.011043863371014595,0.04840674251317978,-0.0021190433762967587
1772618985967305000,5.711304931640625,-0.006688431836664677,0.045145757496356964,-0.004756362177431583
1772618985977335800,5.721335693359375,-0.005820241756737232,0.03621431440114975,-0.0029451462905853987
1772618985987367000,5.731366943359375,-0.0051857479847967625,0.02333671972155571,0.001069879624992609
1772618985997397000,5.74139697265625,-0.0031819860450923443,0.006601949688047171,-0.00035571050830185413
1772618986007427800,5.751427734375,-0.008503559976816177,0.00024191755801439285,-0.0011560651473701
1772618986017459000,5.761458984375,-0.015623519197106361,-0.0026755756698548794,0.0072992052882909775
1772618986027489000,5.771489013671875,-0.01698075607419014,0.0029351641424000263,0.009610945358872414
1772618986037520000,5.781519775390625,-0.013368443585932255,0.020660365000367165,0.008951013907790184
1772618986047551000,5.791551025390625,-0.005959906615316868,0.03261817246675491,0.0058827814646065235
1772618986057581000,5.8015810546875,0.003846385283395648,0.04133869335055351,-0.002023611217737198
1772618986067612000,5.81161181640625,0.008422737941145897,0.03539205342531204,-0.0051733688451349735
1772618986077643000,5.82164306640625,0.008963359519839287,0.012578083202242851,-0.0027240596245974302
1772618986087672800,5.8316728515625,0.010125590488314629,-0.012482752092182636,0.004382971674203873
1772618986097704000,5.841703857421875,0.004143065772950649,-0.03583920747041702,0.010914107784628868
1772618986107735000,5.851735107421875,0.004308110103011131,-0.04245840758085251,0.013614359311759472
1772618986117764900,5.861764892578125,0.013672050088644028,-0.0017980639822781086,0.022013703361153603
1772618986127796000,5.8717958984375,-0.007245413959026337,-0.0357196070253849,0.01081389095634222
1772618986137826800,5.881826904296875,-0.002940148115158081,-0.031457483768463135,0.004359986167401075
1772618986147857000,5.89185693359375,-0.0032872254960238934,0.0011798827908933163,-0.005057063419371843
1772618986157888000,5.901887939453125,-0.008540842682123184,0.012567292898893356,-0.006723669357597828
1772618986167918800,5.9119189453125,-0.00818515196442604,0.02003447711467743,-0.005861078388988972
1772618986177949000,5.921948974609375,-0.0011695865541696548,0.016082612797617912,0.0015542275505140424
1772618986187980000,5.93197998046875,0.008774920366704464,0.014464718289673328,0.005489133298397064
1772618986198011000,5.942010986328125,0.01563202776014805,0.004410220310091972,0.006865721195936203
1772618986208041000,5.952041015625,0.017782706767320633,-0.008426732383668423,0.010324135422706604
1772618986218072000,5.962072021484375,0.013566390611231327,-0.02060456946492195,0.012578235007822514
1772618986228103000,5.97210302734375,0.007392142899334431,-0.03201776742935181,0.02155240811407566
1772618986238133000,5.982133056640625,0.0042469496838748455,-0.029018249362707138,0.023636598140001297
1772618986248163800,5.992163818359375,0.004026377573609352,-0.01914212293922901,0.030308768153190613
1772618986258195000,6.00219482421875,0.006003241986036301,-0.013051207177340984,0.03246033564209938
1772618986268225000,6.01222509765625,0.014782944694161415,-0.013244588859379292,0.04036090150475502
1772618986278255900,6.022255859375,0.025063812732696533,-0.026731368154287338,0.05168918892741203
1772618986288287000,6.032286865234375,0.03613033518195152,-0.03714665770530701,0.06810015439987183
1772618986298317000,6.042317138671875,0.04590466618537903,-0.052845992147922516,0.0848008394241333
1772618986308348000,6.052347900390625,0.05096980556845665,-0.07125435769557953,0.0934825912117958
1772618986318379000,6.06237890625,0.05420954152941704,-0.07765260338783264,0.09700515121221542
1772618986328408800,6.072408935546875,0.05950117111206055,-0.07530472427606583,0.09828264266252518
1772618986338440000,6.08243994140625,0.058648161590099335,-0.055302247405052185,0.09506847709417343
1772618986348471000,6.092470947265625,0.06189364194869995,-0.016317617148160934,0.0830453634262085
1772618986358500900,6.1025009765625,0.06146007776260376,0.022791169583797455,0.07553258538246155
1772618986368532000,6.112531982421875,0.04844925180077553,0.04013248160481453,0.059936124831438065
1772618986378562800,6.122562744140625,0.04527689516544342,0.04446171596646309,0.04252677410840988
1772618986388593000,6.132593017578125,0.046139512211084366,0.060365382581949234,0.023464437574148178
1772618986398624000,6.1426240234375,0.05620360001921654,0.08507925271987915,0.0093331728130579
1772618986408654800,6.15265478515625,0.05257101729512215,0.06957127898931503,0.004559026099741459
1772618986418685000,6.162684814453125,0.055935122072696686,0.05596039816737175,-0.000979017000645399
1772618986428716000,6.172716064453125,0.0648413822054863,0.053525835275650024,0.0026201100554317236
1772618986438747000,6.182746826171875,0.06702597439289093,0.05239905044436455,0.010799742303788662
1772618986448777000,6.19277685546875,0.06347247958183289,0.026728995144367218,0.03069153241813183
1772618986458808000,6.20280810546875,0.05579538270831108,0.012034737505018711,0.04380147531628609
1772618986468839000,6.2128388671875,0.042580071836709976,0.006605091504752636,0.04922781512141228
1772618986478869000,6.222868896484375,0.03520391508936882,0.005660735070705414,0.03882710263133049
1772618986488899800,6.23289990234375,0.022693553939461708,0.017295606434345245,0.023297421634197235
1772618986498931000,6.242930908203125,0.012637989595532417,0.026487773284316063,0.00038811040576547384
1772618986508961000,6.2529609375,0.011494451202452183,0.03367890790104866,-0.021860431879758835
1772618986518992000,6.262991943359375,0.011722151190042496,0.03471700847148895,-0.031557802110910416
1772618986529023000,6.27302294921875,0.013843625783920288,0.026377584785223007,-0.03031090833246708
1772618986539053000,6.283052978515625,0.012790611945092678,0.015453299507498741,-0.021606367081403732
1772618986549084000,6.293083984375,0.013810893520712852,-0.0033568290527909994,-0.008193769492208958
1772618986559115000,6.303114990234375,0.009314412251114845,-0.017612464725971222,0.003265280742198229
1772618986569145000,6.31314501953125,0.0049202824011445045,-0.03275678679347038,0.00961973425000906
1772618986579176000,6.323176025390625,-0.0017408160492777824,-0.03640531748533249,0.0037099127657711506
1772618986589207000,6.33320703125,-0.0066194175742566586,-0.02590060792863369,-0.00993019063025713
1772618986599236900,6.34323681640625,-0.013222724199295044,-0.01441146433353424,-0.02254212088882923
1772618986609268000,6.35326806640625,-0.01628955453634262,-0.014154264703392982,-0.035331841558218
1772618986619298800,6.363298828125,-0.018129799515008926,-0.02316107600927353,-0.035059668123722076
1772618986629329000,6.373328857421875,-0.01834295690059662,-0.033195387572050095,-0.027721598744392395
1772618986639360000,6.383360107421875,-0.016330672428011894,-0.029522087424993515,-0.006213110871613026
1772618986649390800,6.393390869140625,-0.00961072277277708,-0.022949164733290672,0.00302920863032341
1772618986659421000,6.4034208984375,-0.003458554856479168,-0.01680365391075611,0.009334242902696133
1772618986669452000,6.4134521484375,0.0055889165960252285,-0.005025831982493401,0.002658346202224493
1772618986679483000,6.42348291015625,0.0022857978474348783,0.0023873434402048588,-0.0038339081220328808
1772618986689513000,6.433512939453125,0.0016838184092193842,0.004359917249530554,-0.012925499118864536
1772618986699544000,6.4435439453125,-0.008463623933494091,0.007933080196380615,-0.009358727373182774
1772618986709575000,6.453574951171875,-0.01442556269466877,0.004085596650838852,-0.009483924135565758
1772618986719605000,6.46360498046875,-0.010355986654758453,0.0006671631708741188,-0.0010283879237249494
1772618986729635800,6.4736357421875,-0.0012666406109929085,-0.002954271622002125,0.012486051768064499
1772618986739667000,6.4836669921875,0.006845348048955202,-0.015670865774154663,0.015477580949664116
1772618986749697000,6.493697021484375,0.008924122899770737,-0.01668633706867695,0.021351300179958344
1772618986759727900,6.503727783203125,0.007987221702933311,-0.004494652152061462,0.02681184560060501
1772618986769759000,6.513759033203125,0.00811139214783907,0.02057282254099846,0.026516079902648926
1772618986779789000,6.5237890625,0.0032468619756400585,0.03214132785797119,0.014850102365016937
1772618986789820000,6.53381982421875,0.006565716117620468,0.04915153980255127,0.010519574396312237
1772618986799851000,6.54385107421875,0.006052524782717228,0.057806018739938736,0.013275146484375
1772618986809881000,6.553881103515625,0.006754869595170021,0.04950485751032829,0.017714565619826317
1772618986819912000,6.563911865234375,0.008152229711413383,0.046810004860162735,0.03273665904998779
1772618986829943000,6.573943115234375,0.010785761289298534,0.04477543383836746,0.04109186306595802
1772618986839972900,6.583972900390625,0.003962742630392313,0.027893921360373497,0.03931820020079613
1772618986850004000,6.59400390625,0.00616746861487627,0.006036773324012756,0.030661053955554962
1772618986860034800,6.604034912109375,0.010316940024495125,0.005837036296725273,0.023107796907424927
1772618986870065000,6.61406494140625,0.007149774581193924,0.0032301642931997776,0.009514084085822105
1772618986880096000,6.624095947265625,0.005462395492941141,0.004086903762072325,-0.0005776986945420504
1772618986890126800,6.634126953125,0.0007809312082827091,0.006794883403927088,-0.009016534313559532
1772618986900157000,6.644156982421875,-0.0010979287326335907,0.004588720854371786,-0.011675966903567314
1772618986910188000,6.65418798828125,-0.00421498017385602,0.0067608109675347805,-0.012766232714056969
1772618986920219000,6.664218994140625,-0.002938260789960623,-0.002569574397057295,-0.007357619237154722
1772618986930249000,6.6742490234375,-0.005599337164312601,-0.011687575839459896,0.0009926478378474712
1772618986940280000,6.684280029296875,-0.0013119140639901161,-0.011873730458319187,0.00749582052230835
1772618986950311000,6.694310791015625,0.0018643327057361603,-0.006685946136713028,0.007493417244404554
1772618986960341000,6.704341064453125,0.00747614586725831,-0.010921970009803772,0.0034499391913414
1772618986970371800,6.714371826171875,0.011000655591487885,-0.018507201224565506,-0.0019259476102888584
1772618986980403000,6.72440283203125,0.012014787644147873,-0.025109976530075073,0.002192897256463766
1772618986990433000,6.73443310546875,0.010214624926447868,-0.02442249283194542,0.005305907689034939
1772618987000464000,6.7444638671875,0.008215656504034996,-0.011082985438406467,0.00871075876057148
1772618987010495000,6.754494873046875,0.006500690244138241,0.0012051830999553204,0.004626190289855003
1772618987020525000,6.764525146484375,0.013221975415945053,0.0066992840729653835,0.0030282933730632067
1772618987030556000,6.774555908203125,0.018108144402503967,0.01213446818292141,0.005688903387635946
1772618987040587000,6.7845869140625,0.02095373347401619,0.014491099864244461,0.01853332854807377
1772618987050617000,6.7946171875,0.025553394109010696,0.006197026465088129,0.03501448780298233
1772618987060648000,6.80464794921875,0.03116787038743496,-0.0003498219884932041,0.05048345774412155
1772618987070679000,6.814678955078125,0.037403326481580734,0.0032550697214901447,0.061577364802360535
1772618987080708900,6.824708984375,0.041852403432130814,0.0022606453858315945,0.06335555762052536
1772618987090740000,6.834739990234375,0.04172135144472122,0.009881503880023956,0.06638477742671967
1772618987100771000,6.84477099609375,0.04115409776568413,0.016303449869155884,0.0636419877409935
1772618987110801200,6.85480126953125,0.04076601564884186,0.015933837741613388,0.05724770948290825
1772618987120832300,6.864832275390625,0.04034576565027237,0.01721668243408203,0.04612554982304573
1772618987130863000,6.874863037109375,0.035916369408369064,0.026880186051130295,0.038270171731710434
1772618987140893200,6.88489306640625,0.032199926674366,0.03498018905520439,0.02957361750304699
1772618987150924300,6.89492431640625,0.03514913469552994,0.028045654296875,0.025605544447898865
1772618987160955100,6.904955078125,0.03359917551279068,0.013873374089598656,0.026437250897288322
1772618987170985200,6.914985107421875,0.03125159814953804,0.0002563665620982647,0.027368292212486267
1772618987181016300,6.925016357421875,0.03168436139822006,-0.0036086791660636663,0.02750011719763279
1772618987191047200,6.935047119140625,0.028093378990888596,-0.012201566249132156,0.022939758375287056
1772618987201077200,6.9450771484375,0.02240300364792347,-0.0043055592104792595,0.011118785478174686
1772618987211108000,6.955108154296875,0.022220581769943237,0.007650943472981453,0.0062636579386889935
1772618987221139200,6.96513916015625,0.018765129148960114,0.005249038338661194,-0.00132794922683388
1772618987231169300,6.975169189453125,0.01264764554798603,-0.0020488817244768143,-0.017137689515948296
1772618987241200000,6.9852001953125,0.012677473947405815,-0.0011703046038746834,-0.022931396961212158
1772618987251231200,6.995231201171875,0.0072213634848594666,-0.003925595432519913,-0.026183882728219032
1772618987261261300,7.00526123046875,0.0079025998711586,-0.014129230752587318,-0.02033744566142559
1772618987271292200,7.015292236328125,0.012482903897762299,-0.012068148702383041,-0.009291831403970718
1772618987281323300,7.0253232421875,0.013348698616027832,-0.009851334616541862,-0.002614753320813179
1772618987291353300,7.035353271484375,0.019215717911720276,-0.013504743576049805,0.0010321062291041017
1772618987301384200,7.04538427734375,0.021597648039460182,-0.01870856061577797,-0.00011172157246619463
1772618987311415300,7.055415283203125,0.021748792380094528,-0.0208168663084507,-0.013863981701433659
1772618987321445000,7.065445068359375,0.02002359740436077,-0.032707881182432175,-0.03051113523542881
1772618987331476200,7.075476318359375,0.015523391775786877,-0.0375097319483757,-0.03162916749715805
1772618987341507000,7.085507080078125,0.015033637173473835,-0.03599385917186737,-0.02861633524298668
1772618987351537200,7.095537109375,0.009180119261145592,-0.02098820172250271,-0.022605925798416138
1772618987361568300,7.105568359375,0.009604359976947308,-0.008483328856527805,-0.019285229966044426
1772618987371599000,7.11559912109375,0.010615164414048195,0.0027318960055708885,-0.017297672107815742
1772618987381629200,7.125629150390625,0.010568026453256607,0.00237955991178751,-0.007830134592950344
1772618987391660300,7.135660400390625,0.008717226795852184,-0.004020252265036106,0.0005085513694211841
1772618987401691100,7.145691162109375,0.009673833847045898,-0.011233423836529255,0.00934918038547039
1772618987411721200,7.15572119140625,0.013311594724655151,-0.015646090731024742,0.01682875119149685
1772618987421752300,7.16575244140625,0.017470385879278183,-0.01076185330748558,0.025034749880433083
1772618987431783200,7.175783203125,0.0194077230989933,-0.003574057947844267,0.027419157326221466
1772618987441813200,7.185813232421875,0.024523653090000153,0.002213789615780115,0.02665483020246029
1772618987451844000,7.195843994140625,0.020191848278045654,0.005865524522960186,0.023645607754588127
1772618987461875200,7.205875244140625,0.01926080696284771,0.0007445318624377251,0.02010972797870636
1772618987471905300,7.2159052734375,0.01209162175655365,-0.013704868033528328,0.01750558242201805
1772618987481936100,7.22593603515625,0.0075775631703436375,-0.018251150846481323,0.010291345417499542
1772618987491967200,7.23596728515625,0.008299056440591812,-0.018454743549227715,0.0014702321495860815
1772618987501997300,7.245997314453125,0.009463656693696976,-0.008848455734550953,-0.005185539834201336
1772618987512028200,7.256028076171875,0.007906640879809856,-0.0013091685250401497,-0.009995783679187298
1772618987522059300,7.266059326171875,0.005516986362636089,0.008684076368808746,-0.005698240827769041
1772618987532089300,7.27608935546875,0.005283348262310028,0.008431841619312763,-0.003498006844893098
1772618987542120200,7.2861201171875,0.004064685665071011,-0.0037422662135213614,-0.006794733926653862
1772618987552151300,7.2961513671875,0.0028817320708185434,-0.017896849662065506,-0.0064515830017626286
1772618987562181000,7.30618115234375,0.005050077568739653,-0.036484383046627045,-0.0049293204210698605
1772618987572212200,7.316212158203125,0.006589730270206928,-0.04686140641570091,-0.0046337381936609745
1772618987582243300,7.326243408203125,0.00044448627158999443,-0.04438173770904541,-0.0005322038196027279
1772618987592273000,7.33627294921875,-0.000782898161560297,-0.03154192119836807,-0.0014446729328483343
1772618987602304300,7.34630419921875,-0.00842537172138691,-0.006926057394593954,-0.010037628933787346
1772618987612335000,7.356335205078125,-0.014892303384840488,0.010474039241671562,-0.024194423109292984
1772618987622365000,7.366364990234375,-0.021173901855945587,0.017547395080327988,-0.044478386640548706
1772618987632396300,7.376396240234375,-0.023521052673459053,0.02266005612909794,-0.05882875621318817
1772618987642427100,7.38642724609375,-0.025228671729564667,0.027384504675865173,-0.066911980509758
1772618987652457000,7.39645703125,-0.027214419096708298,0.02023686282336712,-0.06720355898141861
1772618987662488300,7.40648828125,-0.024007173255085945,0.006969526410102844,-0.06374065577983856
1772618987672519200,7.416519287109375,-0.02875787392258644,-0.0009636878967285156,-0.06816557794809341
1772618987682549000,7.426549072265625,-0.026657171547412872,-0.007074045017361641,-0.0729036033153534
1772618987692580000,7.436580078125,-0.02736157923936844,-0.010110314935445786,-0.08131972700357437
1772618987702611200,7.446611083984375,-0.027682490646839142,0.0007258211262524128,-0.07585199177265167
1772618987712641000,7.45664111328125,-0.025946419686079025,0.012342659756541252,-0.057156410068273544
1772618987722672000,7.466672119140625,-0.026320327073335648,0.019719881936907768,-0.02939668297767639
1772618987732703200,7.476703125,-0.021605556830763817,0.028124544769525528,-0.001831517554819584
1772618987742733000,7.486733154296875,-0.021313674747943878,0.03638407215476036,0.015898743644356728
1772618987752764200,7.49676416015625,-0.01417921669781208,0.0368826687335968,0.022496994584798813
1772618987762795300,7.506795166015625,-0.01676088571548462,0.034663453698158264,0.024088233709335327
1772618987772825000,7.5168251953125,-0.012272419407963753,0.02520359493792057,0.024256158620119095
1772618987782856200,7.526856201171875,-0.012900659814476967,0.013582093641161919,0.021238531917333603
1772618987792887300,7.53688720703125,-0.01989993453025818,-0.003423383692279458,0.01725851185619831
1772618987802917000,7.546917236328125,-0.019631754606962204,-0.0017634355463087559,0.014989230781793594
1772618987812948200,7.5569482421875,-0.0211222805082798,0.008131918497383595,0.010775470174849033
1772618987822979300,7.566979248046875,-0.02112574316561222,0.02672477811574936,0.006819078698754311
1772618987833009000,7.5770087890625,-0.020738909021019936,0.044195014983415604,0.009074646048247814
1772618987843040300,7.587040283203125,-0.020059268921613693,0.05104599520564079,0.008405127562582493
1772618987853071000,7.597071044921875,-0.020520495250821114,0.04752674698829651,0.014265576377511024
1772618987863101000,7.607100830078125,-0.017985166981816292,0.03395314887166023,0.011491627432405949
1772618987873132300,7.61713232421875,-0.014585154131054878,0.024962179362773895,0.011707269586622715
1772618987883163100,7.6271630859375,-0.014459451660513878,0.003048888873308897,0.010700860992074013
1772618987893193000,7.63719287109375,-0.01151660829782486,-0.01402612216770649,0.011952170170843601
1772618987903224300,7.647224365234375,-0.007332783192396164,-0.021106667816638947,0.01429628487676382
1772618987913255200,7.657255126953125,-0.008413055911660194,-0.022315725684165955,0.014337598346173763
1772618987923285000,7.667284912109375,-0.010306030511856079,-0.01825786754488945,0.00953059270977974
1772618987933316400,7.67731640625,-0.012598604895174503,-0.0031145773828029633,0.0038269772194325924
1772618987943347200,7.68734716796875,-0.013432442210614681,0.010401496663689613,0.001477802754379809
1772618987953377000,7.697376953125,-0.012351514771580696,0.012272350490093231,-0.0030601504258811474
1772618987963408100,7.707408203125,-0.01140875555574894,-0.0013683591969311237,-0.0068226647563278675
1772618987973439200,7.717439208984375,-0.010501059703528881,-0.005377207882702351,-0.010279033333063126
1772618987983469000,7.727468994140625,-0.010840879753232002,-0.010143200866878033,-0.00048472557682543993
1772618987993500200,7.737500244140625,-0.01757148839533329,-0.015713758766651154,0.005621454678475857
1772618988003531300,7.74753125,-0.014961590990424156,-0.02316128835082054,0.018636589869856834
1772618988013561000,7.75756103515625,-0.016254156827926636,-0.031849704682826996,0.014623431488871574
1772618988023592000,7.767592041015625,-0.020280856639146805,-0.03592913597822189,0.01158156804740429
1772618988033623300,7.777623291015625,-0.024297811090946198,-0.02106184884905815,0.003063526237383485
1772618988043653000,7.787653076171875,-0.02761824242770672,-0.006111662834882736,-0.0060319676995277405
1772618988053684000,7.79768408203125,-0.02497343346476555,0.0133539829403162,-0.019574636593461037
1772618988063715300,7.80771533203125,-0.020337935537099838,0.027990180999040604,-0.024679118767380714
1772618988073745000,7.817744873046875,-0.01635049656033516,0.0348147489130497,-0.022399723529815674
1772618988083776000,7.82777587890625,-0.012365074828267097,0.025998618453741074,-0.009955303743481636
1772618988093807000,7.83780712890625,-0.009289301000535488,0.012156556360423565,0.00399057287722826
1772618988103837000,7.8478369140625,-0.005607747472822666,-0.002163260243833065,0.01707468181848526
1772618988113868800,7.857868896484375,-0.004088744521141052,-0.016724299639463425,0.016952063888311386
1772618988123899600,7.867899658203125,-0.009028907865285873,-0.03468412533402443,0.01077486202120781
1772618988133929700,7.8779296875,-0.006891369819641113,-0.03454882651567459,0.0014440953964367509
1772618988143960800,7.8879609375,-0.009580629877746105,-0.016053706407546997,-0.0069264862686395645
1772618988153991700,7.89799169921875,-0.010858967900276184,0.0056379372254014015,-0.014924262650310993
1772618988164021800,7.908021728515625,-0.012329299002885818,0.01612599939107895,-0.015527735464274883
1772618988174052600,7.918052490234375,-0.01254810206592083,0.01680384948849678,-0.010202024132013321
1772618988184083700,7.928083740234375,-0.010829297825694084,0.009090270847082138,-0.006115670315921307
1772618988194113800,7.93811376953125,-0.006993546616286039,0.003640111070126295,-0.0049460092559456825
1772618988204144600,7.94814453125,-0.006328022573143244,-0.0003032316453754902,-0.003762500826269388
1772618988214175700,7.95817578125,-0.002816019579768181,0.0031197122298181057,-0.0007694085943512619
1772618988224205800,7.968205810546875,0.004997694864869118,0.012286579236388206,0.00612924387678504
1772618988234236700,7.978236572265625,0.013751979917287827,0.014833733439445496,0.013671830296516418
1772618988244267800,7.988267822265625,0.018177354708313942,0.00981101207435131,0.015404483303427696
1772618988254297900,7.9982978515625,0.021349279209971428,-0.000014424324035644531,0.01686159335076809
1772618988264328700,8.00832861328125,0.019583070650696754,-0.011190912686288357,0.01621391251683235
1772618988274359800,8.01835986328125,0.016880474984645844,-0.014744702726602554,0.008550628088414669
1772618988284389600,8.0283896484375,0.01162339374423027,-0.01002851128578186,0.0022075106389820576
1772618988294420700,8.038420654296875,0.008735527284443378,0.0004911809228360653,-0.005781859625130892
1772618988304451600,8.04845166015625,0.008728869259357452,0.013903126120567322,-0.007192003540694714
1772618988314481700,8.058481689453124,0.005023328121751547,0.02588437683880329,-0.008980970829725266
1772618988324512800,8.0685126953125,0.007720843888819218,0.030161680653691292,-0.010478466749191284
1772618988334543600,8.078543701171874,0.0091111920773983,0.03265969455242157,-0.01867361180484295
1772618988344573700,8.08857373046875,0.0020985568407922983,0.027145616710186005,-0.020940227434039116
1772618988354604800,8.098604736328125,-0.0030460525304079056,0.015122518874704838,-0.022417865693569183
1772618988364635600,8.1086357421875,-0.00998758152127266,0.007926657795906067,-0.022971803322434425
1772618988374665700,8.118665771484375,-0.023361243307590485,0.018839819356799126,-0.026239614933729172
1772618988384696800,8.12869677734375,-0.03634335473179817,0.022042803466320038,-0.03423575684428215
1772618988394727700,8.138727783203125,-0.04441484063863754,0.051860157400369644,-0.054384395480155945
1772618988404757800,8.1487578125,-0.04542471095919609,0.0726354718208313,-0.08264825493097305
1772618988414788600,8.15878857421875,-0.032151516526937485,0.07595803588628769,-0.11230228841304779
1772618988424819700,8.16881982421875,-0.015124863013625145,0.06029731407761574,-0.12909992039203644
1772618988434849800,8.178849853515626,0.000143551267683506,0.057769641280174255,-0.1322328895330429
1772618988444880600,8.188880615234375,-0.0024146814830601215,0.038806602358818054,-0.12484394758939743
1772618988454911700,8.198911865234376,-0.013033214956521988,0.0023376108147203922,-0.10123445838689804
1772618988464941800,8.20894189453125,-0.011266475543379784,0.024362754076719284,-0.07336900383234024
1772618988474972700,8.21897265625,-0.02843889594078064,0.019454294815659523,-0.060147177428007126
1772618988485003800,8.229003662109376,-0.03546857461333275,0.014063257724046707,-0.070042684674263
1772618988495034600,8.23903466796875,-0.029059190303087234,0.03172733634710312,-0.08336548507213593
1772618988505064700,8.249064697265625,-0.023989062756299973,0.05430508404970169,-0.09753989428281784
1772618988515095800,8.259095703125,-0.012888073921203613,0.06663377583026886,-0.11571619659662247
1772618988525126700,8.269126708984375,-0.00331454211845994,0.07709520310163498,-0.12103080004453659
1772618988535156700,8.27915673828125,-0.0013825548812747002,0.06749732047319412,-0.12227453291416168
1772618988545187600,8.2891875,0.005248982459306717,0.07018444687128067,-0.11404616385698318
1772618988555218700,8.29921875,0.007691237144172192,0.08635874092578888,-0.09130086749792099
1772618988565248800,8.309248779296874,0.01492784358561039,0.08463460952043533,-0.07663483917713165
1772618988575279600,8.319279541015625,0.017355170100927353,0.05684325098991394,-0.07655761390924454
1772618988585310700,8.329310791015626,0.023911340162158012,0.022880487143993378,-0.08207967877388
1772618988595340800,8.3393408203125,0.030962707474827766,0.011918775737285614,-0.08147405087947845
1772618988605371600,8.34937158203125,0.03523894399404526,0.015705257654190063,-0.08079361915588379
1772618988615402800,8.35940283203125,0.03878388553857803,0.01874583400785923,-0.07222716510295868
1772618988625432800,8.369432861328125,0.025423604995012283,-0.004043634049594402,-0.06659111380577087
1772618988635463700,8.379463623046876,0.027087636291980743,0.00914032943546772,-0.06972542405128479
1772618988645494800,8.389494873046875,0.031975600868463516,0.04278936982154846,-0.06706412136554718
1772618988655524600,8.399524658203125,0.042925018817186356,0.03550001606345177,-0.07331433892250061
1772618988665555700,8.4095556640625,0.05193742364645004,0.02305452898144722,-0.07696925848722458
1772618988675586800,8.4195869140625,0.05668216943740845,0.004996663890779018,-0.08257117867469788
1772618988685616600,8.42961669921875,0.06169157475233078,0.0015912801027297974,-0.09258200228214264
1772618988695647700,8.439647705078125,0.05541279539465904,0.021128153428435326,-0.09679212421178818
1772618988705678600,8.4496787109375,0.0509975403547287,0.048376284539699554,-0.10869192332029343
1772618988715708700,8.459708740234374,0.03984355926513672,0.045805923640728,-0.12452702969312668
1772618988725739800,8.46973974609375,0.03673804551362991,0.04475210979580879,-0.13278469443321228
1772618988735770600,8.4797705078125,0.0329771526157856,0.044811591506004333,-0.1403001844882965
1772618988745800700,8.48980078125,0.029704660177230835,0.03822426497936249,-0.1411244422197342
1772618988755831800,8.499831787109375,0.014380032196640968,0.005884408485144377,-0.1434146761894226
1772618988765862700,8.509862548828124,0.0131887998431921,0.004790381994098425,-0.13783003389835358
1772618988775892700,8.519892822265625,-0.003957429435104132,-0.005904606077820063,-0.1374278962612152
1772618988785923800,8.529923828125,-0.00593535928055644,-0.0003945259377360344,-0.13925108313560486
1772618988795954700,8.53995458984375,-0.01184983178973198,0.03677799552679062,-0.14557738602161407
1772618988805984800,8.54998486328125,-0.01889602281153202,0.04864877089858055,-0.15122781693935394
1772618988816015600,8.560015625,-0.02836410328745842,0.041518718004226685,-0.15314404666423798
1772618988826046700,8.570046630859375,-0.0375157929956913,0.02932383306324482,-0.15333232283592224
1772618988836076800,8.580076904296876,-0.04028884693980217,0.021502112969756126,-0.1311706006526947
1772618988846107600,8.590107666015625,-0.03774712607264519,0.050686631351709366,-0.11265576630830765
1772618988856138800,8.600138671875,-0.04620954394340515,0.07492685317993164,-0.09749671071767807
1772618988866168800,8.6101689453125,-0.050193365663290024,0.0547691285610199,-0.09241779893636703
1772618988876199700,8.62019970703125,-0.03369633108377457,0.0514332614839077,-0.10309106856584549
1772618988886230800,8.630230712890626,-0.02685786411166191,0.051400505006313324,-0.11118601262569427
1772618988896260900,8.6402607421875,-0.02119229920208454,0.05271836370229721,-0.12259293347597122
1772618988906291700,8.650291748046875,-0.016641756519675255,0.05481427162885666,-0.12325365841388702
1772618988916322800,8.66032275390625,-0.015689143911004066,0.08083681762218475,-0.1309477984905243
1772618988926352600,8.6703525390625,-0.026318619027733803,0.10658080130815506,-0.1460322141647339
1772618988936383700,8.6803837890625,-0.033532191067934036,0.1490117609500885,-0.18254898488521576
1772618988946414600,8.69041455078125,-0.05083181709051132,0.191584512591362,-0.240568608045578
1772618988956444700,8.700444580078125,-0.05492234230041504,0.24863632023334503,-0.298313707113266
1772618988966475800,8.710475830078124,-0.07488593459129333,0.2663287818431854,-0.30960655212402344
