time,seconds_elapsed,z,y,x
1772619600553661400,0.075661376953125,-6.535237050768733,-3.8968542938053607,0.9208573924474418
1772619600563692300,0.0856923828125,-8.063429199343918,-3.019792057812214,1.4036322874486447
1772619600573723400,0.095723388671875,-9.01443111629486,-2.2919027306765316,1.7482424282103777
1772619600583755300,0.10575537109375,-9.285921660310029,-1.81703773201704,1.9696561051532624
1772619600593786000,0.1157861328125,-8.739667249697446,-1.358707396312058,2.118127003221214
1772619600603817200,0.125817138671875,-7.545701210513711,-0.8586667476028204,2.3861605386503038
1772619600613848300,0.135848388671875,-5.998963935944437,-0.30724867061674593,2.468228727136552
1772619600623879200,0.145879150390625,-4.159406329083443,0.23618103796392678,2.14908781254366
1772619600633910300,0.15591015625,-2.104403890556097,0.7540969505816698,1.5957013580940662
1772619600643941000,0.165941162109375,-0.12506371899545193,1.2088403677105903,1.02385570236817
1772619600653972200,0.17597216796875,1.493930982533097,1.5061349228069185,0.46396118119880553
1772619600664003300,0.18600341796875,2.6874095304608345,1.6763871523112057,-0.0032822981898556463
1772619600674034400,0.196034423828125,3.3829093306452034,1.7644488821238278,-0.46153841103129084
1772619600684065300,0.206065185546875,3.6857419383853673,1.7741329485312103,-0.8899481671817601
1772619600694097000,0.216096923828125,3.6536242141127584,1.6157979513138532,-1.3159189326822758
1772619600704127700,0.226127685546875,3.3950954430013893,1.3368658591210842,-1.5688956226244568
1772619600714159900,0.236159912109375,2.8148820641636845,1.028157345084846,-1.6522317852199078
1772619600724191000,0.24619091796875,2.2197008332967756,0.8700894743710755,-1.6647114736951887
1772619600734221800,0.256221923828125,1.9901865597456692,1.1202762413337826,-1.4310820199102163
1772619600744253000,0.2662529296875,1.8132050219863651,1.2705267162948846,-1.1204746865153312
1772619600754284000,0.276283935546875,1.710603894689679,1.3929089411213993,-0.7544719213739037
1772619600764315000,0.28631494140625,1.8249246858745811,1.6081537201710043,-0.5265201844317838
1772619600774346000,0.296345947265625,2.210675815320015,1.856867053580284,-0.45351683447603136
1772619600784376800,0.306376953125,2.897443442994356,1.9615661760695278,-0.4764130318190902
1772619600794408000,0.316407958984375,3.8302386721253394,1.814069968252629,-0.6170568895231932
1772619600804438800,0.326438720703125,4.769998479571938,1.3906766520246863,-0.9017148850820959
1772619600814470000,0.336469970703125,5.487656335550546,0.7675066133834422,-1.1420100803665816
1772619600824500700,0.346500732421875,5.859406996694207,0.1774728284075856,-1.2023761401325463
1772619600834531800,0.35653173828125,5.966252921953797,-0.19394509365037083,-1.152663868588954
1772619600844564000,0.36656396484375,5.834603394827246,-0.2930518029600382,-1.0639342494521289
1772619600854595000,0.376594970703125,5.524088415890931,-0.248065390894562,-0.8972589285865425
1772619600864626000,0.3866259765625,5.051333541253209,-0.06935629869028925,-0.8070437470670789
1772619600874657000,0.396656982421875,4.667190431526303,0.14431129417046903,-0.8823353540904819
1772619600884688000,0.40668798828125,4.390835496345162,0.32380963705629107,-0.9405370754294097
1772619600894719000,0.416718994140625,4.264338529676198,0.3495946511760354,-1.0934946904573588
1772619600904749800,0.426749755859375,4.38953435061872,0.3362530851744115,-1.3369127670027314
1772619600914781000,0.436781005859375,4.652808854952454,0.38346827920526266,-1.4772086880519986
1772619600924811800,0.446811767578125,4.783799625909328,0.37877866008430716,-1.5223973446913062
1772619600934843000,0.4568427734375,4.511604733017086,0.3919856399208307,-1.5615940674394369
1772619600944873700,0.466873779296875,3.8259301612764594,0.49567105532288547,-1.636930755713582
1772619600954904800,0.47690478515625,2.8095295972198246,0.7839118047393858,-1.6973786485441027
1772619600964937000,0.48693701171875,1.6764602175474166,1.1955286123253404,-1.6956306358329951
1772619600974968000,0.496968017578125,0.4669038105219602,1.7171999319538473,-1.444376385769248
1772619600984999000,0.5069990234375,-0.6796469820141792,2.356032088498771,-0.9122321143779903
1772619600995030000,0.517030029296875,-1.8244266732245682,2.845038717496395,-0.05126322731263935
1772619601005060900,0.527060791015625,-2.463868486100435,3.052811114838719,0.7529374783482402
1772619601015092000,0.537092041015625,-2.5865257284760474,2.893032933075726,1.3285156716659665
1772619601025122800,0.547122802734375,-2.366303014883399,2.200936219333112,1.7208748210743068
1772619601035154000,0.55715380859375,-1.5527601881206035,1.1539154760852455,1.4930965775355696
1772619601045184800,0.567184814453125,-0.6050777709811925,-0.1509229673951864,0.4921525988731533
1772619601055215900,0.5772158203125,-0.44944180358946323,-1.6068804853647947,-0.5178414591420442
1772619601065246700,0.587246826171875,-1.3791712154090403,-3.005552812318504,-0.9996453902192414
1772619601075277800,0.59727783203125,-3.5500101103812454,-3.95414854491055,-0.9808557879447937
1772619601085310000,0.60731005859375,-6.9213348016947505,-4.013583899697661,-0.662572366964072
1772619601095341000,0.617341064453125,-10.923844349670409,-2.980498158299923,-0.1908145770723
1772619601105372000,0.627371826171875,-14.80717865216732,-1.2198831552505491,0.4968325368503108
1772619601115403000,0.637403076171875,-17.51675091459751,0.5199785442359746,1.726084518546611
1772619601125433900,0.647433837890625,-18.20314795539379,1.5104514708317816,2.9496476774841547
1772619601135465000,0.65746484375,-16.583788512206077,1.8897678910546003,3.2284885842621325
1772619601145495800,0.667495849609375,-13.144386894488333,1.692348545422405,2.362559444440901
1772619601155527000,0.67752685546875,-8.940047783222793,0.1704132652848959,1.698346324532479
1772619601165557800,0.687557861328125,-4.556373264548182,-1.1891973634772002,0.8298303830884397
1772619601175588900,0.6975888671875,-0.6130851363480091,-2.1296900152429936,-0.16644861770393327
1772619601185619700,0.70761962890625,2.4013731592208147,-2.7742659761369226,-0.8703376039132475
1772619601195650800,0.71765087890625,4.394261963662505,-3.022519436949491,-1.2281952026523648
1772619601205682000,0.727681884765625,5.4397810701757665,-2.943428364577889,-1.3553741602361202
1772619601215714000,0.737714111328125,5.746966027906537,-2.6669085942238566,-1.4258330133408308
1772619601225745000,0.747744873046875,5.7364890575557945,-2.227515452570468,-1.445488584794849
1772619601235776000,0.75777587890625,5.562125008818507,-1.8003518240235745,-1.3672370319873093
1772619601245806800,0.767806884765625,5.393441343805193,-1.3480793270528315,-1.2318814899496733
1772619601255838000,0.777837890625,5.3352901836097235,-0.8587083947874605,-1.1707335590910166
1772619601265868800,0.787868896484375,5.403185323706269,-0.4333956548042595,-1.168861189347878
1772619601275900000,0.79789990234375,5.557956783223152,-0.1236702188104391,-1.178237285784632
1772619601285930800,0.8079306640625,5.826008000439405,0.03562704756781459,-1.2277326997071505
1772619601295961900,0.8179619140625,6.212118026325106,0.08661986044123768,-1.437481365558505
1772619601305993000,0.827992919921875,6.528475301548839,-0.05702347133979201,-1.6747911152914166
1772619601316023800,0.83802392578125,6.486487925168872,-0.23891893849521875,-1.7605547972947357
1772619601326055000,0.848054931640625,5.964282498663663,-0.3701797585651278,-1.7677816798083483
1772619601336087000,0.858087158203125,5.045983996918797,-0.37206951783448455,-1.7575822112247346
1772619601346118000,0.868117919921875,3.7137481356859205,-0.2164037398263812,-1.6413573399841785
1772619601356149000,0.87814892578125,1.899071872103214,0.07658493476957082,-1.3719067773640155
1772619601366179800,0.888179931640625,-0.31827859867513175,0.5744692822277545,-0.8298067099519073
1772619601376211000,0.8982109375,-2.5808412530988454,1.2959195162266492,-0.02781622768640518
1772619601386241800,0.90824169921875,-4.488050838950276,2.1123536805167795,1.0654406354270876
1772619601396273000,0.91827294921875,-5.715836145627498,2.7508868541151283,2.092333951925486
1772619601406304000,0.928303955078125,-6.216304956620931,2.902722844702005,2.7409038047611713
1772619601416334800,0.9383349609375,-6.107469903370737,2.4170447756052016,3.109501554831862
1772619601426366000,0.948365966796875,-5.741890039816498,1.5036194328546524,3.1661919948250055
1772619601436396800,0.958396728515625,-5.3542883140683175,0.38234512039422985,3.001663695925474
1772619601446428000,0.968427978515625,-5.089101254111528,-0.828747117896378,2.9257608982011676
1772619601456458800,0.978458740234375,-4.989025845900177,-1.8462395688429474,2.8161130672633647
1772619601466491000,0.988490966796875,-5.031277426174283,-2.459898121164739,2.479365330439806
1772619601476522000,0.99852197265625,-5.03784745221436,-2.8361402485087512,1.752535595359653
1772619601486552800,1.008552734375,-4.444089532148838,-3.384508582535386,1.037804878874123
1772619601496584000,1.018583984375,-3.433502622807026,-4.322149790392816,0.7599174734286963
1772619601506615000,1.028614990234375,-2.782895857316255,-5.113344884008169,0.9379885599903762
1772619601516646000,1.03864599609375,-3.2532097685426473,-4.977202137115597,1.7063041516691446
1772619601526677000,1.048677001953125,-4.42310402726531,-3.194233555699885,2.184454601740092
1772619601536707800,1.058707763671875,-5.256887093502283,-0.9424588372722268,2.541232296288013
1772619601546739000,1.068739013671875,-5.645068080443144,0.7080904016882181,2.995511018514633
1772619601556769800,1.078769775390625,-5.2374406347543,1.8837594444200396,3.2386680329710242
1772619601566801000,1.08880078125,-4.485442702278495,2.307868361571431,3.169316556586325
1772619601576831700,1.098831787109375,-3.5483389622986317,2.143835152712464,2.74012288351655
1772619601586863900,1.10886376953125,-2.38358966524899,1.6489587548986075,2.269254407147318
1772619601596895000,1.11889501953125,-1.1264677894502877,1.1440779726818204,2.0973409664325415
1772619601606926000,1.128926025390625,-0.019783727878332137,0.853915461422503,2.157408481643349
1772619601616957000,1.13895703125,0.8489531628400087,0.9687330962136387,2.1076199299931524
1772619601626988000,1.148988037109375,1.6305343326747417,1.3494681510627269,1.9062224745102225
1772619601637019000,1.159018798828125,2.460138067400455,1.7311361028477548,1.8949407636478541
1772619601647050000,1.169050048828125,3.3891514399051665,2.034066910265386,2.1266290202371776
1772619601657080800,1.179080810546875,4.374839470311999,2.1987083141505717,2.4522563742399215
1772619601667112000,1.18911181640625,5.332139610624313,2.1330042543575165,2.7345880457431075
1772619601677142800,1.199142822265625,6.080306002113223,1.8273802623331545,2.64528712952435
1772619601687174000,1.209173828125,6.796352915763855,1.339273797045648,1.8238855520851909
1772619601697205200,1.219205322265625,7.429104291090368,1.8306445248261094,1.6410601106032727
1772619601707236400,1.229236328125,7.845947308892011,2.0191779686912894,1.870126201995462
1772619601717268500,1.2392685546875,7.9940821068733925,1.7170909186214207,1.414251735009998
1772619601727299300,1.24929931640625,7.941225545954704,1.3970757054120302,0.5150646513724699
1772619601737330400,1.259330322265625,7.911600807541609,1.356096044769883,-0.2851724844196811
1772619601747361500,1.269361572265625,7.762921819680929,1.2667454441905022,-0.9044107000373304
1772619601757392400,1.279392333984375,7.525002705878019,0.9546379353657364,-1.3459285787597297
1772619601767423500,1.289423583984375,7.308480015847087,0.7094885780483484,-1.6444121975101529
1772619601777454300,1.299454345703125,7.077235557502508,0.6188488144412636,-1.8484996227294206
1772619601787485400,1.3094853515625,6.861796571055054,0.6087187578320503,-2.0496178228795525
1772619601797516300,1.319516357421875,6.630109629639983,0.6663426792830228,-2.2979662684991955
1772619601807547400,1.32954736328125,6.305196707516909,0.736981272868812,-2.4542425796210763
1772619601817578200,1.339578125,5.917019812229276,0.8802347285494208,-2.5008634610205887
1772619601827609300,1.349609375,5.495029494667053,1.0519786579161883,-2.636346574960649
1772619601837640200,1.35964013671875,5.049955238637327,1.1394582039266825,-2.776940456043184
1772619601847672600,1.369672607421875,4.386415341815352,1.0715461126953363,-2.741601723897457
1772619601857703400,1.379703369140625,3.1684780599355697,0.8373544949829578,-2.4951953522562977
1772619601867734500,1.389734619140625,1.428120832017064,0.6376151819705963,-2.294958318854868
1772619601877765400,1.399765380859375,-0.38588030878305435,0.6799938957557082,-1.8546980389781296
1772619601887796500,1.40979638671875,-2.0353373685926197,0.7040092698544264,-0.7626803622707724
1772619601897827300,1.419827392578125,-3.272056507831812,0.5289972786024213,0.4189386749066412
1772619601907858400,1.4298583984375,-3.613544132658839,0.15842267550081013,1.5151177090771495
1772619601917889300,1.43988916015625,-3.0438176610440015,-0.509508442017436,2.2087273116007444
1772619601927920400,1.44992041015625,-1.747947244656086,-1.1040428994134068,1.4907374471887944
1772619601937951200,1.459951171875,0.01281622695326805,-1.195446340869367,-0.3884274359825998
1772619601947982300,1.469982421875,1.5221686505019665,-1.8967533660277722,-1.4345146247074008
1772619601958013200,1.48001318359375,1.811521014422178,-4.071398083023727,-1.6047978338718414
1772619601968045600,1.490045654296875,0.6820294932365417,-5.974551379221677,-1.4449078622974454
1772619601978076400,1.500076416015625,-1.487355111274123,-5.816649804985523,-1.416207106861472
1772619601988107500,1.510107421875,-4.872006317150593,-3.857554256813228,-1.5860544088266788
1772619601998138400,1.520138427734375,-8.606753401723504,-1.413406077966094,-1.508165697982162
1772619602008169500,1.53016943359375,-11.399200931239127,0.9098504068732262,-0.8226575688496232
1772619602018200300,1.540200439453125,-12.991598717743157,2.44471998738572,0.2954404516622424
1772619602028231400,1.5502314453125,-13.024824110996722,3.0521658026725054,0.8900080806754529
1772619602038262300,1.56026220703125,-11.602733791315554,2.8761680152535436,0.5209946624759584
1772619602048293400,1.57029345703125,-9.12010390612185,2.215595151543617,-0.21760500537492333
1772619602058324200,1.58032421875,-6.180880592018365,1.2618072571359573,-0.7129936635598539
1772619602068355300,1.590355224609375,-3.40367330173254,0.4339790076501667,-1.2129811207771302
1772619602078386400,1.600386474609375,-1.1665601458638906,-0.23547098999843,-1.7386738048762083
1772619602088417300,1.610417236328125,0.5321896449029445,-0.8600884509690105,-2.093369140192121
1772619602098449400,1.620449462890625,1.7485189070641993,-1.2410386098735033,-2.222230351774394
1772619602108480500,1.63048046875,2.6133535296469925,-1.3883787503458558,-2.2083374355003236
1772619602118511400,1.640511474609375,3.293863850492239,-1.3401114169135688,-2.043601046808064
1772619602128542500,1.65054248046875,3.851135914203524,-1.1882657817155122,-1.7643468830540776
1772619602138573300,1.6605732421875,4.270031772881746,-1.0379675220899283,-1.443470084579289
1772619602148604400,1.6706044921875,4.531123087957501,-0.9341175637759268,-1.2336289181388913
1772619602158635300,1.68063525390625,4.698396301651001,-0.803229084149748,-1.149285039805621
1772619602168666400,1.690666259765625,4.7247465484380715,-0.6284826119661331,-1.0757311432950198
1772619602178697500,1.700697509765625,4.60018551826775,-0.41268984364494676,-0.9895824074968695
1772619602188728300,1.710728271484375,4.39134286134541,-0.17262670355066656,-0.8948822625830769
1772619602198759400,1.720759521484375,4.076795850414038,0.01590089509561658,-0.8733269949875772
1772619602208790300,1.730790283203125,3.766744981858134,0.20081760976836086,-0.9076815384015441
1772619602218822400,1.740822509765625,3.529948734605312,0.37763022070154545,-0.9961104940913617
1772619602228853500,1.750853515625,3.3065859694212674,0.46605186986774205,-0.9968645273290574
1772619602238884400,1.76088427734375,3.0675942579507827,0.5344387390039861,-0.8933870555892586
1772619602248915500,1.77091552734375,2.860965769946575,0.6041857905775309,-0.7696674446791409
1772619602258946300,1.7809462890625,2.557012633743882,0.6025109892331063,-0.5540637691892684
1772619602268977400,1.790977294921875,1.8173434369653463,0.45611339030787346,-0.3072263126544654
1772619602279008500,1.801008544921875,0.6726245360314845,0.3206663705945015,0.055023237433284515
1772619602289039400,1.811039306640625,-1.0198124183267354,0.3577969545930624,0.6731245945081115
1772619602299070500,1.821070556640625,-3.156772424572706,0.6718838006667792,1.5129020788542926
1772619602309101300,1.831101318359375,-5.153702613359689,1.26476786050722,2.2786311611711976
1772619602319132400,1.84113232421875,-6.775722215667367,1.8462395688429474,2.9531852039605377
1772619602329163300,1.851163330078125,-7.794814503026008,1.9154511983655391,3.224220405423641
1772619602339194400,1.8611943359375,-7.864921473953127,1.5798510241419077,3.255069424934685
1772619602349226500,1.8712265625,-6.8914271546870465,1.0436796161264181,3.2659605290442704
1772619602359257300,1.88125732421875,-5.000559631827473,0.47003246393650766,2.6139894894629716
1772619602369288400,1.891288330078125,-2.5350907247930765,-0.29146511829048394,1.0872748660944402
1772619602379319600,1.901319580078125,-0.8380623509913683,-1.8172376385033129,0.41809988599494097
1772619602389350400,1.911350341796875,-0.8308867602735758,-3.3797461904391644,0.919759514208138
1772619602399381500,1.921381591796875,-2.4790602100133894,-3.712328332015872,1.1789805053673683
1772619602409412400,1.931412353515625,-5.08259026478231,-2.710062676295638,0.9765808871045708
1772619602419443500,1.941443359375,-7.252218030399083,-1.267948390239477,0.9414892615877092
1772619602429474300,1.951474365234375,-8.119712227579951,-0.0008329436928033829,1.2667070118762551
1772619602439505400,1.96150537109375,-7.479267375141382,0.7081257652625441,1.195371741263196
1772619602449536300,1.971536376953125,-5.638395763072372,0.6859525118991732,0.45511020461469887
1772619602459567400,1.9815673828125,-3.302287395444512,0.21670330729484558,-0.5673163417331875
1772619602469598200,1.99159814453125,-1.212175649613142,-0.3877554550051689,-1.1605750801049173
1772619602479630600,2.001630615234375,-0.013991700473427772,-0.8721896615207195,-1.1805803417794405
1772619602489661400,2.011661376953125,0.03278758635818958,-0.9763098150782287,-1.0414228501755745
1772619602499692500,2.021692626953125,-0.4528577495127916,-0.7150937045790254,-0.6680255178034306
1772619602509723400,2.031723388671875,-0.7710445782512426,-0.23834303830340503,-0.14150631975233555
1772619602519754500,2.04175439453125,-0.6711918728798627,0.19595657960325477,0.28165267626307905
1772619602529785300,2.051785400390625,-0.18894377823174,0.6312757498160004,0.6545898437775671
1772619602539816400,2.06181640625,0.656633186173439,1.1868733044438062,0.9166432088185101
1772619602549847300,2.071847412109375,1.740507450044155,1.6408257173255085,0.9577753566086292
1772619602559878400,2.08187841796875,2.8294121092975137,1.7723671079024672,0.5916422430858016
1772619602569909200,2.0919091796875,3.9113253022283314,1.4910732550144195,-0.08465499010905624
1772619602579940400,2.1019404296875,4.976467393100261,0.9733767573010176,-0.8388352350600063
1772619602589971200,2.11197119140625,5.769746599513292,0.21561828853711484,-1.5652894148260355
1772619602600002300,2.122002197265625,6.224877554655075,-0.5839641827385872,-2.174118501164764
1772619602610034400,2.132034423828125,6.374158600062131,-1.228508506385237,-2.421846330668032
1772619602620065500,2.1420654296875,6.155887020537257,-1.6682532379552721,-2.378772912617028
1772619602630096400,2.152096435546875,5.6232163141191,-1.8158172503113745,-2.240038395665586
1772619602640127500,2.16212744140625,4.962738727477193,-1.7248206360906362,-1.9887313925012946
1772619602650158300,2.172158447265625,4.167440582457185,-1.4981246348306536,-1.6871183896839617
1772619602660189400,2.182189453125,3.3689731597512957,-1.1213766768563538,-1.3699766860842704
1772619602670220300,2.19222021484375,2.6654922976851463,-0.6713613111626356,-0.9812480021327733
1772619602680251400,2.20225146484375,2.0725281583458184,-0.1549537572812289,-0.347264162401855
1772619602690282200,2.2122822265625,1.595165497651696,0.36249526847712693,0.14468407300561667
1772619602700312600,2.2223125,1.2884019802033901,0.830911456323415,0.47039106811583037
1772619602710343700,2.23234375,1.2339362305223942,1.10472467113249,0.6398831269025802
1772619602720374500,2.24237451171875,1.4912608865410089,1.3307063135780393,0.6775254598155618
1772619602730406400,2.252406494140625,1.9966075327038764,1.3828335373088716,0.6588382950022816
1772619602740437500,2.2624375,2.432567923429608,1.272857205069065,0.6620964200153946
1772619602750468600,2.272468505859375,2.545361358916759,1.1575900729447604,0.6615773645773529
1772619602760499500,2.28249951171875,2.3660370574235916,1.0550422102052717,0.6397115697279572
1772619602770530600,2.292530517578125,1.880685151541233,1.0607827266186476,0.5662731162905693
1772619602780561400,2.3025615234375,1.1834797164827584,1.0536116659455002,0.5134823140844702
1772619602790592500,2.312592529296875,0.4274567662745714,0.9400164125561714,0.5643263661369681
1772619602800623400,2.322623291015625,-0.38538755683004855,0.4969302616037428,0.7681503181144594
1772619602810654500,2.332654541015625,-1.2072399467766284,-0.3002658259920776,1.1761635482504964
1772619602820685600,2.342685546875,-1.9482272404164074,-1.179262829440087,1.5278884894534945
1772619602830716700,2.352716552734375,-2.278597258901596,-1.6643343109458684,1.2397563149780035
1772619602840747500,2.36274755859375,-1.9889140555918217,-1.7938664075270294,0.4778934065699577
1772619602850779600,2.372779541015625,-1.3569085301965473,-2.1218238119125363,-0.18529665390104055
1772619602860810500,2.382810546875,-0.4401496591091156,-2.710640476183593,-0.46347120572477574
1772619602870841600,2.392841552734375,0.5460965897023677,-3.361135890254378,-0.6428583433210849
1772619602880872400,2.40287255859375,1.2817255711793898,-4.064278314146399,-0.5906612692244351
1772619602890903600,2.412903564453125,1.2586223434895276,-4.406044755914807,-0.19384952432140706
1772619602900934400,2.422934326171875,-0.36420272998213765,-3.770655725561082,1.0734081071749328
1772619602910965500,2.432965576171875,-3.345231634157896,-1.7005248376153408,2.297831536203623
1772619602920996400,2.442996337890625,-5.852819434997439,0.7095077211402356,2.9853602113783357
1772619602931027500,2.45302734375,-6.978468893802166,2.132017581407726,3.2275726384609937
1772619602941058300,2.463058349609375,-6.725334090688825,2.490256726810336,3.1401021525397894
1772619602951089700,2.473089599609375,-5.8319666165828705,2.464172729744017,2.606665137924254
1772619602961120500,2.48312060546875,-4.633324986803531,2.1927919297136365,1.6418604672007262
1772619602971151600,2.493151611328125,-3.0274089625567195,1.8152552325144409,0.6497640310563146
1772619602981183500,2.50318359375,-1.2070628366440534,1.3707237050592898,-0.14576032393500207
1772619602991214600,2.513214599609375,0.5561673173397779,0.9875508286040275,-0.8270078730136156
1772619603001245400,2.523245361328125,2.12649823346436,0.5901179561279714,-1.4215423304095864
1772619603011276500,2.533276611328125,3.369810195097327,0.2002077342417091,-1.8800521143347024
1772619603021307400,2.543307373046875,4.283582159328461,-0.10759075227752327,-2.173927800898254
1772619603031338500,2.55333837890625,5.032231950420141,-0.3677498280044645,-2.2817738431110977
1772619603041369300,2.563369384765625,5.541660312938689,-0.6010162936959416,-2.0488009535387155
1772619603051400400,2.573400390625,5.6637523226469755,-0.7291182844087482,-1.6288003484889864
1772619603061431300,2.583431396484375,5.395464958587288,-0.7191781974136829,-1.3077762504979968
1772619603071462400,2.59346240234375,4.769190670320391,-0.5579887606132775,-1.1217027670055628
1772619603081493500,2.603493408203125,3.912499022182822,-0.2177364497348666,-0.9753241650417447
1772619603091524600,2.613524658203125,3.1076474513977765,0.09914134223163128,-0.7573243881955742
1772619603101555700,2.6235556640625,2.344353633403778,0.372818947962299,-0.5825120111688972
1772619603111587600,2.633587646484375,1.6910574826985596,0.6198836373817175,-0.4851137132123112
1772619603121618400,2.643618408203125,1.2472592379540204,0.7807736528441309,-0.466441745968163
1772619603131649500,2.6536494140625,0.9856038592547177,0.8542593064241111,-0.5646507757857442
1772619603141680400,2.663680419921875,0.8713222310364246,0.7490770765930413,-0.7888457540102303
1772619603151711500,2.67371142578125,0.8066594969898462,0.5712506124421953,-1.0045366693921387
1772619603161742300,2.683742431640625,0.7250088032633065,0.31739531303457913,-1.1543274178870022
1772619603171773400,2.6937734375,0.4541109644442796,0.009980857396870851,-1.1888507419966161
1772619603181804500,2.703804443359375,-0.09978256274461746,-0.18161760006211697,-1.0637858539573848
1772619603191835400,2.71383544921875,-1.1247989794552327,-0.25641455543637276,-0.820015237647295
1772619603201866800,2.72386669921875,-2.4956004259258506,-0.25195209613479674,-0.37523660356327887
1772619603211897600,2.733897705078125,-3.7658097468346354,-0.03951587169989943,0.1890538144774735
1772619603221928700,2.7439287109375,-4.775357376256585,0.27650661861151454,0.8201150447599589
1772619603231960600,2.753960693359375,-5.579445561453699,0.4425499982491135,1.3910846483036874
1772619603241991400,2.763991455078125,-6.100910398724674,0.3140750095054507,1.5789533446498214
1772619603252022500,2.7740224609375,-6.26643823005557,-0.09918079745918512,1.5307235667489467
1772619603262053400,2.784053466796875,-6.40467356531322,-0.6767113669537007,1.5611099371843038
1772619603272084500,2.79408447265625,-6.348156143799423,-1.2036667644649743,1.4350292962312698
1772619603282115600,2.804115478515625,-5.980282031828165,-1.568764689721167,1.0311698247738181
1772619603292146400,2.814146484375,-5.366289717507362,-1.940621879979223,0.5985941080503165
1772619603302177500,2.824177490234375,-4.77063034773469,-2.470057111607492,0.3109913642764091
1772619603312208400,2.83420849609375,-4.279539605939388,-2.9618817206352945,0.09700462246388196
1772619603322239500,2.844239501953125,-3.9198230814605948,-3.2283398234412073,-0.19921295105069875
1772619603332270600,2.8542705078125,-3.728368197190761,-3.417422133360803,-0.5336553335413337
1772619603342301700,2.8643017578125,-3.8988995358973737,-3.5783579607263207,-0.4499905235134065
1772619603352332500,2.87433251953125,-4.8456812048047775,-3.304238237251341,0.35119361080527306
1772619603362364400,2.884364501953125,-6.157547647225856,-2.0470516256533564,1.1141588544320316
1772619603372395500,2.8943955078125,-6.770262196695804,-0.430301634311676,1.6065040532678365
1772619603382426600,2.904426513671875,-6.268838276934623,0.6669990973651408,1.8833359583109617
1772619603392457500,2.91445751953125,-4.701653842142224,1.2026986500851808,1.8193731892272829
1772619603402488600,2.924488525390625,-2.6560475929915905,1.2438295557662844,1.5822820506811142
1772619603412519400,2.93451953125,-0.6772580410510302,1.023807917703688,1.4522308986619115
1772619603422550500,2.944550537109375,0.704957364359498,0.5545914463251829,1.3212478726200758
1772619603432581400,2.954581298828125,1.6637936281979082,0.19041998826414347,1.063778985825181
1772619603442612500,2.964612548828125,2.5036668280035257,0.22691914249137043,0.8978881664007902
1772619603452643300,2.974643310546875,3.210665927323699,0.48793958428800105,0.9689902127798646
1772619603462674700,2.9846748046875,3.9819863999068734,0.8395940906032919,1.0346255181856452
1772619603472705500,2.99470556640625,5.033330851572751,0.961058031541109,0.9586985358681529
1772619603482737700,3.004737548828125,6.064583532324433,0.8007074567176401,0.9360853567175567
1772619603492768500,3.0147685546875,6.802846953958272,0.5534193338058888,0.8700541107967495
1772619603502799600,3.024799560546875,7.330553315967321,0.4127500493995845,0.5498300406096502
1772619603512830500,3.03483056640625,7.764182048875093,0.3931942850582301,0.18212112913746387
1772619603522861600,3.044861572265625,8.007116360491514,0.2845639605998993,-0.2016658971607685
1772619603532892400,3.054892333984375,8.015138923427463,0.08547595110312103,-0.6006128639942034
1772619603542923500,3.064923583984375,7.8602552357077595,-0.0038312487259507177,-0.8812686016418039
1772619603552954400,3.074954345703125,7.653903811079263,0.10687193648368119,-0.9865867328122258
1772619603562985500,3.0849853515625,7.376513687631488,0.3245435042887926,-0.9808717161662877
1772619603573016300,3.095016357421875,7.094999762251973,0.5946018235437571,-0.8694223156992346
1772619603583047700,3.105047607421875,6.77849460299015,0.8420711482413112,-0.6505935406830161
1772619603593078500,3.11507861328125,6.469615700823068,1.0430857418864965,-0.5124530441019683
1772619603603109600,3.125109619140625,6.232654618397355,1.2215405670687556,-0.49223187465444207
1772619603613141500,3.1351416015625,6.039826692208647,1.3504621305361388,-0.499629072233662
1772619603623172600,3.145172607421875,5.660807501366734,1.358058723144978,-0.458493490377441
1772619603633203500,3.155203369140625,4.97268261386454,1.218639877191186,-0.5094255860395729
1772619603643234600,3.165234619140625,4.082575018337368,1.0756205225273967,-0.6019767362259328
1772619603653265400,3.175265380859375,2.8073271187394857,0.953086175879091,-0.4517787951696664
1772619603663296500,3.185296630859375,0.9245780204057693,0.9496151387676596,-0.2041095639858395
1772619603673327400,3.195327392578125,-1.164599074923992,1.1724189548946917,0.33887612715438004
1772619603683358500,3.2053583984375,-3.1366420752137896,1.588236429040879,1.138667199679464
1772619603693389300,3.215389404296875,-4.668079489320516,2.022683784855157,1.8786580296278
1772619603703421200,3.225421142578125,-5.447286915761232,2.1953873530343175,2.696627440661192
1772619603713452000,3.2354521484375,-5.486941465279459,1.8768682236015795,3.8379745270743966
1772619603723483100,3.245483154296875,-5.422754532051086,1.234525720848143,4.258658438213169
1772619603733514000,3.255513916015625,-5.308187657150626,0.676515990512073,3.1952059078633783
1772619603743546000,3.265546142578125,-4.928113404297829,-0.14378858547061682,0.9375653661422431
1772619603753577000,3.275576904296875,-3.710002519416809,-1.2050216862052678,-1.5180721749685704
1772619603763608000,3.285608154296875,-1.7605431068569422,-2.702289704206586,-2.70660815192759
1772619603773639000,3.295638916015625,-0.618667320394516,-4.6355552300736305,-2.2185088470332324
1772619603783670000,3.305669921875,-1.6409353151798247,-5.571625243091583,-1.1082838979840277
1772619603793701000,3.315701171875,-4.857487377932667,-4.42494994739294,-0.34905762168988586
1772619603803732200,3.325732177734375,-8.49983908740282,-1.7811019107609987,0.20357633389197288
1772619603813763000,3.33576318359375,-11.404340047693251,0.794742556963861,1.0912095751948654
1772619603823794200,3.345794189453125,-12.565340805864333,2.4091639592275023,2.1107973909854887
1772619603833825000,3.355824951171875,-11.862435697859524,3.1509298360243436,2.351380609431118
1772619603843856100,3.365856201171875,-9.574698854690789,3.095777565383911,1.5480949727885425
1772619603853887000,3.375886962890625,-6.193456580474972,2.72388808029145,0.06841836025305092
1772619603863919000,3.385919189453125,-2.3628420607745646,1.6327255591087042,-0.9786279558274894
1772619603873950000,3.395949951171875,1.4274731817632913,0.4519549554541707,-1.595418157238513
1772619603883981000,3.40598095703125,4.07483302590847,-0.5288057015530765,-2.3265286383777855
1772619603894012000,3.416011962890625,5.569637284144759,-1.3051686983481048,-2.9795065169140695
1772619603904043000,3.42604296875,6.1346215296685696,-1.80291977481544,-3.054486354574561
1772619603914073900,3.436073974609375,5.957765664115548,-1.9347459736831485,-2.8096657908201217
1772619603924105200,3.446105224609375,5.433759910190105,-1.6640863275341689,-2.5339821790292856
1772619603934136000,3.456135986328125,4.9999324398398395,-1.2588291181080042,-2.2203978756502267
1772619603944167200,3.466167236328125,4.723029223126173,-0.9600818799853325,-1.9082284075051545
1772619603954198000,3.476197998046875,4.607203288075327,-0.6745031893849373,-1.7166056193225085
1772619603964229000,3.48622900390625,4.636206679719686,-0.3882397313907742,-1.6201391953885553
1772619603974260000,3.496260009765625,4.739088962045312,-0.1408842423312366,-1.6137351735651493
1772619603984291000,3.506291015625,4.921094465446472,0.024223902282863852,-1.6977872293449938
1772619603994323000,3.516322998046875,5.166258728072047,0.0956317266754806,-1.8142799577414987
1772619604004354000,3.52635400390625,5.3527831702023745,0.05487433048188686,-1.9055906063474715
1772619604014385000,3.536385009765625,5.514872259256244,-0.00492518144249916,-2.0199492453247307
1772619604024416000,3.546416015625,5.588115774643421,-0.11269479741826653,-2.110956234809011
1772619604034446800,3.55644677734375,5.459275459718704,-0.25485578168705103,-2.16317858947739
1772619604044478000,3.56647802734375,4.992316704139113,-0.39981180350184437,-2.27571308176741
1772619604054509000,3.576509033203125,4.14848103044331,-0.4606579018697142,-2.438699996443838
1772619604064540200,3.5865400390625,2.8947715934365985,-0.3933116278275847,-2.357161530920118
1772619604074571000,3.596571044921875,1.153047168818116,-0.27141747877895833,-1.979182789041847
1772619604084602000,3.60660205078125,-0.8241776180237531,0.09815013923719525,-1.3587794386349619
1772619604094633200,3.61663330078125,-2.9515502962350846,0.6557235239826142,-0.42653380621075626
1772619604104664000,3.6266640625,-4.987991242155433,1.227455344070494,0.5897733804740012
1772619604114696000,3.636696044921875,-6.681871965581179,1.5573849253118037,1.6480721813224255
1772619604124727000,3.64672705078125,-7.797572861823439,1.461397224805504,2.6500159116119146
1772619604134758000,3.6567578125,-8.404085634043811,0.9234608529441058,3.3223867651432752
1772619604144789000,3.6667890625,-9.127498108026385,-0.1663945311628282,3.5208792929649353
1772619604154819800,3.67681982421875,-9.760324886676669,-1.3730905803211033,3.121552058109641
1772619604164851000,3.686850830078125,-9.946007032763957,-1.9013371866866946,1.5283968773670493
1772619604174882000,3.696882080078125,-9.63150736810565,-2.078210003374517,-0.7732420882955193
1772619604184913200,3.7069130859375,-9.001762188857793,-2.634206932583451,-2.616046421992779
1772619604194944300,3.7169443359375,-8.267745903274417,-3.3735298001423475,-2.9208798481613396
1772619604204975000,3.72697509765625,-8.057166631817816,-3.822831903000176,-2.2096531942740083
1772619604215006200,3.737006103515625,-8.252173071089386,-3.5385105189844963,-1.3650190636768937
1772619604225037000,3.747037109375,-8.384696458441018,-2.772299644500017,-0.5683560965770855
1772619604235068200,3.757068115234375,-8.07786279836595,-2.1915129958190023,0.15306041781529783
1772619604245100000,3.76710009765625,-7.0148793468326325,-1.708698061068356,0.5328467205721885
1772619604255131000,3.777130859375,-5.283324434050917,-1.1716837724879383,0.5436809799280017
1772619604265162000,3.787161865234375,-3.5176638380497693,-0.6036107671685517,0.5137368003021925
1772619604275193000,3.797193115234375,-2.0324457388043404,0.08772460681274533,0.5273910855147987
1772619604285224000,3.807223876953125,-0.8221066569685935,0.7456836347624659,0.6065342899324372
1772619604295255000,3.817255126953125,0.02080196501016617,1.0958660226985812,0.7877185035459697
1772619604305286100,3.8272861328125,0.6280640942931175,1.2665394002243875,1.072328933636099
1772619604315317200,3.837317138671875,0.9578174421846866,1.379938108128309,1.4067870982177555
1772619604325348000,3.84734814453125,1.076690489846468,1.319217389705777,1.6767925182417034
1772619604335379200,3.857379150390625,1.1566419784396886,1.1308810027826577,2.057445155504346
1772619604345410000,3.86741015625,1.4121686451256275,0.8942753827311098,2.5883570355564354
1772619604355441200,3.877441162109375,2.107443988904357,0.7503998496294021,3.1078166704848407
1772619604365472000,3.887471923828125,3.2033184871703386,0.692998923279345,3.3893905093580483
1772619604375504100,3.897504150390625,4.553081821787357,0.6925973567411303,3.4393946034550664
1772619604385535000,3.907534912109375,6.028046238043904,0.7374132345452904,3.3496947510465978
1772619604395566000,3.917566162109375,7.589820338225365,0.7745958409920335,3.350531786392629
1772619604405597000,3.927596923828125,8.730517728558182,0.5878996955566108,3.35143399592936
1772619604415628000,3.9376279296875,9.0789997423172,0.23799071773439645,2.9395056381762026
1772619604425659000,3.947658935546875,8.88856543326676,-0.050101124730706215,1.9338393802322447
1772619604435690200,3.957690185546875,8.357359538704156,-0.33384193237945436,0.9848382086444646
1772619604445721000,3.96772119140625,7.696985996958613,-0.6316627033069729,0.28990159530080856
1772619604455752200,3.977752197265625,7.030612338015437,-0.878326556840539,-0.33379122510552406
1772619604465783000,3.987782958984375,6.281492006802559,-1.0883147305361927,-0.8151789765972643
1772619604475814100,3.997814208984375,5.478699706634878,-1.2618385290570557,-1.2140895934756843
1772619604485845000,4.007844970703125,4.814956980717182,-1.3203238896429539,-1.558757090447843
1772619604495877000,4.017877197265625,4.489129281836748,-1.1665265358552337,-1.7559705382443964
1772619604505908000,4.027907958984375,4.335106010338664,-0.8340341183885931,-1.864823565542698
1772619604515939000,4.03793896484375,4.2928567681521175,-0.4843040042646229,-1.8790873609557748
1772619604525970000,4.047969970703125,4.338184102609754,-0.07482610840350389,-1.789012537755072
1772619604536001000,4.0580009765625,4.143485706374049,0.4136249325379729,-1.652859561729431
1772619604546031900,4.068031982421875,3.469709077697992,0.8514913030155002,-1.4523567169986664
1772619604556063000,4.07806298828125,2.460938862389326,1.1678826266393065,-1.1770633466344327
1772619604566094000,4.088093994140625,1.437503577390313,1.3295209031857549,-0.717906643107906
1772619604576125200,4.098125244140625,0.5638946967214346,1.3069427222833037,-0.1433781780388206
1772619604586156000,4.108156005859375,0.06436345883905888,1.2146893859997392,0.346813276829198
1772619604596187100,4.118187255859375,-0.11670213336348532,1.042668685518205,0.6148310301672667
1772619604606218000,4.128218017578125,-0.2989747632682323,0.5518237351775169,0.8670540521979332
1772619604616249000,4.1382490234375,-0.7845300827682018,-0.20300445228815078,1.17589101491943
1772619604626281000,4.148281005859375,-1.1177069753676652,-0.6705763713300228,1.1665773161944002
1772619604636312000,4.15831201171875,-0.7092085920631885,-0.7086094571262598,1.2457535095661878
1772619604646343000,4.168343017578125,0.19219255089461804,-0.6097729430601,1.5263912366330623
1772619604656374000,4.1783740234375,1.2794020966678856,-0.37341684079021215,0.9260195244509726
1772619604666404900,4.18840478515625,2.300831302541494,-0.48485652358084913,-0.06705408616252242
1772619604676436000,4.19843603515625,2.6365993806779384,-1.080013789050281,-0.742639737021923
1772619604686467000,4.208467041015625,1.6605273198783397,-1.4934575198024511,-1.1311191223874688
1772619604696498400,4.21849853515625,-0.9942875164479017,-1.108949083894491,-1.0017352751705795
1772619604706529300,4.228529296875,-4.837705403620005,-0.036250001771748065,-0.7169044072628021
1772619604716560400,4.238560302734375,-8.705523572555183,1.269513155338168,-0.08542692432962358
1772619604726591200,4.24859130859375,-11.260673919558524,2.340676552326232,0.9545892008531838
1772619604736622300,4.258622314453125,-11.977356208503245,3.0431276329532264,1.8837039148405192
1772619604746653400,4.2686533203125,-11.505604957950114,3.4257743666425347,1.8779208013944326
1772619604756685600,4.278685546875,-10.15493853701353,3.676853114008903,1.3024766827851533
1772619604766716400,4.28871630859375,-8.375767886576057,3.1440260479852555,1.2578269553281367
1772619604776747500,4.29874755859375,-6.236577344799041,2.0892202038191257,1.608521238309145
1772619604786778400,4.3087783203125,-4.7271290596604345,1.4968779957704246,0.7677620494492352
1772619604796809500,4.3188095703125,-3.4789907007843253,1.1146744758039713,-0.351039735417813
1772619604806840300,4.32884033203125,-2.222766066086292,0.5601954038120806,-0.5913181987632066
1772619604816871400,4.338871337890625,-0.9270879574000835,0.02897913398593664,-0.7655440080735832
1772619604826902300,4.34890234375,0.43212125095427034,-0.3669412150353193,-1.0132898116249591
1772619604836933400,4.358933349609375,1.6853028646945953,-0.7177737374432385,-1.0311658061858266
1772619604846964500,4.368964599609375,2.8488568144798276,-0.8407628421217203,-0.8618213391762226
1772619604856995300,4.378995361328125,3.904384689310193,-0.6569385988608002,-0.7283629359968006
1772619604867026400,4.3890263671875,4.68075367745459,-0.3590004851639271,-0.5418765973871573
1772619604877057300,4.399057373046875,5.177205069500207,-0.04455751912891864,-0.24699242790080606
1772619604887089400,4.40908935546875,5.43182981891036,0.2508776718363166,-0.1002290644031018
1772619604897120500,4.41912060546875,5.5073973933309315,0.4970972887337208,-0.16212240680158138
1772619604907151400,4.4291513671875,5.346498390844464,0.7013122858554124,-0.254994386440143
1772619604917182500,4.439182373046875,5.099031696495413,0.884443578416109,-0.32069260101430114
1772619604927213300,4.44921337890625,4.834132221308351,1.0538614029228686,-0.38377559158876534
1772619604937244400,4.459244384765625,4.5089188549339765,1.2395002943903206,-0.44820663577131925
1772619604947275500,4.469275634765625,4.2485950170993805,1.3745181289061903,-0.5562020233269781
1772619604957306400,4.479306396484375,3.8926299541085956,1.4500950556769967,-0.5710593276537954
1772619604967337500,4.48933740234375,3.3080314920544622,1.4977344664692878,-0.7460582402285189
1772619604977368300,4.499368408203125,2.7473206860661503,1.5093328420653938,-1.0669337965942918
1772619604987399400,4.5093994140625,2.129982568448782,1.3451084945484995,-1.1589495247296988
1772619604997430300,4.51943017578125,1.4529063137054443,1.129809501093626,-1.0725253329910338
1772619605007462400,4.52946240234375,0.9277689254015684,0.8981994243070482,-0.8732335445504635
1772619605017493500,4.539493408203125,0.2554196991801262,0.5101926248893142,-0.5399446429438889
1772619605027524400,4.5495244140625,-0.6115963590949773,0.10247487056851387,-0.13496551980674265
1772619605037555500,4.559555419921875,-1.407488378354907,-0.22878800510317085,0.26200572650693355
1772619605047586600,4.569586669921875,-1.9989199012994765,-0.6500763118758798,0.4795048603545874
1772619605057617400,4.579617431640625,-2.7854227454453704,-1.429295721015334,0.7858022215958684
1772619605067648500,4.5896484375,-4.115960570588708,-2.268174064564705,1.3403002174839376
1772619605077679400,4.599679443359375,-5.436817544195056,-2.7170827841907736,1.821092560365796
1772619605087710500,4.60971044921875,-6.604649025169015,-2.975048076200485,2.3459917559996244
1772619605097741300,4.6197412109375,-7.379736156809329,-3.0724764770343898,2.6076544412225484
1772619605107772400,4.6297724609375,-7.666194552853703,-3.0824028277650473,2.561936353881657
1772619605117803300,4.63980322265625,-7.489338687300681,-3.1949718068465587,2.386055470840633
1772619605127834400,4.64983447265625,-6.961465736553072,-3.4625630053356287,2.172071651637554
1772619605137866500,4.659866455078125,-6.320869492945075,-3.9271822120517488,1.64281835244745
1772619605147897600,4.669897705078125,-5.688273600441217,-4.392424519102275,0.6789280931551009
1772619605157928400,4.679928466796875,-5.240136449709534,-4.701925352559983,-0.3268035581752658
1772619605167959600,4.68995947265625,-4.999942376711965,-4.580039679078758,-0.8475384737364947
1772619605177990400,4.699990478515625,-4.686490759801864,-3.6615284113660453,-0.9963928181640803
1772619605188021500,4.710021484375,-3.941698813182115,-2.2919781340003014,-1.0904046154875309
1772619605198052400,4.72005224609375,-2.7607874858826396,-0.9506780918240547,-1.0634998766228556
1772619605208083500,4.73008349609375,-1.3269453536093234,0.13592150535732506,-0.8120015156049281
1772619605218114300,4.7401142578125,0.17782792545557022,0.8585369837433099,-0.4420352536600083
1772619605228145400,4.7501455078125,1.4672007965177296,1.2466434441432357,-0.3202114664338529
1772619605238176300,4.76017626953125,2.372715220013261,1.314354605975002,-0.45725430397130545
1772619605248207400,4.770207275390625,2.8799305826574564,1.1722810077287256,-0.7358011231735349
1772619605258239500,4.780239501953125,3.170944157788157,0.9166790838494896,-1.1100016616873443
1772619605268270600,4.7902705078125,3.4953228269040584,0.6354878145530819,-1.4537997554138302
1772619605278301400,4.800301513671875,3.9370729069471357,0.44842941167652606,-1.6808096449285745
1772619605288332500,4.81033251953125,4.478943987908959,0.34313568429499863,-1.6908751118689775
1772619605298363400,4.82036328125,5.1092397867769,0.31977044466808435,-1.4956149900972842
1772619605308394500,4.83039453125,5.845649104976654,0.4011696478515863,-1.2220741624888032
1772619605318425300,4.84042529296875,6.6202995987653726,0.514241900280118,-0.8773352077156304
1772619605328456400,4.85045654296875,7.27717886865437,0.5981938566863536,-0.5686745514091104
1772619605338487300,4.8604873046875,7.744238161998987,0.7289777068942784,-0.4040533135291189
1772619605348518400,4.870518310546875,7.874934918445348,0.8336049331910907,-0.23098946067020296
1772619605358549200,4.88054931640625,7.6875354470461605,0.8873914684362709,-0.005434373073652386
1772619605368580400,4.890580322265625,7.253396426528692,1.027760600852221,0.11549122320376336
1772619605378611200,4.900611083984375,6.772905989202856,1.2046937694251536,0.07395312496125697
1772619605388643600,4.9106435546875,6.34458237696588,1.3726276389844714,-0.04401208714060485
1772619605398674400,4.92067431640625,5.92547901301682,1.503314312428236,-0.04278758684694767
1772619605408705500,4.93070556640625,5.6867719637066125,1.6633051140286028,-0.03942344417609274
1772619605418736400,4.940736328125,5.713944048270583,1.8349762704201042,-0.13323606566563248
1772619605428767500,4.950767578125,5.911798862710595,1.9499195774175226,-0.27815022110007703
1772619605438798300,4.96079833984375,6.177036776071787,2.0633045490570363,-0.4034122391466051
1772619605448829400,4.970829345703125,6.4379731928467745,2.1036038262195884,-0.5442373717017471
1772619605458860300,4.9808603515625,6.598974486663937,2.121352248878032,-0.6817908621750771
1772619605468891400,4.990891357421875,6.537126225516199,2.0699542162045836,-0.7440601252138614
1772619605478922200,5.000922119140625,5.8297407572269435,1.7528354550890624,-0.673249901388213
1772619605488953300,5.010953369140625,4.436852566632628,1.135705427264422,-0.33721718096621334
1772619605498984400,5.020984375,2.6676030062288043,0.4769027880974114,0.21506058158911764
1772619605509016600,5.0310166015625,0.7870844434261322,-0.15804682792574165,1.1827326244425027
1772619605519047400,5.04104736328125,-0.8296230239480733,-0.6635572863481939,1.907421767297387
1772619605529078500,5.05107861328125,-1.8696809424459933,-0.5919762973457574,1.5363178796246646
1772619605539109400,5.061109375,-2.3155232602387663,-0.6917150209486485,1.4163896238215268
1772619605549140500,5.071140380859375,-2.494092943972349,-1.5273124431312084,2.1624616733796893
1772619605559171300,5.08117138671875,-2.1344033075004814,-2.0424363869428634,2.3910426116034387
1772619605569202400,5.091202392578125,-1.469460558143258,-1.767398964101076,1.428246942614764
1772619605579233300,5.1012333984375,-1.4743261183530092,-1.6402552239611743,-0.013329875563830137
1772619605589264400,5.111264404296875,-2.5498107395410536,-1.988698659275472,-1.1185839773979038
1772619605599295500,5.12129541015625,-4.841037762913108,-2.1506083001092073,-1.8188894973635672
1772619605609326300,5.131326416015625,-8.059113674232362,-1.6044304618641734,-2.344351149185747
1772619605619357400,5.141357421875,-11.6296919408679,-0.6687041477173566,-2.243694726216048
1772619605629388300,5.15138818359375,-14.543250652360916,0.13974793177768588,-1.224025661882758
1772619605639420400,5.16142041015625,-15.822627614587544,0.8171215620324015,0.30642317957803605
1772619605649451500,5.171451416015625,-14.742654449808597,1.4992683980382977,1.5998434263348578
1772619605659482400,5.181482421875,-11.779577381908894,1.9991043179556727,2.156928150780499
1772619605669513500,5.191513427734375,-8.106121509122849,2.0470168466009198,1.7941363105095922
1772619605679544600,5.201544677734375,-4.747880171266198,1.3396290402241051,1.2743861682020128
1772619605689575400,5.211575439453125,-2.570516842961311,0.22409414819851517,0.7758503710977732
1772619605699605200,5.221605224609375,-1.6102970158100127,-0.5876145950049162,-0.052788336254376914
1772619605709636000,5.231635986328125,-1.13287941005826,-0.8837446363665163,-0.7440997265718877
1772619605719667200,5.241667236328125,-0.7714742018401622,-0.9269934109844267,-0.8863581798657775
1772619605729698300,5.2516982421875,-0.24835925927460192,-0.9945039356775581,-0.7691380139775573
1772619605739729200,5.261729248046875,0.5797288101911544,-1.1011575532354414,-0.563678935078904
1772619605749760300,5.27176025390625,1.533415436181426,-1.243388534000516,-0.29423282943814993
1772619605759792000,5.281792236328125,2.5032249294549227,-1.3090361874312162,0.005437460079882293
1772619605769823000,5.291822998046875,3.362435866937041,-1.3517027782469988,0.2740830629927106
1772619605779854000,5.30185400390625,4.076022527953982,-1.3887063748650252,0.4582030195308849
1772619605789885000,5.311885009765625,4.704801492518186,-1.406481977791339,0.5743139455355704
1772619605799916000,5.321916015625,5.170764807319641,-1.4035212282896041,0.5579371765565126
1772619605809947100,5.331947021484375,5.515820938283205,-1.3885468003891408,0.389904230536893
1772619605819978200,5.341978271484375,5.6736634758085005,-1.3759952157214284,0.13200937341488897
1772619605830009300,5.35200927734375,5.624191881152987,-1.3161575637437402,-0.17689108299687503
1772619605840040200,5.362040283203125,5.369556610348821,-1.2715179192893207,-0.53209100683406
1772619605850071300,5.3720712890625,4.9329041457057,-1.3179539456412195,-1.0984238174226135
1772619605860102100,5.38210205078125,4.36234180778861,-1.3106947682932018,-1.5497111758135258
1772619605870134000,5.392134033203125,3.8286604630231853,-1.175042289135605,-1.7716259341463445
1772619605880165000,5.4021650390625,3.243608411982655,-0.8830129610911012,-1.6854215226382017
1772619605890196000,5.412196044921875,2.482797058454156,-0.4620869117595255,-1.3314905958235264
1772619605900227000,5.42222705078125,1.3742846124112604,-0.020309797579050062,-0.8575540371205658
1772619605910258200,5.432258056640625,0.05556289726793766,0.3362704747006297,-0.4337587890282273
1772619605920289000,5.4422890625,-1.207621055048704,0.57126537161991,-0.0018050035953521728
1772619605930320100,5.452320068359375,-2.4627245767623185,0.6616216421104967,0.44287206981033084
1772619605940351200,5.462351318359375,-3.773054895657301,0.5711987361244857,0.796491738718748
1772619605950382300,5.47238232421875,-5.109210560682416,0.3824458042897284,0.9653473992981016
1772619605960413200,5.4824130859375,-6.679470165136456,-0.01811579466611147,0.9918592663876712
1772619605970444300,5.4924443359375,-8.45054694096744,-0.47943625209778545,0.9086294867761433
1772619605980475100,5.50247509765625,-9.770847449734806,-0.6955567910686135,0.6883901143096387
1772619605990506200,5.51250634765625,-10.096542462146282,-0.5914323997274041,0.34909678465649485
1772619606000538000,5.5225380859375,-9.507386482918262,-0.2572051212921738,0.15723858028277754
1772619606010569200,5.5325693359375,-8.278588784328102,-0.034850071845948696,0.3417075511880219
1772619606020600000,5.54260009765625,-6.88942516721487,0.05957213290929794,0.9173689658097922
1772619606030631200,5.552631103515625,-5.797141386917233,0.0709086426988244,1.6202696899004279
1772619606040662000,5.562662109375,-5.019525613582134,-0.1864811875104904,2.3529186326533553
1772619606050693000,5.572693115234375,-3.798116271677613,-0.49868835731744765,2.943786968757212
1772619606060724000,5.582723876953125,-1.9068074347913264,-0.6296905264511704,2.9556700065135955
1772619606070755300,5.59275537109375,-0.006709142249822616,-0.8101885478988289,2.227680726134777
1772619606080786200,5.6027861328125,0.6704688193023205,-1.3956652540922163,0.537608455081284
1772619606090817300,5.6128173828125,-0.4878700261831283,-2.150316331425309,-1.606336441615969
1772619606100848000,5.62284814453125,-1.7184885104596614,-2.077482565882802,-3.26870252122879
1772619606110879200,5.632879150390625,-1.7997943362712858,-1.165992575109005,-3.8911379619851707
1772619606120911000,5.6429111328125,-1.527286724168062,-0.47568888226300476,-3.4479870752334594
1772619606130942200,5.652942138671875,-0.8506032681345939,0.1479233471877873,-2.5405098272323605
1772619606140973000,5.66297314453125,0.1438356394827366,0.643418753682822,-1.3799071284681559
1772619606151004200,5.673004150390625,1.0487883374422788,0.8830991780698298,-0.41023755512200294
1772619606161035000,5.683034912109375,1.8985452178806066,1.084916758660972,0.1879805592227727
1772619606171066000,5.693066162109375,2.642245862132311,1.1232402057059108,0.6660173928514123
1772619606181097000,5.703096923828125,3.3162329186886548,0.9820492355130612,0.9231491566464305
1772619606191128300,5.71312841796875,4.078300994279981,0.7419502934530376,0.8669611132174729
1772619606201159200,5.7231591796875,4.958270642152429,0.41871202654391526,0.6243950503915549
1772619606211190300,5.733190185546875,5.77693154258132,-0.10956190622001885,0.1564026043826714
1772619606221221000,5.74322119140625,6.201512461158633,-0.8798457292318344,-0.44606582435034214
1772619606231252200,5.753252197265625,6.261152398607134,-1.5952613592416047,-1.0215003714136779
1772619606241284000,5.7632841796875,6.062115096384287,-1.9662633939750491,-1.4673628552116453
1772619606251315200,5.773315185546875,5.613102916383743,-2.1237445508420465,-1.71906952521801
1772619606261346000,5.783345947265625,5.242099858736991,-1.9827152009516953,-1.7661609467387198
1772619606271377200,5.793377197265625,5.059106513342261,-1.5901204892218113,-1.6195501434542239
1772619606281408000,5.803407958984375,4.824851182743907,-1.1907023612126708,-1.266304860816151
1772619606291439000,5.813439208984375,4.35991838003397,-0.8360330371208489,-0.9912314168129116
1772619606301470000,5.823469970703125,3.8842841505676504,-0.4695370816349983,-0.7807058483049273
1772619606311501000,5.8335009765625,3.418524249383807,-0.06629281946644186,-0.5952021275244653
1772619606321532200,5.8435322265625,3.0352754581481216,0.20132453637719153,-0.434753353023529
1772619606331563300,5.853563232421875,2.9910750818938014,0.45730552270188923,-0.350055108294636
1772619606341594000,5.863593994140625,3.234414467179775,0.8213054235883057,-0.2232031907081604
1772619606351625200,5.873625244140625,3.7078064706772564,1.2579738164529204,-0.14698687005527317
1772619606361657000,5.883656982421875,4.329920716655254,1.6733115442581474,-0.20651604060567913
1772619606371688200,5.893688232421875,4.869609777402878,1.9558239791557193,-0.42017201609387994
1772619606381719000,5.903718994140625,5.023968564465641,2.003498315130919,-0.7675274369757622
1772619606391750100,5.913750244140625,4.947018011254072,1.751616726949066,-0.9772225460089743
1772619606401781000,5.923781005859375,4.725882858991623,1.3018810549795627,-1.0099844864692538
1772619606411812000,5.93381201171875,4.302354664337635,0.8757841788813471,-1.0765159369971602
1772619606421843000,5.943843017578125,3.427013845309615,0.42083939396142955,-0.6450348836425691
1772619606431874000,5.9538740234375,1.8061212012052534,-0.24989888993203638,-0.024173268074169755
1772619606441905000,5.96390478515625,-0.3919558293044567,-0.7299494745358824,0.11475830581933259
1772619606451936300,5.973936279296875,-2.32847801887989,-0.8139870633989572,0.39247335037253794
1772619606461967000,5.983967041015625,-3.664714347925782,-0.7342942257419228,1.1787966001678258
1772619606471998200,5.993998291015625,-4.363026867443323,-0.556006866081059,1.7325754880011082
1772619606482029300,6.004029296875,-4.533860403966903,-0.1676414624840021,1.740828060300648
1772619606492061200,6.014061279296875,-3.882332431977987,0.12575930004417896,1.3981123549833894
1772619606502092000,6.024092041015625,-2.460119947221875,-0.08475333591699599,0.9124075440101325
1772619606512123100,6.034123046875,-1.5733809513449668,-1.066947386728227,0.5058818490181118
1772619606522154000,6.044154052734375,-2.8943057294905183,-2.291519284316897,0.23637875249311327
1772619606532185000,6.05418505859375,-6.455716354808211,-2.5714742898166176,-0.07218669981062412
1772619606542216000,6.0642158203125,-10.757844809174538,-1.4828516623750327,-0.1708671099996194
1772619606552247000,6.0742470703125,-14.302476733648776,0.19226210899949073,0.2438860228506848
1772619606562278100,6.084278076171875,-15.890475408411024,1.6575779685534535,1.0252684187103063
1772619606572309200,6.094309326171875,-14.988892479145527,2.48724702360034,1.6827892744384705
1772619606582340400,6.10434033203125,-12.102708096790312,2.578418994387984,1.9464757205739616
1772619606592371200,6.11437109375,-8.374914484617113,1.890232147565484,1.8663497521966694
1772619606602402300,6.12440234375,-4.97904338106811,0.937614904372394,1.2746386816583573
1772619606612434200,6.13443408203125,-2.1924042455703017,0.09471241987347602,0.3203672415174544
1772619606622465000,6.144465087890625,0.057384267476201054,-0.5819166756242513,-0.4266386913573369
1772619606632496000,6.15449609375,1.736859448930621,-0.9978758963286876,-0.8414681408468634
1772619606642527000,6.16452685546875,2.9406676676928996,-1.128538604374975,-0.9509140194717794
1772619606652558000,6.17455810546875,3.84331091966629,-0.9888114231243729,-0.7640371106419712
1772619606662589200,6.184589111328125,4.6176182991057635,-0.7358186588302255,-0.4519470644086599
1772619606672620000,6.1946201171875,5.200899833342433,-0.4647290968313813,-0.03578808334842324
1772619606682651100,6.204651123046875,5.575987529954314,-0.21885931628495453,0.4068617950785905
1772619606692682000,6.214681884765625,5.774403485408425,0.004944470664858818,0.6745830496881157
1772619606702713600,6.224713623046875,5.847488595363497,0.15460165590792893,0.6928427098043263
1772619606712744400,6.234744384765625,5.753068436434865,0.20064327611476182,0.5627816939782351
1772619606722775600,6.244775634765625,5.360974659964442,0.09759878896474837,0.4129438914712518
1772619606732807700,6.2548076171875,4.843828854936361,-0.02329071308597922,0.10439838597699999
1772619606742838500,6.264838623046875,4.26243357283771,-0.10423676567450166,-0.23163265394456684
1772619606752869600,6.27486962890625,3.6964223223537203,-0.14844737106189132,-0.522130242377147
1772619606762900500,6.284900390625,3.3215672654539343,-0.06465440460965037,-0.816129847581312
1772619606772931600,6.294931640625,3.2502889126598835,0.13041618593931198,-1.040308824519068
1772619606782962700,6.304962646484375,3.5591689838707445,0.3410150388792157,-1.1656759103752672
1772619606792993500,6.31499365234375,4.075259726887941,0.5992813596621155,-1.2825146757304668
1772619606803024600,6.325024658203125,4.397089296042919,0.7551219097152352,-1.227347207520902
1772619606813055500,6.335055419921875,4.185434504309296,0.8363143382802605,-1.1063014919951557
1772619606823086600,6.345086669921875,3.3209114318937063,0.9485051316991447,-0.9134784611772745
1772619606833117400,6.355117431640625,1.776030014324188,0.988063235105574,-0.6326655967392028
1772619606843148500,6.3651484375,0.053037178182601924,1.0527040495812892,-0.30085655842684206
1772619606853180700,6.3751806640625,-1.366972828093171,1.145688038226962,0.09588986615501344
1772619606863211500,6.38521142578125,-2.2035855647981166,1.0803034196466206,0.7161854453384876
1772619606873242600,6.39524267578125,-2.7652169927626846,0.6541796555414795,1.3466390651166438
1772619606883273700,6.405273681640625,-3.73001187274456,0.010464403130114078,1.7427483608387409
1772619606893304600,6.4153046875,-5.121368615987897,-0.8814262764215469,2.1129002084836364
1772619606903335700,6.425335693359375,-6.492092321047187,-1.8150310683697461,2.3486333565495907
1772619606913366500,6.435366455078125,-7.612640072798729,-2.3722332817152143,2.204272670279443
1772619606923397600,6.445397705078125,-8.348505201119185,-2.282838257472217,1.169088203036785
1772619606933428500,6.455428466796875,-8.890171114897727,-1.9041978368148207,-0.28074264874607324
1772619606943459600,6.46545947265625,-9.221756354391575,-1.7545257462635635,-1.4169967959344387
1772619606953490400,6.475490478515625,-9.528283724996447,-2.043979232470691,-1.7775138231411576
1772619606963521500,6.485521484375,-9.944719915562867,-2.4971453172802924,-1.512049699808657
1772619606973553700,6.4955537109375,-10.085583845758437,-2.5794807784005997,-1.2236094822973012
1772619606983584800,6.505584716796875,-9.50043476408422,-2.386717734141648,-0.9244711259651929
1772619606993615600,6.51561572265625,-7.971589704558252,-2.264152261702716,-0.362880322271958
1772619607003646700,6.525646728515625,-5.619470113328099,-2.178233973659575,0.13396978676766155
1772619607013677600,6.535677490234375,-2.9360125353634356,-2.012837659753859,0.3013927841953933
1772619607023708700,6.545708740234375,-0.351876332372427,-1.6417843332245945,0.10786447291867807
1772619607033739500,6.555739501953125,1.7021160523295402,-1.1570957135565578,0.0011304744678083806
1772619607043770600,6.5657705078125,3.0621815852522847,-0.7674481611944735,0.23461605366952715
1772619607053801500,6.575801513671875,3.618296880143881,-0.5393002075605094,0.5151148106571286
1772619607063832600,6.58583251953125,3.455611578762531,-0.4189432049512863,0.5961396275702864
1772619607073863400,6.595863525390625,2.96621770401299,-0.41016880073472856,0.4206370032571256
1772619607083894500,6.60589453125,2.656275556528568,-0.4533180605009198,0.3883720160009339
1772619607093926700,6.6159267578125,2.6834324435234067,-0.6528561518527567,0.5755800199486315
1772619607103957800,6.625957763671875,2.9544653068989515,-0.9764335875883697,0.7645975940689445
1772619607113988600,6.635988525390625,3.6411662990778684,-1.0237269614219664,0.7159855388522147
1772619607124019700,6.646019775390625,4.766942014610767,-0.9096955085724592,0.6955339947149157
1772619607134050600,6.656050537109375,6.10770897282362,-0.7543591086491942,0.7412810158893466
1772619607144081700,6.66608154296875,7.350117848137021,-0.557438214058429,0.8525406659379601
1772619607154112500,6.676112548828125,8.314075692772866,-0.33485227846577764,0.9810114168979227
1772619607164143600,6.6861435546875,8.776379900544882,-0.21138386583775282,0.9804258720949292
1772619607174174500,6.696174560546875,8.757426193749904,-0.09968465532809495,0.7431915987510234
1772619607184205600,6.70620556640625,8.573905609610676,0.13611702792942523,0.41626098012998697
1772619607194236400,6.716236328125,8.202197618564963,0.346238326485455,0.12534642666066065
1772619607204267500,6.726267578125,7.5998437195897095,0.4852653966426849,-0.07943345606848597
1772619607214299400,6.73629931640625,6.975874785655736,0.7606837816260754,-0.16102560627451165
1772619607224330800,6.746330810546875,6.435913922229409,1.1875402439199387,-0.24910485347751526
1772619607234361600,6.756361572265625,6.009996786612272,1.5452511276647447,-0.2211533637725748
1772619607244392700,6.766392822265625,5.6727510371387,1.6804435880951583,-0.10204363954439759
1772619607254423600,6.776423583984375,5.554061529350281,1.8124013043880463,-0.06440523388786241
1772619607264454700,6.78645458984375,5.655208366185426,1.9322281456433235,-0.22474802726367488
1772619607274485500,6.796485595703125,5.842367599087953,1.9316306181415914,-0.4349097126290202
1772619607284516600,6.8065166015625,5.924673541852831,1.798776829791814,-0.5943233719285577
1772619607294547500,6.81654736328125,5.728043300771713,1.6337712687693535,-0.8281285476066171
1772619607304578600,6.82657861328125,4.949485278150439,1.3920283588945865,-0.9386275154810398
1772619607314609400,6.836609375,3.5001819573730226,0.9379474973276257,-0.6871263779841363
1772619607324640500,6.846640625,1.6101853721290826,0.5681646291255951,-0.466682276725769
1772619607334671600,6.856671630859375,-0.32655425958931444,0.44228141044080255,-0.1791831577231176
1772619607344703500,6.866703369140625,-1.9012129757851362,0.46481998998522756,0.4258192282006144
1772619607354734600,6.876734619140625,-3.0748119342446327,0.29586130742281674,0.8942840044289827
1772619607364765700,6.886765625,-3.463649339267611,-0.11571078423857688,1.4661631240330635
1772619607374796500,6.896796630859375,-3.466967085513472,-0.8872621429681777,2.462177756534517
1772619607384827600,6.90682763671875,-4.140139318555593,-1.605730730807781,2.590004802763462
1772619607394858500,6.9168583984375,-5.149954659003019,-1.5539190027669072,1.9147068097390234
1772619607404889600,6.9268896484375,-6.468620844566821,-1.2648781890138983,1.25816086345762
1772619607414920400,6.93692041015625,-7.504713951086997,-1.2574050766542553,0.5935057719353586
1772619607424951600,6.94695166015625,-8.042181828653812,-1.975507753790915,0.47942149292007086
1772619607434982700,6.956982666015625,-8.833063326275347,-2.634673381051421,0.8903323441937565
1772619607445013500,6.967013427734375,-10.459649798107147,-2.2236457715302707,1.0547060370534658
1772619607455044600,6.977044677734375,-12.862673062622546,-1.1315509379334747,1.2505883823767303
1772619607465076500,6.987076416015625,-15.329238532721995,-0.1351907068647444,1.6961472070530057
1772619607475107600,6.997107666015625,-16.317186909276245,0.5968200841151178,2.1707170221582053
1772619607485138700,7.007138671875,-15.286251623910665,1.3483540523409843,2.1540473346471787
1772619607495169500,7.01716943359375,-12.60786828047037,1.7101074894748627,1.5575898002341388
1772619607505200600,7.02720068359375,-9.1651243665874,1.4239121282808482,0.7335109664097428
1772619607515231500,7.0372314453125,-5.705782369124889,0.7637870083384215,-0.10804309915490448
1772619607525262600,7.0472626953125,-3.025509850937128,0.031164661331474778,-0.7742015809774399
1772619607535293700,7.057293701171875,-1.5160340932697056,-0.4910426648698747,-1.2270906024113297
1772619607545324500,7.067324462890625,-0.7905915747642517,-0.6788109695814549,-1.5575081133000552
1772619607555355600,7.077355712890625,-0.4416062876582145,-0.6475798188850284,-1.70249862190634
1772619607565386500,7.087386474609375,0.12994506129622457,-0.5009361362442374,-1.6089876867771147
1772619607575417600,7.09741748046875,1.0807418110638856,0.09689487847909331,-1.5632165540747343
1772619607585449500,7.107449462890625,2.0763795730769634,0.6045252516649663,-1.3252939331404865
1772619607595480300,7.117480224609375,2.9874422783493992,0.8533619191929698,-0.888185833684355
1772619607605511700,7.12751171875,3.4550907697588205,0.8816285209953785,-0.5265681517593562
1772619607615542500,7.13754248046875,3.660305299311876,0.8004705792218446,-0.38134909509420395
1772619607625573600,7.14757373046875,3.79021412025094,0.7409153974473476,-0.41865613163821397
1772619607635604700,7.157604736328125,3.889287073421478,0.7516293914243578,-0.5239819346584379
1772619607645635600,7.167635498046875,3.775347975030541,0.772741153036058,-0.5808285150613636
1772619607655666700,7.177666748046875,3.558770339941978,0.799188722717762,-0.7844733841449022
1772619607665697500,7.187697509765625,3.310193638524413,0.7851651658013462,-1.069435038825497
1772619607675728600,7.197728759765625,2.9961504854619503,0.7185799392595886,-1.2152831871744245
1772619607685759500,7.207759521484375,2.88225522621274,0.7139031796202063,-1.1957150748081504
1772619607695790600,7.21779052734375,2.822784800112247,0.6944590589597821,-1.031355191278085
1772619607705822500,7.227822509765625,2.7400772908091544,0.6459332207217812,-0.7277906890667974
1772619607715853600,7.237853515625,2.886806898167729,0.6782657567888498,-0.3442803973507136
1772619607725884400,7.247884521484375,2.9838574055999514,0.687741441142559,0.22824242698438466
1772619607735915800,7.257915771484375,2.8593834691911932,0.5737751624837517,0.8182902404855936
1772619607745946600,7.267946533203125,2.728603126114607,0.4475663651064038,1.2564594663672148
1772619607755977700,7.277977783203125,2.6103373966962096,0.27143793704509733,1.5393009870886802
1772619607766008600,7.288008544921875,2.771462609153986,0.09210662128925323,1.5893310924097894
1772619607776039700,7.298039794921875,3.308746362325549,-0.09734452194273471,1.2453531120717525
1772619607786070500,7.308070556640625,3.846325299051404,-0.34366116947382686,0.6186678318511695
1772619607796101600,7.3181015625,3.9791882936209437,-0.574681171412766,-0.06758030199371277
1772619607806132500,7.328132568359375,3.5278660831123587,-0.666290072312951,-0.8536978000838309
1772619607816163600,7.33816357421875,2.390124035453796,-0.47177346238493917,-1.6285855366945265
1772619607826195500,7.348195556640625,0.5983861643880606,-0.0749699007883668,-2.121303002908826
1772619607836226600,7.3582265625,-1.2367694081217049,0.5921829258337616,-2.2252881319098172
1772619607846257400,7.36825732421875,-2.549487498936057,1.3898407857224344,-1.9394027134478091
1772619607856288800,7.378288818359375,-3.1796734076887367,2.042977654212713,-1.5628531275898216
1772619607866319600,7.388319580078125,-3.0929034712523222,2.486455288700759,-1.0604141855672
1772619607876350700,7.398350830078125,-2.257432305797934,2.6002687148854133,-0.5088050429884344
1772619607886381600,7.408381591796875,-0.9510667988806962,2.445857905374467,-0.17086122824810443
1772619607896412700,7.41841259765625,0.31100714636743065,2.0404604106947777,-0.0931069209055975
1772619607906443500,7.428443603515625,1.2723884185135363,1.6180165041461585,-0.21898959160111844
1772619607916474600,7.438474609375,1.8548878624618053,1.2368901118919253,-0.5378977203514427
1772619607926505500,7.44850537109375,2.1212959886461493,0.863982681928575,-0.9494189586084335
1772619607936536600,7.45853662109375,2.1671587451547385,0.6175540984556078,-1.2637287267178297
1772619607946568400,7.468568359375,1.9775433512717484,0.4966413616597652,-1.4325754733383655
1772619607956599600,7.478599609375,1.5931483126103878,0.43503713840097186,-1.3911068601354957
1772619607966630400,7.48863037109375,1.1874550498545169,0.38976357995718713,-1.098382462498918
1772619607976661500,7.49866162109375,0.7712924155324697,0.30356150653660297,-0.6100402887593954
1772619607986692600,7.508692626953125,0.4270692282617092,-0.17927432487159967,0.1340443133085966
1772619607996723700,7.5187236328125,0.32254736203551293,-0.6504091970920562,0.7849136021930724
1772619608006754600,7.528754638671875,0.9820838684350252,-0.7810641602233052,0.6828004776090383
1772619608016785700,7.53878564453125,2.4075404496788977,-0.7133318094730376,-0.27314181835353374
1772619608026816500,7.54881640625,3.857548703855276,-0.7501245398193598,-1.04073377193287
1772619608036847600,7.55884765625,3.5572511675506826,-0.8186155999824404,-1.2000661826897412
1772619608046878500,7.56887841796875,1.5597276890456675,-0.359052799873054,-1.1875441894426941
1772619608056909600,7.57890966796875,-0.932756650686264,0.5749117652982473,-1.0507681130826472
