time,seconds_elapsed,z,y,x
1772619600553661400,0.075661376953125,0.19687014818191528,-1.4921250343322754,-1.142237663269043
1772619600563692300,0.0856923828125,0.3591374158859253,-1.244294285774231,-1.3179454803466797
1772619600573723400,0.095723388671875,0.5702978372573853,-0.8965259790420532,-1.3192683458328247
1772619600583755300,0.10575537109375,0.8089743256568909,-0.5109917521476746,-1.1706206798553467
1772619600593786000,0.1157861328125,1.072510004043579,-0.1479099541902542,-0.9428839087486267
1772619600603817200,0.125817138671875,1.3626916408538818,0.17886753380298615,-0.6643304228782654
1772619600613848300,0.135848388671875,1.6241247653961182,0.4546698331832886,-0.3746160566806793
1772619600623879200,0.145879150390625,1.8190032243728638,0.625053882598877,-0.13878169655799866
1772619600633910300,0.15591015625,1.9358835220336914,0.648003101348877,-0.0034678103402256966
1772619600643941000,0.165941162109375,1.980092167854309,0.5121822953224182,0.019590940326452255
1772619600653972200,0.17597216796875,1.9475278854370117,0.24699167907238007,-0.05009466037154198
1772619600664003300,0.18600341796875,1.860492467880249,-0.08059327304363251,-0.1727687120437622
1772619600674034400,0.196034423828125,1.7327557802200317,-0.3490641415119171,-0.322063148021698
1772619600684065300,0.206065185546875,1.5786991119384766,-0.5180762410163879,-0.47580382227897644
1772619600694097000,0.216096923828125,1.4017579555511475,-0.5772479772567749,-0.6225815415382385
1772619600704127700,0.226127685546875,1.1968200206756592,-0.6570122838020325,-0.7418978214263916
1772619600714159900,0.236159912109375,0.9553895592689514,-0.5833334922790527,-0.7814041972160339
1772619600724191000,0.24619091796875,0.7243366241455078,-0.3540405333042145,-0.784676194190979
1772619600734221800,0.256221923828125,0.524606466293335,-0.10458382964134216,-0.7844492793083191
1772619600744253000,0.2662529296875,0.39269372820854187,0.1959334909915924,-0.7523507475852966
1772619600754284000,0.276283935546875,0.33054113388061523,0.5912646055221558,-0.6778695583343506
1772619600764315000,0.28631494140625,0.3057974576950073,1.0252882242202759,-0.5604864954948425
1772619600774346000,0.296345947265625,0.30098724365234375,1.4335342645645142,-0.44013506174087524
1772619600784376800,0.306376953125,0.30605483055114746,1.7408595085144043,-0.34455007314682007
1772619600794408000,0.316407958984375,0.29555609822273254,1.8747729063034058,-0.3087419867515564
1772619600804438800,0.326438720703125,0.24563068151474,1.8153396844863892,-0.32904040813446045
1772619600814470000,0.336469970703125,0.15219873189926147,1.5887515544891357,-0.38919055461883545
1772619600824500700,0.346500732421875,0.035356368869543076,1.2953615188598633,-0.4461495280265808
1772619600834531800,0.35653173828125,-0.09169425815343857,1.0103689432144165,-0.4660646617412567
1772619600844564000,0.36656396484375,-0.21076247096061707,0.7575978636741638,-0.43193209171295166
1772619600854595000,0.376594970703125,-0.3057164251804352,0.5803727507591248,-0.32668718695640564
1772619600864626000,0.3866259765625,-0.3818403482437134,0.47952109575271606,-0.1702774316072464
1772619600874657000,0.396656982421875,-0.44559669494628906,0.4274240732192993,0.02144726738333702
1772619600884688000,0.40668798828125,-0.500722348690033,0.4057666063308716,0.20979620516300201
1772619600894719000,0.416718994140625,-0.5729779005050659,0.3802487254142761,0.3671402633190155
1772619600904749800,0.426749755859375,-0.6512153148651123,0.2979399561882019,0.46093857288360596
1772619600914781000,0.436781005859375,-0.7289612889289856,0.1380871832370758,0.482227087020874
1772619600924811800,0.446811767578125,-0.8127915859222412,-0.11280245333909988,0.4498252868652344
1772619600934843000,0.4568427734375,-0.8995802402496338,-0.3995652496814728,0.4052642285823822
1772619600944873700,0.466873779296875,-0.9891106486320496,-0.6349822878837585,0.4082692861557007
1772619600954904800,0.47690478515625,-1.0830516815185547,-0.8299373984336853,0.4718101918697357
1772619600964937000,0.48693701171875,-1.1282082796096802,-0.9433329701423645,0.6043487191200256
1772619600974968000,0.496968017578125,-1.0679012537002563,-0.8985958695411682,0.7886251211166382
1772619600984999000,0.5069990234375,-0.8574865460395813,-0.6290981769561768,0.9905552864074707
1772619600995030000,0.517030029296875,-0.46491503715515137,-0.08336558938026428,1.1764566898345947
1772619601005060900,0.527060791015625,0.008502520620822906,0.5875275135040283,1.2678499221801758
1772619601015092000,0.537092041015625,0.47290560603141785,1.173099398612976,1.22007417678833
1772619601025122800,0.547122802734375,0.8073056936264038,1.3833584785461426,0.9663978815078735
1772619601035154000,0.55715380859375,0.850777268409729,1.0329447984695435,0.47925856709480286
1772619601045184800,0.567184814453125,0.5819687843322754,0.28178516030311584,-0.1695069670677185
1772619601055215900,0.5772158203125,0.11644849181175232,-0.6531595587730408,-0.8735112547874451
1772619601065246700,0.587246826171875,-0.4438183009624481,-1.6334631443023682,-1.569458246231079
1772619601075277800,0.59727783203125,-0.9828578233718872,-2.483154535293579,-2.1756975650787354
1772619601085310000,0.60731005859375,-1.390903353691101,-3.075345277786255,-2.5643484592437744
1772619601095341000,0.617341064453125,-1.609296202659607,-3.2667222023010254,-2.6267261505126953
1772619601105372000,0.627371826171875,-1.5232194662094116,-2.836885452270508,-2.298438310623169
1772619601115403000,0.637403076171875,-1.0714995861053467,-1.8541512489318848,-1.6390236616134644
1772619601125433900,0.647433837890625,-0.4446776509284973,-0.6767690181732178,-0.8395324945449829
1772619601135465000,0.65746484375,0.05284825339913368,0.3829863667488098,-0.12529398500919342
1772619601145495800,0.667495849609375,0.4054003655910492,1.1443729400634766,0.3827437460422516
1772619601155527000,0.67752685546875,0.6041308045387268,1.468301773071289,0.6200249791145325
1772619601165557800,0.687557861328125,0.6269341707229614,1.4495757818222046,0.6066542267799377
1772619601175588900,0.6975888671875,0.5233598947525024,1.3324755430221558,0.4646883010864258
1772619601185619700,0.70761962890625,0.36987191438674927,1.1784555912017822,0.2586931586265564
1772619601195650800,0.71765087890625,0.23268982768058777,1.018500566482544,0.06265069544315338
1772619601205682000,0.727681884765625,0.12248425930738449,0.8766160011291504,-0.03434806317090988
1772619601215714000,0.737714111328125,0.04069698974490166,0.734387993812561,-0.03012988343834877
1772619601225745000,0.747744873046875,-0.002768996637314558,0.6366183161735535,0.06490954756736755
1772619601235776000,0.75777587890625,-0.025797154754400253,0.6382077932357788,0.23725847899913788
1772619601245806800,0.767806884765625,-0.029053863137960434,0.7121191620826721,0.44807690382003784
1772619601255838000,0.777837890625,-0.026851162314414978,0.8327457308769226,0.658694863319397
1772619601265868800,0.787868896484375,-0.01836736872792244,0.936237096786499,0.8449605703353882
1772619601275900000,0.79789990234375,-0.007284359075129032,0.968442976474762,0.9909534454345703
1772619601285930800,0.8079306640625,-0.023868689313530922,0.9001098275184631,1.067416787147522
1772619601295961900,0.8179619140625,-0.09934187680482864,0.6991418600082397,1.059044361114502
1772619601305993000,0.827992919921875,-0.2252856194972992,0.40023329854011536,0.9835831522941589
1772619601316023800,0.83802392578125,-0.3915611505508423,0.08178982883691788,0.8804485201835632
1772619601326055000,0.848054931640625,-0.5947005748748779,-0.1880616396665573,0.7755352854728699
1772619601336087000,0.858087158203125,-0.8273042440414429,-0.377179354429245,0.6859971880912781
1772619601346118000,0.868117919921875,-1.059838056564331,-0.48275336623191833,0.6560165882110596
1772619601356149000,0.87814892578125,-1.2548280954360962,-0.49919945001602173,0.715173602104187
1772619601366179800,0.888179931640625,-1.375535249710083,-0.37187013030052185,0.8822927474975586
1772619601376211000,0.8982109375,-1.3423702716827393,-0.03600876405835152,1.12776780128479
1772619601386241800,0.90824169921875,-1.1164066791534424,0.4360276758670807,1.3755502700805664
1772619601396273000,0.91827294921875,-0.7538797855377197,0.9605033993721008,1.5328445434570312
1772619601406304000,0.928303955078125,-0.3490048944950104,1.444066047668457,1.5288853645324707
1772619601416334800,0.9383349609375,0.03189346194267273,1.8082594871520996,1.3725063800811768
1772619601426366000,0.948365966796875,0.3317195177078247,2.0139100551605225,1.138832688331604
1772619601436396800,0.958396728515625,0.5420793890953064,1.9676012992858887,0.8800195455551147
1772619601446428000,0.968427978515625,0.6628671884536743,1.6907228231430054,0.628905177116394
1772619601456458800,0.978458740234375,0.7044950723648071,1.3553074598312378,0.43630674481391907
1772619601466491000,0.988490966796875,0.6817130446434021,1.1219366788864136,0.3041825294494629
1772619601476522000,0.99852197265625,0.5909570455551147,0.8475189208984375,0.1343495398759842
1772619601486552800,1.008552734375,0.37382397055625916,0.3078276515007019,-0.22081983089447021
1772619601496584000,1.018583984375,-0.010191868990659714,-0.5426453948020935,-0.8038246631622314
1772619601506615000,1.028614990234375,-0.41101178526878357,-1.5048480033874512,-1.4111329317092896
1772619601516646000,1.03864599609375,-0.6395888328552246,-2.255249261856079,-1.7971543073654175
1772619601526677000,1.048677001953125,-0.6382907032966614,-2.7891757488250732,-1.9036591053009033
1772619601536707800,1.058707763671875,-0.4338083863258362,-3.161823034286499,-1.7188048362731934
1772619601546739000,1.068739013671875,-0.0921202003955841,-3.3964600563049316,-1.3058109283447266
1772619601556769800,1.078769775390625,0.26129141449928284,-3.4412589073181152,-0.736583411693573
1772619601566801000,1.08880078125,0.5075864195823669,-3.3009872436523438,-0.17624343931674957
1772619601576831700,1.098831787109375,0.5983107686042786,-3.1424083709716797,0.20363330841064453
1772619601586863900,1.10886376953125,0.5964767932891846,-3.060445547103882,0.3305954039096832
1772619601596895000,1.11889501953125,0.5940983295440674,-2.9163501262664795,0.24942542612552643
1772619601606926000,1.128926025390625,0.6169424653053284,-2.5251967906951904,0.1081850603222847
1772619601616957000,1.13895703125,0.6275192499160767,-1.9332062005996704,-0.036326855421066284
1772619601626988000,1.148988037109375,0.6141896843910217,-1.2570457458496094,-0.14527125656604767
1772619601637019000,1.159018798828125,0.6030270457267761,-0.562838077545166,-0.1908581703901291
1772619601647050000,1.169050048828125,0.6292065978050232,0.06297661364078522,-0.15420734882354736
1772619601657080800,1.179080810546875,0.679287850856781,0.5826096534729004,-0.04638448357582092
1772619601667112000,1.18911181640625,0.7459316253662109,0.9738876223564148,0.08672510832548141
1772619601677142800,1.199142822265625,0.7225213646888733,1.2718614339828491,0.16839812695980072
1772619601687174000,1.209173828125,0.7659056782722473,1.4058918952941895,0.22502964735031128
1772619601697205200,1.219205322265625,0.9357807040214539,1.4030088186264038,0.29501885175704956
1772619601707236400,1.229236328125,1.2116974592208862,1.3595402240753174,0.3860863149166107
1772619601717268500,1.2392685546875,1.4090936183929443,1.4174293279647827,0.49382954835891724
1772619601727299300,1.24929931640625,1.451926350593567,1.5224597454071045,0.5867950320243835
1772619601737330400,1.259330322265625,1.384748935699463,1.5558233261108398,0.6466549038887024
1772619601747361500,1.269361572265625,1.2420551776885986,1.5159286260604858,0.6740140318870544
1772619601757392400,1.279392333984375,1.0469211339950562,1.4611330032348633,0.6765629053115845
1772619601767423500,1.289423583984375,0.8117817640304565,1.4150735139846802,0.6499375104904175
1772619601777454300,1.299454345703125,0.5433378219604492,1.3205808401107788,0.5930966138839722
1772619601787485400,1.3094853515625,0.26439031958580017,1.1473604440689087,0.49444490671157837
1772619601797516300,1.319516357421875,-0.004351919051259756,0.9594507813453674,0.40065422654151917
1772619601807547400,1.32954736328125,-0.2331172525882721,0.8173060417175293,0.33881592750549316
1772619601817578200,1.339578125,-0.3972340226173401,0.6545533537864685,0.313279390335083
1772619601827609300,1.349609375,-0.5032969117164612,0.434051513671875,0.3011716902256012
1772619601837640200,1.35964013671875,-0.5964518785476685,0.10384776443243027,0.2809186279773712
1772619601847672600,1.369672607421875,-0.728147566318512,-0.3313397169113159,0.2746700346469879
1772619601857703400,1.379703369140625,-0.918819785118103,-0.7603483200073242,0.3404251039028168
1772619601867734500,1.389734619140625,-1.116249918937683,-0.9915183782577515,0.5574904084205627
1772619601877765400,1.399765380859375,-1.185506820678711,-0.9244980812072754,0.9113292098045349
1772619601887796500,1.40979638671875,-1.0255863666534424,-0.5490459203720093,1.3390874862670898
1772619601897827300,1.419827392578125,-0.5980378985404968,-0.0341961644589901,1.673661470413208
1772619601907858400,1.4298583984375,-0.024560481309890747,0.44329941272735596,1.685886025428772
1772619601917889300,1.43988916015625,0.4193868637084961,1.0428274869918823,1.388355016708374
1772619601927920400,1.44992041015625,0.5456724166870117,1.5255438089370728,0.8400068879127502
1772619601937951200,1.459951171875,0.5380704402923584,1.5814144611358643,-0.004091562703251839
1772619601947982300,1.469982421875,0.39313361048698425,1.3960108757019043,-1.0576748847961426
1772619601958013200,1.48001318359375,0.087061807513237,0.9014009237289429,-2.1246449947357178
1772619601968045600,1.490045654296875,-0.3236331343650818,-0.10444369912147522,-3.0601534843444824
1772619601978076400,1.500076416015625,-0.7947079539299011,-1.2451194524765015,-3.5990753173828125
1772619601988107500,1.510107421875,-1.1477744579315186,-2.02295184135437,-3.6262950897216797
1772619601998138400,1.520138427734375,-1.2136584520339966,-2.26725435256958,-3.2569117546081543
1772619602008169500,1.53016943359375,-0.9382151961326599,-1.968523383140564,-2.590554714202881
1772619602018200300,1.540200439453125,-0.44941917061805725,-1.3141075372695923,-1.7961609363555908
1772619602028231400,1.5502314453125,0.02593669667840004,-0.5783441662788391,-1.035372018814087
1772619602038262300,1.56026220703125,0.33452463150024414,0.016970021650195122,-0.4499415457248688
1772619602048293400,1.57029345703125,0.5012490749359131,0.4175720810890198,-0.10975458472967148
1772619602058324200,1.58032421875,0.5537607669830322,0.6516194939613342,0.019271036610007286
1772619602068355300,1.590355224609375,0.4907962381839752,0.8366698622703552,0.013888461515307426
1772619602078386400,1.600386474609375,0.34431546926498413,0.9692872762680054,-0.09016364067792892
1772619602088417300,1.610417236328125,0.14946700632572174,1.065958857536316,-0.22889478504657745
1772619602098449400,1.620449462890625,-0.05535831302404404,1.1682950258255005,-0.3586876690387726
1772619602108480500,1.63048046875,-0.2435004562139511,1.2490144968032837,-0.4484247863292694
1772619602118511400,1.640511474609375,-0.39249101281166077,1.2772338390350342,-0.49306628108024597
1772619602128542500,1.65054248046875,-0.49325206875801086,1.2265949249267578,-0.49577754735946655
1772619602138573300,1.6605732421875,-0.5631779432296753,1.1148535013198853,-0.4509994089603424
1772619602148604400,1.6706044921875,-0.6175908446311951,0.9432268142700195,-0.38700973987579346
1772619602158635300,1.68063525390625,-0.6699342131614685,0.718532145023346,-0.30047404766082764
1772619602168666400,1.690666259765625,-0.7204131484031677,0.4694516360759735,-0.19305379688739777
1772619602178697500,1.700697509765625,-0.7595174312591553,0.22367383539676666,-0.059775639325380325
1772619602188728300,1.710728271484375,-0.7965553402900696,0.021975066512823105,0.09244345128536224
1772619602198759400,1.720759521484375,-0.8315828442573547,-0.10356368124485016,0.2549610137939453
1772619602208790300,1.730790283203125,-0.863818347454071,-0.15322795510292053,0.4171721339225769
1772619602218822400,1.740822509765625,-0.898646354675293,-0.15493744611740112,0.5477474927902222
1772619602228853500,1.750853515625,-0.9189496040344238,-0.12246477603912354,0.6451475620269775
1772619602238884400,1.76088427734375,-0.9230902791023254,-0.07197816669940948,0.7074748277664185
1772619602248915500,1.77091552734375,-0.9219269752502441,-0.06810556352138519,0.7072204351425171
1772619602258946300,1.7809462890625,-0.919243335723877,-0.136371448636055,0.672322154045105
1772619602268977400,1.790977294921875,-0.9102005958557129,-0.22807210683822632,0.6193950772285461
1772619602279008500,1.801008544921875,-0.8720294833183289,-0.31189724802970886,0.5803571343421936
1772619602289039400,1.811039306640625,-0.7518371939659119,-0.21899844706058502,0.6047203540802002
1772619602299070500,1.821070556640625,-0.4943166971206665,0.1392960399389267,0.6971868872642517
1772619602309101300,1.831101318359375,-0.1051710844039917,0.7432910799980164,0.8638185858726501
1772619602319132400,1.84113232421875,0.3459540009498596,1.40476655960083,1.088213324546814
1772619602329163300,1.851163330078125,0.7644903063774109,1.9162801504135132,1.303836464881897
1772619602339194400,1.8611943359375,1.1130125522613525,2.1908061504364014,1.4333618879318237
1772619602349226500,1.8712265625,1.3798856735229492,2.212080955505371,1.41474449634552
1772619602359257300,1.88125732421875,1.5271552801132202,1.900598168373108,1.128599762916565
1772619602369288400,1.891288330078125,1.4661766290664673,1.0523234605789185,0.5753787159919739
1772619602379319600,1.901319580078125,1.2196696996688843,-0.2530186176300049,-0.050301726907491684
1772619602389350400,1.911350341796875,0.9303635954856873,-1.5678257942199707,-0.5869325399398804
1772619602399381500,1.921381591796875,0.7298758029937744,-2.476309299468994,-0.9291341304779053
1772619602409412400,1.931412353515625,0.6755021214485168,-2.8211209774017334,-1.0453611612319946
1772619602419443500,1.941443359375,0.8228798508644104,-2.682023048400879,-0.9725008010864258
1772619602429474300,1.951474365234375,1.0705311298370361,-2.2331466674804688,-0.8199370503425598
1772619602439505400,1.96150537109375,1.2373243570327759,-1.650464415550232,-0.729277491569519
1772619602449536300,1.971536376953125,1.226601004600525,-1.0882267951965332,-0.8197177052497864
1772619602459567400,1.9815673828125,1.039139986038208,-0.6402524709701538,-1.0841498374938965
1772619602469598200,1.99159814453125,0.7510414123535156,-0.32666516304016113,-1.4250034093856812
1772619602479630600,2.001630615234375,0.4173729419708252,-0.07475833594799042,-1.7132573127746582
1772619602489661400,2.011661376953125,0.10209589451551437,0.1905585378408432,-1.8505717515945435
1772619602499692500,2.021692626953125,-0.15118403732776642,0.49423375725746155,-1.82281494140625
1772619602509723400,2.031723388671875,-0.33148324489593506,0.7809767723083496,-1.6749770641326904
1772619602519754500,2.04175439453125,-0.4396674931049347,1.0359574556350708,-1.4503334760665894
1772619602529785300,2.051785400390625,-0.45820727944374084,1.2544801235198975,-1.1855852603912354
1772619602539816400,2.06181640625,-0.39932823181152344,1.4556102752685547,-0.9245661497116089
1772619602549847300,2.071847412109375,-0.29465872049331665,1.6219326257705688,-0.6862674355506897
1772619602559878400,2.08187841796875,-0.18089140951633453,1.741539716720581,-0.47977206110954285
1772619602569909200,2.0919091796875,-0.10244214534759521,1.8169951438903809,-0.32460829615592957
1772619602579940400,2.1019404296875,-0.09659996628761292,1.8363394737243652,-0.22843250632286072
1772619602589971200,2.11197119140625,-0.19337385892868042,1.7384048700332642,-0.18924811482429504
1772619602600002300,2.122002197265625,-0.3776099979877472,1.519696831703186,-0.1972690373659134
1772619602610034400,2.132034423828125,-0.6165297031402588,1.2931911945343018,-0.2185942828655243
1772619602620065500,2.1420654296875,-0.8939067125320435,1.0815067291259766,-0.22024862468242645
1772619602630096400,2.152096435546875,-1.1416163444519043,0.8296076059341431,-0.20104829967021942
1772619602640127500,2.16212744140625,-1.3465566635131836,0.5977267026901245,-0.1436997950077057
1772619602650158300,2.172158447265625,-1.5193816423416138,0.4339386224746704,-0.039934564381837845
1772619602660189400,2.182189453125,-1.651472806930542,0.31542715430259705,0.0883839949965477
1772619602670220300,2.19222021484375,-1.6987495422363281,0.2673608362674713,0.221645787358284
1772619602680251400,2.20225146484375,-1.6428321599960327,0.3425692915916443,0.3598949909210205
1772619602690282200,2.2122822265625,-1.5049026012420654,0.45054131746292114,0.4975086748600006
1772619602700312600,2.2223125,-1.3015284538269043,0.6095107197761536,0.6391262412071228
1772619602710343700,2.23234375,-1.0468249320983887,0.820734441280365,0.763238251209259
1772619602720374500,2.24237451171875,-0.7619959712028503,0.9662727117538452,0.8045403957366943
1772619602730406400,2.252406494140625,-0.4878596067428589,1.0058784484863281,0.7695192098617554
1772619602740437500,2.2624375,-0.25097304582595825,0.9580004215240479,0.7151521444320679
1772619602750468600,2.272468505859375,-0.04686792939901352,0.7631809711456299,0.6797220706939697
1772619602760499500,2.28249951171875,0.1379823535680771,0.4932810366153717,0.7177035212516785
1772619602770530600,2.292530517578125,0.31289973855018616,0.19625690579414368,0.8265648484230042
1772619602780561400,2.3025615234375,0.48811283707618713,-0.11067134141921997,1.0036969184875488
1772619602790592500,2.312592529296875,0.6617213487625122,-0.43437910079956055,1.2471013069152832
1772619602800623400,2.322623291015625,0.7966456413269043,-0.8016841411590576,1.5473911762237549
1772619602810654500,2.332654541015625,0.8791962265968323,-1.1736669540405273,1.8870712518692017
1772619602820685600,2.342685546875,0.8786609172821045,-1.5101954936981201,2.1861677169799805
1772619602830716700,2.352716552734375,0.7698601484298706,-1.8119277954101562,2.295971632003784
1772619602840747500,2.36274755859375,0.5522791147232056,-1.9805759191513062,2.1166467666625977
1772619602850779600,2.372779541015625,0.24325110018253326,-1.8577258586883545,1.63390052318573
1772619602860810500,2.382810546875,-0.12015695124864578,-1.4746086597442627,0.8532809019088745
1772619602870841600,2.392841552734375,-0.5390071272850037,-1.0195893049240112,-0.18689686059951782
1772619602880872400,2.40287255859375,-0.9955001473426819,-0.6947028636932373,-1.390737533569336
1772619602890903600,2.412903564453125,-1.4250288009643555,-0.6268846988677979,-2.5204668045043945
1772619602900934400,2.422934326171875,-1.6614192724227905,-0.6313077211380005,-3.2211146354675293
1772619602910965500,2.432965576171875,-1.6050857305526733,-0.4370022714138031,-3.364593505859375
1772619602920996400,2.442996337890625,-1.2955420017242432,-0.14488571882247925,-3.0450141429901123
1772619602931027500,2.45302734375,-0.8517932891845703,0.05986226350069046,-2.4706263542175293
1772619602941058300,2.463058349609375,-0.37817004323005676,0.2003466635942459,-1.7886604070663452
1772619602951089700,2.473089599609375,0.0070861028507351875,0.39389896392822266,-1.0679717063903809
1772619602961120500,2.48312060546875,0.28227317333221436,0.5905329585075378,-0.3954741060733795
1772619602971151600,2.493151611328125,0.4800386428833008,0.7205443382263184,0.11704414337873459
1772619602981183500,2.50318359375,0.6133532524108887,0.7475866079330444,0.44322410225868225
1772619602991214600,2.513214599609375,0.6862062215805054,0.7047642469406128,0.581426203250885
1772619603001245400,2.523245361328125,0.6935842633247375,0.6773979067802429,0.5922183990478516
1772619603011276500,2.533276611328125,0.6233322024345398,0.6731966137886047,0.5171111226081848
1772619603021307400,2.543307373046875,0.48841172456741333,0.6128799915313721,0.34725651144981384
1772619603031338500,2.55333837890625,0.3217785954475403,0.46982187032699585,0.10477080196142197
1772619603041369300,2.563369384765625,0.16539780795574188,0.2791225016117096,-0.17255109548568726
1772619603051400400,2.573400390625,0.035428736358881,0.0819903016090393,-0.42950233817100525
1772619603061431300,2.583431396484375,-0.06215641275048256,-0.11564873903989792,-0.6143427491188049
1772619603071462400,2.59346240234375,-0.11395344883203506,-0.29621872305870056,-0.7040162682533264
1772619603081493500,2.603493408203125,-0.11915140599012375,-0.44910359382629395,-0.7130707502365112
1772619603091524600,2.613524658203125,-0.08888351917266846,-0.5832969546318054,-0.6399768590927124
1772619603101555700,2.6235556640625,-0.017013318836688995,-0.6583101749420166,-0.4802013039588928
1772619603111587600,2.633587646484375,0.08278866857290268,-0.6438191533088684,-0.266565203666687
1772619603121618400,2.643618408203125,0.19910968840122223,-0.5562145113945007,-0.022763459011912346
1772619603131649500,2.6536494140625,0.29150980710983276,-0.4366592466831207,0.20046842098236084
1772619603141680400,2.663680419921875,0.34674960374832153,-0.3573141098022461,0.38795948028564453
1772619603151711500,2.67371142578125,0.34680232405662537,-0.3401775658130646,0.5152101516723633
1772619603161742300,2.683742431640625,0.2938549518585205,-0.39431270956993103,0.5842150449752808
1772619603171773400,2.6937734375,0.20890475809574127,-0.49686527252197266,0.6050331592559814
1772619603181804500,2.703804443359375,0.11487679928541183,-0.6038888692855835,0.6200656294822693
1772619603191835400,2.71383544921875,0.03282429650425911,-0.6546905040740967,0.6838493347167969
1772619603201866800,2.72386669921875,0.012396520003676414,-0.5810586214065552,0.8138850927352905
1772619603211897600,2.733897705078125,0.08691372722387314,-0.44839516282081604,0.9891092777252197
1772619603221928700,2.7439287109375,0.260763019323349,-0.2900601327419281,1.1743931770324707
1772619603231960600,2.753960693359375,0.4712095558643341,-0.1492479145526886,1.3559104204177856
1772619603241991400,2.763991455078125,0.6250255107879639,-0.13732601702213287,1.5013294219970703
1772619603252022500,2.7740224609375,0.7232425212860107,-0.2268161028623581,1.5859500169754028
1772619603262053400,2.784053466796875,0.7820442914962769,-0.31914469599723816,1.6011383533477783
1772619603272084500,2.79408447265625,0.7862423062324524,-0.40229159593582153,1.527612328529358
1772619603282115600,2.804115478515625,0.725147545337677,-0.5489646196365356,1.3308463096618652
1772619603292146400,2.814146484375,0.5908544659614563,-0.7075904607772827,0.9980688691139221
1772619603302177500,2.824177490234375,0.40471363067626953,-0.8088995218276978,0.5407835841178894
1772619603312208400,2.83420849609375,0.18682345747947693,-0.8235692381858826,0.001303813885897398
1772619603322239500,2.844239501953125,-0.07200916856527328,-0.796252965927124,-0.5983505845069885
1772619603332270600,2.8542705078125,-0.3540841042995453,-0.8320329189300537,-1.2219618558883667
1772619603342301700,2.8643017578125,-0.5815329551696777,-1.012891411781311,-1.76177978515625
1772619603352332500,2.87433251953125,-0.681357741355896,-1.1372750997543335,-2.037137508392334
1772619603362364400,2.884364501953125,-0.624805212020874,-1.0923850536346436,-2.0173137187957764
1772619603372395500,2.8943955078125,-0.41163745522499084,-0.8930103182792664,-1.768723726272583
1772619603382426600,2.904426513671875,-0.1407332569360733,-0.7041227221488953,-1.4134445190429688
1772619603392457500,2.91445751953125,0.09955933690071106,-0.6379677057266235,-1.0509531497955322
1772619603402488600,2.924488525390625,0.27482035756111145,-0.7057076096534729,-0.7161256670951843
1772619603412519400,2.93451953125,0.3515454828739166,-0.83042973279953,-0.40537410974502563
1772619603422550500,2.944550537109375,0.34115514159202576,-0.8826785087585449,-0.11289724707603455
1772619603432581400,2.954581298828125,0.2916697561740875,-0.8371919393539429,0.1257266104221344
1772619603442612500,2.964612548828125,0.2704760432243347,-0.6506055593490601,0.3195323348045349
1772619603452643300,2.974643310546875,0.32934677600860596,-0.3805457651615143,0.49808642268180847
1772619603462674700,2.9846748046875,0.40331128239631653,-0.13027144968509674,0.6188133358955383
1772619603472705500,2.99470556640625,0.4703458845615387,0.02979270927608013,0.6617603898048401
1772619603482737700,3.004737548828125,0.5323077440261841,0.11712654680013657,0.6480448246002197
1772619603492768500,3.0147685546875,0.5676229000091553,0.17367830872535706,0.6055224537849426
1772619603502799600,3.024799560546875,0.557478666305542,0.20357123017311096,0.5415632128715515
1772619603512830500,3.03483056640625,0.49824297428131104,0.2281935214996338,0.46162092685699463
1772619603522861600,3.044861572265625,0.37383392453193665,0.2458537369966507,0.3819836378097534
1772619603532892400,3.054892333984375,0.19929538667201996,0.21925480663776398,0.2987678647041321
1772619603542923500,3.064923583984375,0.007301189936697483,0.18694080412387848,0.22286327183246613
1772619603552954400,3.074954345703125,-0.1662367731332779,0.21598342061042786,0.15766774117946625
1772619603562985500,3.0849853515625,-0.30420660972595215,0.3264201879501343,0.10619655251502991
1772619603573016300,3.095016357421875,-0.38908788561820984,0.47297513484954834,0.07015564292669296
1772619603583047700,3.105047607421875,-0.42528635263442993,0.6250397562980652,0.05957304313778877
1772619603593078500,3.11507861328125,-0.427239328622818,0.7391560673713684,0.060339849442243576
1772619603603109600,3.125109619140625,-0.4083705544471741,0.7689517736434937,0.04614892974495888
1772619603613141500,3.1351416015625,-0.3731854259967804,0.7182555794715881,0.007059069350361824
1772619603623172600,3.145172607421875,-0.33423882722854614,0.6161686182022095,-0.02852395735681057
1772619603633203500,3.155203369140625,-0.3080197274684906,0.48727816343307495,-0.03923019394278526
1772619603643234600,3.165234619140625,-0.29352468252182007,0.27845945954322815,-0.007532451767474413
1772619603653265400,3.175265380859375,-0.2759244740009308,-0.051546934992074966,0.11984265595674515
1772619603663296500,3.185296630859375,-0.22371716797351837,-0.3978404402732849,0.35760727524757385
1772619603673327400,3.195327392578125,-0.07995854318141937,-0.5031815767288208,0.682149350643158
1772619603683358500,3.2053583984375,0.16919881105422974,-0.25757157802581787,1.0023143291473389
1772619603693389300,3.215389404296875,0.5015444755554199,0.16935956478118896,1.1688079833984375
1772619603703421200,3.225421142578125,0.9673207402229309,0.608530580997467,1.090247631072998
1772619603713452000,3.2354521484375,1.4780021905899048,1.1002535820007324,0.8832841515541077
1772619603723483100,3.245483154296875,1.8711316585540771,1.5434552431106567,0.6420598030090332
1772619603733514000,3.255513916015625,2.054133892059326,1.9436891078948975,0.42820048332214355
1772619603743546000,3.265546142578125,1.949053406715393,2.124673366546631,0.1552019715309143
1772619603753577000,3.275576904296875,1.5306309461593628,1.8005878925323486,-0.40532007813453674
1772619603763608000,3.285608154296875,0.8892113566398621,0.9132785201072693,-1.290743350982666
1772619603773639000,3.295638916015625,0.16653628647327423,-0.28172650933265686,-2.2214603424072266
1772619603783670000,3.305669921875,-0.45250698924064636,-1.3598650693893433,-2.8147940635681152
1772619603793701000,3.315701171875,-0.8010596632957458,-2.025918483734131,-2.900153160095215
1772619603803732200,3.325732177734375,-0.7864978313446045,-2.181553363800049,-2.4442451000213623
1772619603813763000,3.33576318359375,-0.39503803849220276,-1.7278202772140503,-1.6210689544677734
1772619603823794200,3.345794189453125,0.19531100988388062,-0.851324200630188,-0.6354325413703918
1772619603833825000,3.355824951171875,0.7520944476127625,0.1838788390159607,0.2874760329723358
1772619603843856100,3.365856201171875,1.081271767616272,1.0166738033294678,0.9599406719207764
1772619603853887000,3.375886962890625,1.2298178672790527,1.4892942905426025,1.2863330841064453
1772619603863919000,3.385919189453125,1.299748420715332,1.5172330141067505,1.2168508768081665
1772619603873950000,3.395949951171875,1.2392899990081787,1.4013932943344116,0.9382728934288025
1772619603883981000,3.40598095703125,1.0254063606262207,1.1974306106567383,0.5875511169433594
1772619603894012000,3.416011962890625,0.7542344331741333,0.895473062992096,0.24204128980636597
1772619603904043000,3.42604296875,0.4932558834552765,0.6080868244171143,-0.01301178801804781
1772619603914073900,3.436073974609375,0.2856207489967346,0.41637173295021057,-0.14679285883903503
1772619603924105200,3.446105224609375,0.12972594797611237,0.3310382068157196,-0.1703096330165863
1772619603934136000,3.456135986328125,0.03150331974029541,0.3006461262702942,-0.12482666224241257
1772619603944167200,3.466167236328125,-0.03306049108505249,0.2983153164386749,-0.046838391572237015
1772619603954198000,3.476197998046875,-0.07971712946891785,0.3059707283973694,0.03582950681447983
1772619603964229000,3.48622900390625,-0.11194377392530441,0.3399755656719208,0.0897662490606308
1772619603974260000,3.496260009765625,-0.13277319073677063,0.40158629417419434,0.12096550315618515
1772619603984291000,3.506291015625,-0.16300351917743683,0.472443163394928,0.12622550129890442
1772619603994323000,3.516322998046875,-0.19950255751609802,0.5163750648498535,0.10915927588939667
1772619604004354000,3.52635400390625,-0.25637513399124146,0.5302525162696838,0.06742940843105316
1772619604014385000,3.536385009765625,-0.32149583101272583,0.5191082954406738,-0.003296178998425603
1772619604024416000,3.546416015625,-0.4010199308395386,0.46207910776138306,-0.09377548098564148
1772619604034446800,3.55644677734375,-0.501239538192749,0.36445438861846924,-0.17538079619407654
1772619604044478000,3.56647802734375,-0.6225135326385498,0.21554985642433167,-0.2181524932384491
1772619604054509000,3.576509033203125,-0.7621539831161499,-0.0016429112292826176,-0.20330989360809326
1772619604064540200,3.5865400390625,-0.8969285488128662,-0.25084394216537476,-0.08414356410503387
1772619604074571000,3.596571044921875,-0.9879713654518127,-0.4956057071685791,0.14308105409145355
1772619604084602000,3.60660205078125,-0.9888368844985962,-0.6459856629371643,0.4586576223373413
1772619604094633200,3.61663330078125,-0.8754577040672302,-0.6280126571655273,0.834479570388794
1772619604104664000,3.6266640625,-0.6426870226860046,-0.48778122663497925,1.1999051570892334
1772619604114696000,3.636696044921875,-0.3006071150302887,-0.38248753547668457,1.451124668121338
1772619604124727000,3.64672705078125,0.08555018901824951,-0.39494258165359497,1.526936650276184
1772619604134758000,3.6567578125,0.4268626272678375,-0.5298575162887573,1.4949332475662231
1772619604144789000,3.6667890625,0.6813185811042786,-0.7444201111793518,1.4209513664245605
1772619604154819800,3.67681982421875,0.8147000074386597,-0.9909587502479553,1.3344913721084595
1772619604164851000,3.686850830078125,0.7496674656867981,-1.272387981414795,1.2024449110031128
1772619604174882000,3.696882080078125,0.47675207257270813,-1.6026126146316528,0.9641184210777283
1772619604184913200,3.7069130859375,0.09216256439685822,-1.99965238571167,0.5505428314208984
1772619604194944300,3.7169443359375,-0.29088401794433594,-2.308006525039673,-0.00810166820883751
1772619604204975000,3.72697509765625,-0.5967432856559753,-2.305006504058838,-0.6117351055145264
1772619604215006200,3.737006103515625,-0.8008217811584473,-2.011990785598755,-1.1501672267913818
1772619604225037000,3.747037109375,-0.9028269648551941,-1.607640027999878,-1.5372041463851929
1772619604235068200,3.757068115234375,-0.9472017884254456,-1.25408935546875,-1.7727086544036865
1772619604245100000,3.76710009765625,-1.0058642625808716,-1.1087756156921387,-1.9054408073425293
1772619604255131000,3.777130859375,-1.0809078216552734,-1.2369663715362549,-1.9529300928115845
1772619604265162000,3.787161865234375,-1.124812126159668,-1.5043437480926514,-1.908440113067627
1772619604275193000,3.797193115234375,-1.12330162525177,-1.8067718744277954,-1.794486403465271
1772619604285224000,3.807223876953125,-1.09720778465271,-2.0615897178649902,-1.6358579397201538
1772619604295255000,3.817255126953125,-1.0625804662704468,-2.169174909591675,-1.4589674472808838
1772619604305286100,3.8272861328125,-1.001514196395874,-2.0994789600372314,-1.270370364189148
1772619604315317200,3.837317138671875,-0.9300707578659058,-1.8301712274551392,-1.0556931495666504
1772619604325348000,3.84734814453125,-0.8518414497375488,-1.457950234413147,-0.7780139446258545
1772619604335379200,3.857379150390625,-0.746147871017456,-1.092930555343628,-0.44053810834884644
1772619604345410000,3.86741015625,-0.5954139828681946,-0.7461994886398315,-0.042361706495285034
1772619604355441200,3.877441162109375,-0.41344526410102844,-0.39391911029815674,0.38161349296569824
1772619604365472000,3.887471923828125,-0.23720231652259827,-0.012234047055244446,0.7752417325973511
1772619604375504100,3.897504150390625,-0.08697952330112457,0.4045754671096802,1.0587266683578491
1772619604385535000,3.907534912109375,0.08489583432674408,0.6706691980361938,1.127820611000061
1772619604395566000,3.917566162109375,0.3230954110622406,0.708659827709198,0.9694876074790955
1772619604405597000,3.927596923828125,0.5623021125793457,0.7697623372077942,0.7364428639411926
1772619604415628000,3.9376279296875,0.7067583799362183,0.8396981358528137,0.5080398917198181
1772619604425659000,3.947658935546875,0.7577823996543884,0.8480857610702515,0.3001263439655304
1772619604435690200,3.957690185546875,0.7392750978469849,0.8396556973457336,0.14128707349300385
1772619604445721000,3.96772119140625,0.6584974527359009,0.8389387726783752,0.03475930541753769
1772619604455752200,3.977752197265625,0.5191310048103333,0.8659509420394897,-0.022320225834846497
1772619604465783000,3.987782958984375,0.3344634175300598,0.9898406267166138,-0.006788137834519148
1772619604475814100,3.997814208984375,0.1234048455953598,1.2165651321411133,0.0866047814488411
1772619604485845000,4.007844970703125,-0.08260317891836166,1.4958947896957397,0.22310243546962738
1772619604495877000,4.017877197265625,-0.2766023874282837,1.745633602142334,0.3741861879825592
1772619604505908000,4.027907958984375,-0.438386470079422,1.8190460205078125,0.5172349214553833
1772619604515939000,4.03793896484375,-0.556026816368103,1.713559627532959,0.633810818195343
1772619604525970000,4.047969970703125,-0.6321237087249756,1.471971869468689,0.7340940237045288
1772619604536001000,4.0580009765625,-0.6705958247184753,1.0835880041122437,0.8524068593978882
1772619604546031900,4.068031982421875,-0.6749266386032104,0.6863369345664978,1.033165454864502
1772619604556063000,4.07806298828125,-0.6342312097549438,0.42861053347587585,1.2798596620559692
1772619604566094000,4.088093994140625,-0.5454661846160889,0.37982994318008423,1.5846384763717651
1772619604576125200,4.098125244140625,-0.4292607009410858,0.5318755507469177,1.8821146488189697
1772619604586156000,4.108156005859375,-0.3011575937271118,0.637057363986969,2.0668482780456543
1772619604596187100,4.118187255859375,-0.17365117371082306,0.5378676652908325,2.0705039501190186
1772619604606218000,4.128218017578125,-0.05867984890937805,0.44265779852867126,2.0057168006896973
1772619604616249000,4.1382490234375,0.0064010415226221085,0.5267093777656555,1.951177716255188
1772619604626281000,4.148281005859375,0.02698754332959652,0.6521962285041809,1.8222815990447998
1772619604636312000,4.15831201171875,0.08369702100753784,0.6757318377494812,1.538848638534546
1772619604646343000,4.168343017578125,0.10814270377159119,0.536387026309967,1.0524473190307617
1772619604656374000,4.1783740234375,-0.05760200694203377,0.22091160714626312,0.29859301447868347
1772619604666404900,4.18840478515625,-0.38709360361099243,-0.25746405124664307,-0.6694700717926025
1772619604676436000,4.19843603515625,-0.8180395364761353,-0.7951241135597229,-1.7430837154388428
1772619604686467000,4.208467041015625,-1.21796452999115,-1.256945252418518,-2.6508595943450928
1772619604696498400,4.21849853515625,-1.50416100025177,-1.5982568264007568,-3.1240313053131104
1772619604706529300,4.228529296875,-1.6310735940933228,-1.8406316041946411,-3.015380620956421
1772619604716560400,4.238560302734375,-1.5369141101837158,-1.957593321800232,-2.4464080333709717
1772619604726591200,4.24859130859375,-1.2265557050704956,-1.836665391921997,-1.639883041381836
1772619604736622300,4.258622314453125,-0.8403639793395996,-1.454703450202942,-0.7740914225578308
1772619604746653400,4.2686533203125,-0.548945963382721,-1.0904927253723145,-0.07245077192783356
1772619604756685600,4.278685546875,-0.2590901255607605,-0.8923220038414001,0.3642881512641907
1772619604766716400,4.28871630859375,0.15118208527565002,-0.8842856287956238,0.4638352394104004
1772619604776747500,4.29874755859375,0.44424504041671753,-0.6484033465385437,0.49934566020965576
1772619604786778400,4.3087783203125,0.5519080758094788,-0.29369989037513733,0.55148845911026
1772619604796809500,4.3188095703125,0.6120303869247437,0.055140748620033264,0.597244381904602
1772619604806840300,4.32884033203125,0.6289973855018616,0.37569984793663025,0.647157609462738
1772619604816871400,4.338871337890625,0.561468243598938,0.6153209805488586,0.6847672462463379
1772619604826902300,4.34890234375,0.4408581852912903,0.7922448515892029,0.6842729449272156
1772619604836933400,4.358933349609375,0.31502217054367065,0.9124580025672913,0.6445224285125732
1772619604846964500,4.368964599609375,0.1870039999485016,0.9844956994056702,0.563547670841217
1772619604856995300,4.378995361328125,0.0759873241186142,1.02370285987854,0.45498037338256836
1772619604867026400,4.3890263671875,0.003519779071211815,1.0309159755706787,0.33490270376205444
1772619604877057300,4.399057373046875,-0.01917203515768051,0.9903953671455383,0.23321743309497833
1772619604887089400,4.40908935546875,-0.035496946424245834,0.8976864814758301,0.15558788180351257
1772619604897120500,4.41912060546875,-0.04655615985393524,0.7886645197868347,0.11405978351831436
1772619604907151400,4.4291513671875,-0.04797881841659546,0.6891984343528748,0.11513756215572357
1772619604917182500,4.439182373046875,-0.0460616797208786,0.6027723550796509,0.1491595059633255
1772619604927213300,4.44921337890625,-0.040738023817539215,0.5281521677970886,0.22249257564544678
1772619604937244400,4.459244384765625,-0.038007594645023346,0.464572936296463,0.30468398332595825
1772619604947275500,4.469275634765625,-0.042331770062446594,0.36314618587493896,0.3943544924259186
1772619604957306400,4.479306396484375,-0.05118691921234131,0.23410196602344513,0.5088422894477844
1772619604967337500,4.48933740234375,-0.08429640531539917,0.1429177224636078,0.6337283253669739
1772619604977368300,4.499368408203125,-0.14476421475410461,0.04993857443332672,0.7585232257843018
1772619604987399400,4.5093994140625,-0.20759618282318115,-0.05085035413503647,0.8746333122253418
1772619604997430300,4.51943017578125,-0.2661779522895813,-0.07676862180233002,0.9505756497383118
1772619605007462400,4.52946240234375,-0.3121747374534607,-0.054602332413196564,0.9757609367370605
1772619605017493500,4.539493408203125,-0.32049471139907837,-0.014972721226513386,0.9757363796234131
1772619605027524400,4.5495244140625,-0.2899698317050934,0.08326143771409988,0.9754474759101868
1772619605037555500,4.559555419921875,-0.24487042427062988,0.14942118525505066,0.9158490300178528
1772619605047586600,4.569586669921875,-0.22148467600345612,0.04536961019039154,0.7756836414337158
1772619605057617400,4.579617431640625,-0.2110147476196289,-0.17973771691322327,0.6097354292869568
1772619605067648500,4.5896484375,-0.19013503193855286,-0.36228543519973755,0.43748804926872253
1772619605077679400,4.599679443359375,-0.12247922271490097,-0.4135951101779938,0.26538652181625366
1772619605087710500,4.60971044921875,0.009621822275221348,-0.3520300090312958,0.08723887801170349
1772619605097741300,4.6197412109375,0.17499586939811707,-0.21932949125766754,-0.09134231507778168
1772619605107772400,4.6297724609375,0.3557209074497223,-0.08303290605545044,-0.26258328557014465
1772619605117803300,4.63980322265625,0.5497609972953796,-0.006303176749497652,-0.4303462505340576
1772619605127834400,4.64983447265625,0.7070398330688477,-0.016521193087100983,-0.6000391244888306
1772619605137866500,4.659866455078125,0.7414546012878418,-0.13901476562023163,-0.802237331867218
1772619605147897600,4.669897705078125,0.630550742149353,-0.3295442461967468,-1.0433015823364258
1772619605157928400,4.679928466796875,0.41756463050842285,-0.5107921361923218,-1.2583305835723877
1772619605167959600,4.68995947265625,0.20996856689453125,-0.5964100956916809,-1.3749830722808838
1772619605177990400,4.699990478515625,0.03369402140378952,-0.5489358305931091,-1.4070239067077637
1772619605188021500,4.710021484375,-0.09567088633775711,-0.40762457251548767,-1.393467664718628
1772619605198052400,4.72005224609375,-0.16743072867393494,-0.21833884716033936,-1.3729182481765747
1772619605208083500,4.73008349609375,-0.1611693650484085,-0.04884675517678261,-1.3654149770736694
1772619605218114300,4.7401142578125,-0.10696911066770554,0.043013084679841995,-1.3645694255828857
1772619605228145400,4.7501455078125,-0.04146946221590042,0.03282409533858299,-1.336693286895752
1772619605238176300,4.76017626953125,0.00646906066685915,-0.032976921647787094,-1.2420501708984375
1772619605248207400,4.770207275390625,0.02249809354543686,-0.09797003865242004,-1.0712474584579468
1772619605258239500,4.780239501953125,-0.006074134726077318,-0.13548454642295837,-0.8468692898750305
1772619605268270600,4.7902705078125,-0.07629956305027008,-0.12964797019958496,-0.5980672240257263
1772619605278301400,4.800301513671875,-0.17722968757152557,-0.06768839806318283,-0.3644983172416687
1772619605288332500,4.81033251953125,-0.2749304175376892,0.05745780095458031,-0.16944921016693115
1772619605298363400,4.82036328125,-0.3512946665287018,0.19969898462295532,-0.05265500023961067
1772619605308394500,4.83039453125,-0.3981007933616638,0.3161236047744751,-0.012422360479831696
1772619605318425300,4.84042529296875,-0.4164714515209198,0.3969629108905792,-0.04473189637064934
1772619605328456400,4.85045654296875,-0.4174826443195343,0.41989806294441223,-0.12587814033031464
1772619605338487300,4.8604873046875,-0.4158625900745392,0.404846727848053,-0.23586833477020264
1772619605348518400,4.870518310546875,-0.3927311599254608,0.3644130229949951,-0.3329956829547882
1772619605358549200,4.88054931640625,-0.35481125116348267,0.28501632809638977,-0.3717571496963501
1772619605368580400,4.890580322265625,-0.32512152194976807,0.18509507179260254,-0.3503565192222595
1772619605378611200,4.900611083984375,-0.297603577375412,0.09959987550973892,-0.26816031336784363
1772619605388643600,4.9106435546875,-0.2563650608062744,0.06538624316453934,-0.1321459859609604
1772619605398674400,4.92067431640625,-0.1954847276210785,0.11715580523014069,0.05424633249640465
1772619605408705500,4.93070556640625,-0.12695254385471344,0.2223282903432846,0.2544630467891693
1772619605418736400,4.940736328125,-0.07315783202648163,0.35990068316459656,0.4601565897464752
1772619605428767500,4.950767578125,-0.013121923431754112,0.48970794677734375,0.6201566457748413
1772619605438798300,4.96079833984375,0.05864032730460167,0.5456938147544861,0.7140659093856812
1772619605448829400,4.970829345703125,0.13551193475723267,0.49216803908348083,0.7239925861358643
1772619605458860300,4.9808603515625,0.21922597289085388,0.30637937784194946,0.6445596218109131
1772619605468891400,4.990891357421875,0.28464919328689575,0.09017649292945862,0.5345265865325928
1772619605478922200,5.000922119140625,0.3138779103755951,-0.07817598432302475,0.4740709364414215
1772619605488953300,5.010953369140625,0.32541367411613464,-0.2738136649131775,0.4916965365409851
1772619605498984400,5.020984375,0.3656153082847595,-0.4985556900501251,0.6260672807693481
1772619605509016600,5.0310166015625,0.4873233735561371,-0.6457805633544922,0.8867031335830688
1772619605519047400,5.04104736328125,0.5811141729354858,-0.6710551381111145,1.2140189409255981
1772619605529078500,5.05107861328125,0.6151823997497559,-0.6781532764434814,1.4793508052825928
1772619605539109400,5.061109375,0.6997628808021545,-0.7189133763313293,1.6064027547836304
1772619605549140500,5.071140380859375,0.8322048187255859,-0.9331287145614624,1.5055030584335327
1772619605559171300,5.08117138671875,0.8870014548301697,-1.4058641195297241,1.0414600372314453
1772619605569202400,5.091202392578125,0.7729108333587646,-1.825562596321106,0.22393134236335754
1772619605579233300,5.1012333984375,0.524165153503418,-2.043778657913208,-0.8380698561668396
1772619605589264400,5.111264404296875,0.23295941948890686,-2.009986162185669,-1.9321004152297974
1772619605599295500,5.12129541015625,-0.059409622102975845,-1.6914262771606445,-2.7936747074127197
1772619605609326300,5.131326416015625,-0.31515535712242126,-1.1845026016235352,-3.211716413497925
1772619605619357400,5.141357421875,-0.46629220247268677,-0.5791842937469482,-3.1189005374908447
1772619605629388300,5.15138818359375,-0.42108771204948425,0.09244944900274277,-2.5681674480438232
1772619605639420400,5.16142041015625,-0.17965182662010193,0.728082001209259,-1.8157799243927002
1772619605649451500,5.171451416015625,0.19992026686668396,1.267243504524231,-1.0831559896469116
1772619605659482400,5.181482421875,0.5451716184616089,1.471031665802002,-0.5345752239227295
1772619605669513500,5.191513427734375,0.7955124974250793,1.1489193439483643,-0.2686287760734558
1772619605679544600,5.201544677734375,0.947336733341217,0.6048479676246643,-0.1724921464920044
1772619605689575400,5.211575439453125,0.9614301323890686,0.15512369573116302,-0.0989830493927002
1772619605699605200,5.221605224609375,0.892155110836029,-0.1021234467625618,-0.016521375626325607
1772619605709636000,5.231635986328125,0.8169122934341431,-0.15950578451156616,0.09192253649234772
1772619605719667200,5.241667236328125,0.7450386881828308,-0.05279010161757469,0.21180786192417145
1772619605729698300,5.2516982421875,0.6701846718788147,0.14037910103797913,0.3082982003688812
1772619605739729200,5.261729248046875,0.587989866733551,0.38537296652793884,0.3467889130115509
1772619605749760300,5.27176025390625,0.5256615281105042,0.6650368571281433,0.3150847852230072
1772619605759792000,5.281792236328125,0.47099804878234863,0.9605869054794312,0.24534372985363007
1772619605769823000,5.291822998046875,0.44289132952690125,1.2182093858718872,0.15624314546585083
1772619605779854000,5.30185400390625,0.4280894994735718,1.3899242877960205,0.06746453791856766
1772619605789885000,5.311885009765625,0.4306464195251465,1.437556505203247,0.019130032509565353
1772619605799916000,5.321916015625,0.42703408002853394,1.3608863353729248,0.008412695489823818
1772619605809947100,5.331947021484375,0.4169159233570099,1.1810808181762695,0.04485858604311943
1772619605819978200,5.341978271484375,0.40184903144836426,0.9627368450164795,0.11120333522558212
1772619605830009300,5.35200927734375,0.3832170367240906,0.7462639212608337,0.20581187307834625
1772619605840040200,5.362040283203125,0.33459028601646423,0.5494418144226074,0.3359060287475586
1772619605850071300,5.3720712890625,0.24173782765865326,0.41784143447875977,0.49486640095710754
1772619605860102100,5.38210205078125,0.10755413770675659,0.3429538309574127,0.6517165303230286
1772619605870134000,5.392134033203125,-0.04038979113101959,0.2825210988521576,0.766011118888855
1772619605880165000,5.4021650390625,-0.14429481327533722,0.25696179270744324,0.822284996509552
1772619605890196000,5.412196044921875,-0.1825961172580719,0.27091145515441895,0.8560312390327454
1772619605900227000,5.42222705078125,-0.1730828881263733,0.3182624280452728,0.9107662439346313
1772619605910258200,5.432258056640625,-0.11965082585811615,0.37573903799057007,0.996124804019928
1772619605920289000,5.4422890625,-0.033240098506212234,0.3798450529575348,1.086304783821106
1772619605930320100,5.452320068359375,0.07974424958229065,0.3109743893146515,1.1519144773483276
1772619605940351200,5.462351318359375,0.1681697517633438,0.17031331360340118,1.1694138050079346
1772619605950382300,5.47238232421875,0.22292619943618774,-0.02418852597475052,1.1424243450164795
1772619605960413200,5.4824130859375,0.2376198023557663,-0.15917335450649261,1.1258357763290405
1772619605970444300,5.4924443359375,0.23463866114616394,-0.13768617808818817,1.1345323324203491
1772619605980475100,5.50247509765625,0.20242570340633392,0.025853212922811508,1.1140037775039673
1772619605990506200,5.51250634765625,0.16800060868263245,0.24238204956054688,0.9912914633750916
1772619606000538000,5.5225380859375,0.17950120568275452,0.42775511741638184,0.751927375793457
1772619606010569200,5.5325693359375,0.3012729287147522,0.4680016040802002,0.4617258608341217
1772619606020600000,5.54260009765625,0.530988335609436,0.22187869250774384,0.19129660725593567
1772619606030631200,5.552631103515625,0.8292754292488098,-0.2402857393026352,0.002500600181519985
1772619606040662000,5.562662109375,1.175094485282898,-0.7813954949378967,-0.16128215193748474
1772619606050693000,5.572693115234375,1.5108038187026978,-1.3489060401916504,-0.392248272895813
1772619606060724000,5.582723876953125,1.7693098783493042,-1.9035001993179321,-0.7217543721199036
1772619606070755300,5.59275537109375,1.840686321258545,-2.4225049018859863,-1.0530407428741455
1772619606080786200,5.6027861328125,1.6571191549301147,-2.9293179512023926,-1.1962918043136597
1772619606090817300,5.6128173828125,1.2660621404647827,-3.230447292327881,-1.1044963598251343
1772619606100848000,5.62284814453125,0.809954047203064,-3.099263906478882,-0.919544517993927
1772619606110879200,5.632879150390625,0.36135339736938477,-2.6076393127441406,-0.7495861053466797
1772619606120911000,5.6429111328125,-0.015109916217625141,-1.877825140953064,-0.695523202419281
1772619606130942200,5.652942138671875,-0.2642635405063629,-1.050174593925476,-0.8213487863540649
1772619606140973000,5.66297314453125,-0.4030987620353699,-0.18658331036567688,-1.039534568786621
1772619606151004200,5.673004150390625,-0.46683675050735474,0.6438701748847961,-1.2464607954025269
1772619606161035000,5.683034912109375,-0.4694189131259918,1.3421076536178589,-1.353186011314392
1772619606171066000,5.693066162109375,-0.4170781970024109,1.8322206735610962,-1.3322607278823853
1772619606181097000,5.703096923828125,-0.32908934354782104,2.1080636978149414,-1.2043724060058594
1772619606191128300,5.71312841796875,-0.21647784113883972,2.189295530319214,-1.030613899230957
1772619606201159200,5.7231591796875,-0.11359784752130508,2.078458070755005,-0.8698748350143433
1772619606211190300,5.733190185546875,-0.07021255791187286,1.8053946495056152,-0.730762779712677
1772619606221221000,5.74322119140625,-0.12067608535289764,1.4563944339752197,-0.622231662273407
1772619606231252200,5.753252197265625,-0.2507222294807434,1.0938524007797241,-0.5202576518058777
1772619606241284000,5.7632841796875,-0.4293690621852875,0.7833940982818604,-0.40778687596321106
1772619606251315200,5.773315185546875,-0.618622362613678,0.5501254200935364,-0.27764272689819336
1772619606261346000,5.783345947265625,-0.7771999835968018,0.34692272543907166,-0.16301636397838593
1772619606271377200,5.793377197265625,-0.8767590522766113,0.12752938270568848,-0.05948890000581741
1772619606281408000,5.803407958984375,-0.9323131442070007,-0.062318723648786545,0.04280025139451027
1772619606291439000,5.813439208984375,-0.96680748462677,-0.17541545629501343,0.1705251932144165
1772619606301470000,5.823469970703125,-0.9822789430618286,-0.18741868436336517,0.30968108773231506
1772619606311501000,5.8335009765625,-0.9783822298049927,-0.08908039331436157,0.4633942246437073
1772619606321532200,5.8435322265625,-0.9653182625770569,0.1099742203950882,0.6232974529266357
1772619606331563300,5.853563232421875,-0.8984825015068054,0.3707283139228821,0.7930939793586731
1772619606341594000,5.863593994140625,-0.7706463932991028,0.6196051836013794,0.9705681800842285
1772619606351625200,5.873625244140625,-0.5915203094482422,0.7844732403755188,1.1330738067626953
1772619606361657000,5.883656982421875,-0.40302571654319763,0.8343656659126282,1.2803958654403687
1772619606371688200,5.893688232421875,-0.24319100379943848,0.7718228101730347,1.425540804862976
1772619606381719000,5.903718994140625,-0.13966237008571625,0.6249132752418518,1.566512942314148
1772619606391750100,5.913750244140625,-0.08820157498121262,0.39252692461013794,1.6723674535751343
1772619606401781000,5.923781005859375,-0.10660247504711151,0.03342154994606972,1.6615172624588013
1772619606411812000,5.93381201171875,-0.13674280047416687,-0.39541104435920715,1.5252885818481445
1772619606421843000,5.943843017578125,-0.12958532571792603,-0.7896308302879333,1.3577818870544434
1772619606431874000,5.9538740234375,-0.16266338527202606,-0.9834319949150085,1.2849372625350952
1772619606441905000,5.96390478515625,-0.24051707983016968,-0.9654081463813782,1.2653541564941406
1772619606451936300,5.973936279296875,-0.249611496925354,-0.8001797795295715,1.2032259702682495
1772619606461967000,5.983967041015625,-0.16433730721473694,-0.5170844197273254,1.0354689359664917
1772619606471998200,5.993998291015625,-0.06393133103847504,-0.0749126523733139,0.7657411098480225
1772619606482029300,6.004029296875,0.025735601782798767,0.43539488315582275,0.38536614179611206
1772619606492061200,6.014061279296875,0.0875030905008316,0.7054135799407959,-0.22749114036560059
1772619606502092000,6.024092041015625,0.050995226949453354,0.49596136808395386,-1.098641037940979
1772619606512123100,6.034123046875,-0.1396080106496811,-0.16684240102767944,-1.9975351095199585
1772619606522154000,6.044154052734375,-0.46139657497406006,-1.005669355392456,-2.580349922180176
1772619606532185000,6.05418505859375,-0.7741901278495789,-1.7277846336364746,-2.6547176837921143
1772619606542216000,6.0642158203125,-0.9223836064338684,-2.078991413116455,-2.251037359237671
1772619606552247000,6.0742470703125,-0.8371214270591736,-1.8348060846328735,-1.514723539352417
1772619606562278100,6.084278076171875,-0.566493570804596,-1.1358169317245483,-0.740970253944397
1772619606572309200,6.094309326171875,-0.24463509023189545,-0.341265469789505,-0.17708852887153625
1772619606582340400,6.10434033203125,0.05068410933017731,0.27361029386520386,0.052347417920827866
1772619606592371200,6.11437109375,0.2554503083229065,0.7163557410240173,0.04413636028766632
1772619606602402300,6.12440234375,0.32134175300598145,1.0394986867904663,-0.05435936897993088
1772619606612434200,6.13443408203125,0.2756038308143616,1.225654125213623,-0.1774919480085373
1772619606622465000,6.144465087890625,0.17065981030464172,1.3033342361450195,-0.2651893198490143
1772619606632496000,6.15449609375,0.04540177062153816,1.297619104385376,-0.292784720659256
1772619606642527000,6.16452685546875,-0.061282679438591,1.2025834321975708,-0.24838656187057495
1772619606652558000,6.17455810546875,-0.14018841087818146,1.0157394409179688,-0.15574771165847778
1772619606662589200,6.184589111328125,-0.17940828204154968,0.7717938423156738,-0.04424084722995758
1772619606672620000,6.1946201171875,-0.16414810717105865,0.5112512111663818,0.06449867784976959
1772619606682651100,6.204651123046875,-0.09497180581092834,0.2871116101741791,0.13355083763599396
1772619606692682000,6.214681884765625,-0.0056943949311971664,0.10775409638881683,0.13984069228172302
1772619606702713600,6.224713623046875,0.092081218957901,-0.010125391185283661,0.0759812667965889
1772619606712744400,6.234744384765625,0.19142352044582367,-0.04526020959019661,-0.004035805352032185
1772619606722775600,6.244775634765625,0.2545301914215088,-0.014101078733801842,-0.054585445672273636
1772619606732807700,6.2548076171875,0.28145289421081543,0.03242940455675125,-0.05110495910048485
1772619606742838500,6.264838623046875,0.26975828409194946,0.06848198920488358,0.034128833562135696
1772619606752869600,6.27486962890625,0.234474316239357,0.0867062658071518,0.19976255297660828
1772619606762900500,6.284900390625,0.17851603031158447,0.09994325786828995,0.41258716583251953
1772619606772931600,6.294931640625,0.12416277080774307,0.12291861325502396,0.637965738773346
1772619606782962700,6.304962646484375,0.06182320415973663,0.07888274639844894,0.8148539066314697
1772619606792993500,6.31499365234375,-0.003740092273801565,-0.08234661817550659,0.9062203168869019
1772619606803024600,6.325024658203125,-0.059176966547966,-0.30360448360443115,0.9361228346824646
1772619606813055500,6.335055419921875,-0.09892863780260086,-0.5361889600753784,0.9527271389961243
1772619606823086600,6.345086669921875,-0.1280534863471985,-0.7273967862129211,1.0389198064804077
1772619606833117400,6.355117431640625,-0.13911813497543335,-0.8100788593292236,1.2192416191101074
1772619606843148500,6.3651484375,-0.12998364865779877,-0.7210086584091187,1.4264692068099976
1772619606853180700,6.3751806640625,-0.06352552771568298,-0.5060479044914246,1.5556235313415527
1772619606863211500,6.38521142578125,0.050992514938116074,-0.3058226704597473,1.5273045301437378
1772619606873242600,6.39524267578125,0.1835537552833557,-0.21082985401153564,1.353192925453186
1772619606883273700,6.405273681640625,0.3017688989639282,-0.20745673775672913,1.118144154548645
1772619606893304600,6.4153046875,0.3822440505027771,-0.31711480021476746,0.8620103001594543
1772619606903335700,6.425335693359375,0.4341306984424591,-0.5151125192642212,0.5933873653411865
1772619606913366500,6.435366455078125,0.43341246247291565,-0.7435545325279236,0.30354195833206177
1772619606923397600,6.445397705078125,0.36889275908470154,-0.8845328092575073,-0.008331971243023872
1772619606933428500,6.455428466796875,0.25623437762260437,-0.9320561289787292,-0.36528104543685913
1772619606943459600,6.46545947265625,0.11854003369808197,-0.9358210563659668,-0.7512986063957214
1772619606953490400,6.475490478515625,0.006989805959165096,-0.8349061608314514,-1.0976437330245972
1772619606963521500,6.485521484375,-0.05990369990468025,-0.5747220516204834,-1.358319640159607
1772619606973553700,6.4955537109375,-0.08551132678985596,-0.21893836557865143,-1.5062220096588135
1772619606983584800,6.505584716796875,-0.06933312118053436,0.0984107181429863,-1.5601673126220703
1772619606993615600,6.51561572265625,-0.04105541110038757,0.2053331732749939,-1.5600054264068604
1772619607003646700,6.525646728515625,-0.032276663929224014,0.09198004007339478,-1.5550878047943115
1772619607013677600,6.535677490234375,-0.06813400238752365,-0.14828716218471527,-1.5907176733016968
1772619607023708700,6.545708740234375,-0.14081698656082153,-0.4208467900753021,-1.6673285961151123
1772619607033739500,6.555739501953125,-0.17735075950622559,-0.6785579919815063,-1.7465178966522217
1772619607043770600,6.5657705078125,-0.15438693761825562,-0.8958874344825745,-1.779465913772583
1772619607053801500,6.575801513671875,-0.08339691162109375,-1.047296404838562,-1.7072079181671143
1772619607063832600,6.58583251953125,0.012157488614320755,-1.123159646987915,-1.495035171508789
1772619607073863400,6.595863525390625,0.12685024738311768,-1.1130667924880981,-1.1517928838729858
1772619607083894500,6.60589453125,0.26618263125419617,-0.9962167739868164,-0.7213126420974731
1772619607093926700,6.6159267578125,0.39335310459136963,-0.726820707321167,-0.2074330896139145
1772619607103957800,6.625957763671875,0.4709642231464386,-0.33134663105010986,0.3220084011554718
1772619607113988600,6.635988525390625,0.4928242564201355,0.14596028625965118,0.7600552439689636
1772619607124019700,6.646019775390625,0.5073692798614502,0.5422017574310303,1.0347634553909302
1772619607134050600,6.656050537109375,0.5259299278259277,0.7421092391014099,1.133426547050476
1772619607144081700,6.66608154296875,0.5766911506652832,0.718786895275116,1.0646775960922241
1772619607154112500,6.676112548828125,0.6278818845748901,0.6023838520050049,0.8894562125205994
1772619607164143600,6.6861435546875,0.6410695910453796,0.5025022625923157,0.7059327363967896
1772619607174174500,6.696174560546875,0.5870692133903503,0.3726004660129547,0.5328059196472168
1772619607184205600,6.70620556640625,0.47570163011550903,0.19917620718479156,0.37560006976127625
1772619607194236400,6.716236328125,0.33814457058906555,0.05164666473865509,0.26302480697631836
1772619607204267500,6.726267578125,0.20307916402816772,-0.016615312546491623,0.21158161759376526
1772619607214299400,6.73629931640625,0.09368155896663666,0.028430460020899773,0.21647518873214722
1772619607224330800,6.746330810546875,0.01964772678911686,0.1660989373922348,0.2528119683265686
1772619607234361600,6.756361572265625,-0.023847287520766258,0.37629878520965576,0.33247244358062744
1772619607244392700,6.766392822265625,-0.04130803421139717,0.6261696219444275,0.45396772027015686
1772619607254423600,6.776423583984375,-0.05936107039451599,0.8699460625648499,0.5839898586273193
1772619607264454700,6.78645458984375,-0.08831501752138138,1.030053734779358,0.6719574332237244
1772619607274485500,6.796485595703125,-0.11316949874162674,1.0754400491714478,0.7036005854606628
1772619607284516600,6.8065166015625,-0.149690642952919,0.98956298828125,0.6897644996643066
1772619607294547500,6.81654736328125,-0.2108999490737915,0.7038867473602295,0.6358527541160583
1772619607304578600,6.82657861328125,-0.2894548773765564,0.20898041129112244,0.6115516424179077
1772619607314609400,6.836609375,-0.3720315098762512,-0.2760813534259796,0.7053881287574768
1772619607324640500,6.846640625,-0.4725959897041321,-0.45801109075546265,0.9424044489860535
1772619607334671600,6.856671630859375,-0.5480145215988159,-0.29899027943611145,1.2455238103866577
1772619607344703500,6.866703369140625,-0.5888593196868896,-0.03591950982809067,1.4854960441589355
1772619607354734600,6.876734619140625,-0.5627715587615967,0.0047325799241662025,1.4331260919570923
1772619607364765700,6.886765625,-0.4136945903301239,-0.05885186791419983,1.0239800214767456
1772619607374796500,6.896796630859375,-0.28421837091445923,0.11970136314630508,0.5241273045539856
1772619607384827600,6.90682763671875,-0.25319480895996094,0.22052863240242004,-0.01846015639603138
1772619607394858500,6.9168583984375,-0.2528954744338989,0.29244464635849,-0.5047158002853394
1772619607404889600,6.9268896484375,-0.30477410554885864,0.4019635021686554,-0.9209437370300293
1772619607414920400,6.93692041015625,-0.4533883333206177,0.36740952730178833,-1.3554056882858276
1772619607424951600,6.94695166015625,-0.6353826522827148,0.09767653793096542,-1.8188180923461914
1772619607434982700,6.956982666015625,-0.7908473610877991,-0.26450642943382263,-2.180948257446289
1772619607445013500,6.967013427734375,-0.8671478033065796,-0.4942065477371216,-2.2669765949249268
1772619607455044600,6.977044677734375,-0.8315301537513733,-0.6034227609634399,-1.9667507410049438
1772619607465076500,6.987076416015625,-0.6458503603935242,-0.5754518508911133,-1.3375636339187622
1772619607475107600,6.997107666015625,-0.35132497549057007,-0.45508524775505066,-0.5541964769363403
1772619607485138700,7.007138671875,-0.0025980458594858646,-0.2618899941444397,0.14465928077697754
1772619607495169500,7.01716943359375,0.2963303327560425,-0.07433287054300308,0.5918559432029724
1772619607505200600,7.02720068359375,0.492971807718277,0.010081222280859947,0.7315828800201416
1772619607515231500,7.0372314453125,0.5575132369995117,0.03210609778761864,0.6426101326942444
1772619607525262600,7.0472626953125,0.5464921593666077,0.09638692438602448,0.47943544387817383
1772619607535293700,7.057293701171875,0.47417566180229187,0.20303188264369965,0.3395278751850128
1772619607545324500,7.067324462890625,0.3668535053730011,0.3812505900859833,0.291143536567688
1772619607555355600,7.077355712890625,0.27900487184524536,0.5528367161750793,0.32127055525779724
1772619607565386500,7.087386474609375,0.17072877287864685,0.7357654571533203,0.40830737352371216
1772619607575417600,7.09741748046875,0.10941268503665924,0.8803977370262146,0.519137978553772
1772619607585449500,7.107449462890625,0.1200767457485199,0.9372249841690063,0.6153149008750916
1772619607595480300,7.117480224609375,0.18990616500377655,0.8903759717941284,0.712864100933075
1772619607605511700,7.12751171875,0.26415324211120605,0.7464795112609863,0.8250257968902588
1772619607615542500,7.13754248046875,0.32503071427345276,0.5383484363555908,0.9445822834968567
1772619607625573600,7.14757373046875,0.3702726364135742,0.33550721406936646,1.0595664978027344
1772619607635604700,7.157604736328125,0.4018990099430084,0.1942472904920578,1.1631102561950684
1772619607645635600,7.167635498046875,0.4128817021846771,0.1277448534965515,1.2676650285720825
1772619607655666700,7.177666748046875,0.38056185841560364,0.09579811245203018,1.3544870615005493
1772619607665697500,7.187697509765625,0.3036045730113983,0.08379708975553513,1.4192698001861572
1772619607675728600,7.197728759765625,0.20859628915786743,0.11084761470556259,1.47559654712677
1772619607685759500,7.207759521484375,0.10631587356328964,0.1758362203836441,1.5203452110290527
1772619607695790600,7.21779052734375,0.0230830367654562,0.2577950060367584,1.5555415153503418
1772619607705822500,7.227822509765625,-0.03808882087469101,0.3445596992969513,1.5552985668182373
1772619607715853600,7.237853515625,-0.06101011484861374,0.37142807245254517,1.50667405128479
1772619607725884400,7.247884521484375,-0.037188656628131866,0.3325129747390747,1.4289767742156982
1772619607735915800,7.257915771484375,0.019724158570170403,0.24596793949604034,1.3436059951782227
1772619607745946600,7.267946533203125,0.09294857084751129,0.1329902559518814,1.244369626045227
1772619607755977700,7.277977783203125,0.17550736665725708,0.03154566511511803,1.1176745891571045
1772619607766008600,7.288008544921875,0.24482429027557373,-0.07280891388654709,0.8883810639381409
1772619607776039700,7.298039794921875,0.26685795187950134,-0.24439744651317596,0.5317766070365906
1772619607786070500,7.308070556640625,0.2349015325307846,-0.477708637714386,0.09465980529785156
1772619607796101600,7.3181015625,0.14019234478473663,-0.7672597765922546,-0.37261125445365906
1772619607806132500,7.328132568359375,-0.02487919107079506,-1.0379589796066284,-0.7693809270858765
1772619607816163600,7.33816357421875,-0.22230011224746704,-1.2252236604690552,-1.0041171312332153
1772619607826195500,7.348195556640625,-0.3850061297416687,-1.2992908954620361,-1.0363320112228394
1772619607836226600,7.3582265625,-0.4807555675506592,-1.1753987073898315,-0.8891534805297852
1772619607846257400,7.36825732421875,-0.4984878897666931,-0.8477762341499329,-0.6254955530166626
1772619607856288800,7.378288818359375,-0.43924427032470703,-0.3716978132724762,-0.3376821279525757
1772619607866319600,7.388319580078125,-0.29655221104621887,0.15572002530097961,-0.10427142679691315
1772619607876350700,7.398350830078125,-0.10851307213306427,0.6027310490608215,-0.009902579709887505
1772619607886381600,7.408381591796875,0.0685843676328659,0.8789102435112,-0.03136327490210533
1772619607896412700,7.41841259765625,0.2137436866760254,0.9933174848556519,-0.12986721098423004
1772619607906443500,7.428443603515625,0.3109143376350403,0.9876923561096191,-0.229636549949646
1772619607916474600,7.438474609375,0.34171539545059204,0.876454770565033,-0.3098059892654419
1772619607926505500,7.44850537109375,0.3221167027950287,0.6651091575622559,-0.3699660301208496
1772619607936536600,7.45853662109375,0.2650289237499237,0.4020915925502777,-0.3958173394203186
1772619607946568400,7.468568359375,0.1925640106201172,0.1770389974117279,-0.38616469502449036
1772619607956599600,7.478599609375,0.13302718102931976,0.05697784200310707,-0.32362622022628784
1772619607966630400,7.48863037109375,0.08013901859521866,0.042290668934583664,-0.2251969277858734
1772619607976661500,7.49866162109375,0.054904766380786896,0.1470533013343811,-0.08986120671033859
1772619607986692600,7.508692626953125,0.053040266036987305,0.43036186695098877,0.16418549418449402
1772619607996723700,7.5187236328125,0.044994059950113297,0.4986748695373535,0.2758025825023651
1772619608006754600,7.528754638671875,0.0069653051905334,0.32950401306152344,0.14243344962596893
1772619608016785700,7.53878564453125,-0.12289068847894669,-0.1784343123435974,-0.33669906854629517
1772619608026816500,7.54881640625,-0.32363155484199524,-0.8768684267997742,-0.9277937412261963
1772619608036847600,7.55884765625,-0.5006164312362671,-1.536265254020691,-1.3527493476867676
1772619608046878500,7.56887841796875,-0.6065842509269714,-2.0136237144470215,-1.5144678354263306
1772619608056909600,7.57890966796875,-0.6076108813285828,-2.14054799079895,-1.4045690298080444
