time,seconds_elapsed,z,y,x
1772733715592226800,0.065226806640625,-0.006489362019300461,0.026153253777092322,-0.023791735110408625
1772733715602241800,0.07524169921875,0.18460545676648615,-0.018512897375051397,0.004589583679428324
1772733715612256800,0.0852568359375,0.30446283929049966,-0.05156286784633994,0.012382424946152604
1772733715622271700,0.095271728515625,0.2565653620839119,-0.01496978140809806,0.0013557163247372955
1772733715632286700,0.10528662109375,0.09134674283266067,0.012870158230746165,0.00983029277792666
1772733715642301700,0.1153017578125,-0.10888064595758914,0.03474997018905124,0.002374332482484169
1772733715652317000,0.12531689453125,-0.10169804097712039,0.05640172271225601,-0.01458898137998767
1772733715662332000,0.135331787109375,-0.03285480637550354,0.022443713468359782,-0.0003929813729599118
1772733715672347000,0.145346923828125,0.08566986624002457,-0.019473321638733613,0.00019845431470312178
1772733715682361900,0.15536181640625,0.08837269545793533,0.0015086053315084428,0.00008855506628751754
1772733715692376600,0.16537646484375,0.055013446691632266,0.017928275020665022,0.004860267546703107
1772733715702390800,0.175390869140625,0.018663199415802953,0.02396681539939018,0.010376683747465722
1772733715712405800,0.18540576171875,0.008050619986653327,0.02926209052960621,0.010158816912816837
1772733715722420700,0.195420654296875,0.07913374246954917,-0.0023333040690631606,0.005243627141369506
1772733715732435700,0.205435791015625,0.1621820280343294,-0.03622327587831532,-0.010644837730936706
1772733715742450700,0.21545068359375,0.17519523886442184,-0.03403762980176834,-0.005886345491698012
1772733715752465700,0.225465576171875,0.12670447193980217,0.007585804070055019,-0.014971340894233435
1772733715762480600,0.235480712890625,0.010427870512008667,0.03755000357058597,0.0010508150940295308
1772733715772496000,0.245495849609375,-0.020253098955750466,0.027510566120583096,0.011122319049574433
1772733715782510800,0.2555107421875,-0.005889642560482025,0.022639108176296576,0.012725073504517785
1772733715792525800,0.26552587890625,0.029276947888731954,0.008064452149183488,-0.00009153247466310859
1772733715802540800,0.275540771484375,0.048882396590709684,0.013518002564052585,-0.0067916831338545305
1772733715812555800,0.2855556640625,0.03541793486177921,0.01944835844412446,-0.0065052856742171565
1772733715822570800,0.29557080078125,0.03961246394217014,0.021646731571503913,-0.01028774965526536
1772733715832585700,0.305585693359375,0.037972295519709584,0.03189686861314112,-0.0020501602957258
1772733715842600700,0.3156005859375,0.04545885188281536,0.004999310691212303,-0.00583777994250413
1772733715852616000,0.325615966796875,0.10561433763802051,-0.024953618496633134,0.004817168190493248
1772733715862629600,0.335629638671875,0.15708616620004176,-0.02792354453537846,0.02633709504455328
1772733715872644600,0.34564453125,0.13942249921560287,-0.012142700189433525,0.01216290501053445
1772733715882659600,0.35565966796875,0.056366030344367025,0.01423990536412457,0.0005549441687529907
1772733715892674600,0.365674560546875,0.01206862345635891,0.04954573303738143,-0.026131352472538127
1772733715902689800,0.375689697265625,-0.03596446282863617,0.04258429196034558,-0.01207460567257367
1772733715912704800,0.385704833984375,-0.022791093000769615,0.011975979020132217,-0.004387494369223714
1772733715922719700,0.3957197265625,0.03871814545094967,0.004161393995769321,0.002168781706714071
1772733715932734700,0.405734619140625,0.07927578128874302,-0.00302403883766965,0.027312383517227135
1772733715942749700,0.415749755859375,0.12835925340950488,0.015685168844059807,0.006418401975207962
1772733715952764700,0.4257646484375,0.1332955407679081,0.0107070151053078,-0.009139049977599643
1772733715962779600,0.435779541015625,0.13029635895192623,0.002611999996146187,-0.007673571401764639
1772733715972795000,0.445794921875,0.08509820383191108,0.004762487994343974,-0.01167275600656867
1772733715982809900,0.455809814453125,0.024337737920880315,0.011121419433853589,-0.012646898268349468
1772733715992824800,0.465824951171875,-0.003201426389813423,0.012984361478232313,-0.0035819364402675997
1772733716002839800,0.47583984375,-0.0021539631634950635,0.012698532557464203,-0.0034420028131920844
1772733716012854800,0.485854736328125,0.010717793369293212,0.03177920161680085,-0.0035884529460221528
1772733716022868700,0.49586865234375,0.04214811989963054,0.02739008382936008,0.007418021171540021
1772733716032883700,0.5058837890625,0.0309305603146553,0.019539637473749462,0.010506082280795088
1772733716042898700,0.515898681640625,0.11068740311861038,0.006106947706127539,0.010919727415870875
1772733716052913700,0.52591357421875,0.15931728625297545,-0.004387562867882661,0.024507203603116794
1772733716062928600,0.5359287109375,0.12579437135756016,0.000844581614958588,0.012855599982431158
1772733716072943600,0.545943603515625,0.027476620468497276,0.03052891157804988,-0.013449350924766621
1772733716082958600,0.55595849609375,0.0014379238486289978,0.01673067643366521,-0.015086838766373694
1772733716092973800,0.565973876953125,-0.006343231546878814,0.01584491799152456,-0.01810455631946679
1772733716102988800,0.57598876953125,0.04663140279352665,-0.00316667473684065,-0.004266649035108276
1772733716113003800,0.586003662109375,0.07536474532485007,0.0070956893154187125,0.021310786748561076
1772733716123018800,0.596018798828125,0.09511807806491851,0.014491361657832748,0.02282708676275797
1772733716133033700,0.60603369140625,0.07267243750095367,0.02795324783718679,0.0066481145112775265
1772733716143048700,0.616048583984375,0.030326164680719372,0.03102673928168369,-0.006419616684759967
1772733716153063700,0.626063720703125,0.022246903121471404,0.008368058755237143,-0.013809215479413979
1772733716163079000,0.636078857421875,0.05292319641411304,0.008518178132898173,-0.0046953775748843326
1772733716173094000,0.646093994140625,0.09721534260511398,-0.006775222906109411,-0.0025019089514855294
1772733716183107600,0.656107666015625,0.10125205077528952,-0.01116391828515334,0.020741951051773504
1772733716193122600,0.66612255859375,0.10274375063776969,0.0161749719297979,0.014961120894318445
1772733716203137500,0.676137451171875,0.060090019303560255,0.017558272664493415,0.01135628763565328
1772733716213152800,0.68615283203125,0.033898177948594094,0.011497011280595324,0.010133207547524944
1772733716223167700,0.696167724609375,0.005913023436069489,0.029066606773412784,-0.00409209618580062
1772733716233182700,0.7061826171875,0.0033709377378225323,0.028948017328465355,-0.0018923256857786327
1772733716243197700,0.71619775390625,0.033601240828633305,0.017848775477090385,0.0059259148836834355
1772733716253212700,0.726212646484375,0.04198562281429767,0.020620512062613852,0.02317434756415896
1772733716263227600,0.7362275390625,0.07296528296768665,0.02822838183400454,0.015759742192411795
1772733716273242600,0.74624267578125,0.07835515931248664,0.013270368495513685,0.01003341413459275
1772733716283257600,0.756257568359375,0.07491407894790172,0.0065380691323895,0.00005382167962379753
1772733716293272800,0.76627294921875,0.08957505698502063,-0.007989076224877498,-0.005325935129960999
1772733716303287800,0.776287841796875,0.09151450061500072,-0.016697959190863185,-0.014947201966820284
1772733716313302800,0.786302734375,0.05289981553852558,0.00931678116468247,0.004105247928318567
1772733716323317800,0.79631787109375,0.05753098247051239,0.026611555471224707,0.005981152202258817
1772733716333332700,0.806332763671875,0.04345803345441818,0.013952580889302771,0.011008186584035864
1772733716343347000,0.816346923828125,0.015620762979984283,0.03543157751135295,0.00704367143381387
1772733716353362000,0.82636181640625,-0.00023965397477149962,0.025040326382417696,0.000988700510095805
1772733716363376600,0.836376708984375,0.022809797701239583,0.021477421152894385,-0.012930802376801147
1772733716373391600,0.8463916015625,0.04166881195008754,0.006097006267425604,-0.011653352619777433
1772733716383406600,0.856406494140625,0.07324643799662589,-0.006159095735184382,-0.004778991604573093
1772733716393421600,0.866421630859375,0.09584288520812988,-0.003025396252761129,-0.0010796027970965951
1772733716403436500,0.8764365234375,0.11304828703105449,0.004217635961342603,-0.007200930655025877
1772733716413451800,0.88645166015625,0.08760404917299747,0.008649316532164811,0.007384114335360937
1772733716423466800,0.896466796875,0.05512742846012115,-0.0018533864814555272,-0.005375879785488359
1772733716433481700,0.906481689453125,0.021305238357186316,0.016456980908685363,-0.0037060788431670516
1772733716443496700,0.91649658203125,0.016963994282484053,0.03299743656645296,-0.0028167013885453344
1772733716453511700,0.92651171875,0.02788870840072632,0.017069740228878798,-0.002232448926917277
1772733716463526700,0.936526611328125,0.048690673410892484,0.02482006894457154,-0.007558890946954488
1772733716473541600,0.946541748046875,0.09283376652002334,0.0241712473637308,0.0038118270728504282
1772733716483556900,0.956556884765625,0.08669628667831421,-0.004544438496604562,0.005616515574371442
1772733716493570800,0.96657080078125,0.09956044442653655,0.0149953291245969,0.017775666858395562
1772733716503585800,0.976585693359375,0.05810439844429493,0.009440519425494131,0.006394386345380917
1772733716513600800,0.986600830078125,0.06348550696074962,0.033164315282669846,0.0010468650046968832
1772733716523615700,0.99661572265625,0.04432838654816151,0.024392176088434643,-0.0010631220197537914
1772733716533630700,1.006630615234375,0.034301498052477834,0.01987620106791146,-0.021714737040107138
1772733716543645700,1.016645751953125,0.026073767933249472,0.026351182935410177,0.001829005525447428
1772733716553660700,1.02666064453125,0.019794249272346496,0.01097298512320267,-0.00004482095583807677
1772733716563675600,1.036675537109375,0.06319499958157539,0.003497669390030205,0.003077457516849972
1772733716573690600,1.046690673828125,0.09312485842108725,-0.004302544615685474,0.013453182283090427
1772733716583705600,1.05670556640625,0.11063187353909015,0.001238394104980398,0.011846751733450218
1772733716593720600,1.066720458984375,0.08922902002632617,0.005065642509248573,-0.0010199632980395109
1772733716603735800,1.07673583984375,0.06064239248931408,0.012743842137069441,-0.00656311224210076
1772733716613750800,1.086750732421875,0.03669569971263408,0.021266838008980264,0.000030404271418228745
1772733716623765800,1.096765869140625,0.013949030375480651,0.027934534003562293,0.0011745921707479283
1772733716633780700,1.10678076171875,0.015747019708156586,0.01247132250573486,0.00595138268508017
1772733716643794700,1.116794677734375,0.03774783911406994,0.014083401911449618,0.00981625968599692
1772733716653809700,1.1268095703125,0.05870002624988556,0.014014597291825338,0.008500249750562943
1772733716663825000,1.136824951171875,0.08444003218412399,0.012667719577380922,0.005402470964891836
1772733716673839900,1.14683984375,0.08204699956774711,0.011573969523923006,-0.003799730209680274
1772733716683854600,1.1568544921875,0.06423954019844531,0.004396712005429435,0.0073345852383645245
1772733716693869600,1.16686962890625,0.058852586463093756,0.015657884686556645,-0.001812775909854099
1772733716703884500,1.176884521484375,0.04284077833890915,0.021889061560551634,-0.003108469143044203
1772733716713899500,1.1868994140625,0.07605974185168743,0.024531762655638157,0.005709591552149504
1772733716723914500,1.19691455078125,0.07905132488310336,0.01625061956545105,0.010577841475908643
1772733716733929700,1.2069296875,0.06423603306710719,0.012991994512127712,0.016058410045155323
1772733716743944700,1.21694482421875,0.053311318948864934,0.014167107272683641,0.01246193362288177
1772733716753959700,1.226959716796875,0.03610357903838157,0.022509499580413102,-0.010975307227740995
1772733716763974700,1.236974609375,0.06528291177153588,0.011592023487132973,-0.02066571204436477
1772733716773989600,1.24698974609375,0.06543254937529563,0.0072306271069683134,-0.007452686059544794
1772733716784004600,1.257004638671875,0.05286299065947532,0.004160800340725109,-0.004277152162813581
1772733716794018800,1.267018798828125,0.060195233243703836,0.007615210544341243,0.00018870923882350325
1772733716804033800,1.27703369140625,0.05510755471587181,0.01704456697171554,0.003927388877072372
1772733716814048800,1.287048828125,0.06662965020537376,0.019042060931865126,0.01039087210302241
1772733716824063700,1.297063720703125,0.05450725073516369,0.03008324103662744,0.004908111576689407
1772733716834078700,1.30707861328125,0.048372108981013295,0.02568639431716874,0.006685286450199782
1772733716844093700,1.31709375,0.04044190050363541,0.02139377515716478,-0.01136845299748238
1772733716854108700,1.327108642578125,0.0703705902993679,0.01704045705217868,0.0003965113371843472
1772733716864123600,1.33712353515625,0.06752630678415299,0.003747730594384484,0.005915430022287182
1772733716874138600,1.347138671875,0.06423311045765877,0.014612695615715347,-0.001496316672093235
1772733716884153600,1.357153564453125,0.04911737439036369,0.006589575557340867,-0.011869415656407364
1772733716894168600,1.36716845703125,0.03849193547964096,0.021550481822527945,-0.0022112554418388755
1772733716904183600,1.37718359375,0.03220657159984112,0.018719496180303392,-0.0086919409643393
1772733716914198500,1.387198486328125,0.04717208554148674,0.006121985445055179,-0.003243507399293594
1772733716924213800,1.3972138671875,0.05106500132679939,0.016982813147385603,-0.0003839669494424015
1772733716934228700,1.407228759765625,0.07126724687814712,0.008515255523449741,0.008847076727123931
1772733716944242700,1.41724267578125,0.0636345600426197,0.01678213034297805,0.004872921532299369
1772733716954257700,1.427257568359375,0.09864683671295642,0.010757778319809586,0.0011947855754056945
1772733716964272600,1.437272705078125,0.06332768605053425,0.00890309949698858,-0.0019094457839382811
1772733716974288000,1.447287841796875,0.0565893177062273,0.007017961603822186,-0.007903407235420308
1772733716984302800,1.457302734375,0.05134732539951801,0.008363722790125757,-0.001027863476704806
1772733716994317800,1.46731787109375,0.0315928236156702,0.0053151260415790595,0.01747147344716359
1772733717004332800,1.477332763671875,0.04461071062088012,0.01619637547743041,0.0026523548394208774
1772733717014347800,1.48734765625,0.014985972207784653,0.01857528367033228,0.004730544786388054
1772733717024362800,1.49736279296875,0.0452174443423748,0.01755693237406667,0.005204719903087243
1772733717034377500,1.50737744140625,0.06796645176708697,0.021270550636295227,0.006111760878562927
1772733717044392700,1.517392822265625,0.06393032811880112,0.000049291634978726507,-0.005506675691460259
1772733717054407700,1.52740771484375,0.05899696336984634,0.01706879494738532,0.0012764085774077101
1772733717064422700,1.537422607421875,0.053014966350793835,0.024955636923783456,0.0023683411331148815
1772733717074437600,1.547437744140625,0.08189736196398735,0.0015000886649126186,0.005946916572516784
1772733717084451600,1.55745166015625,0.07935293817818165,0.009468549076735507,0.00658775349301286
1772733717094466600,1.567466552734375,0.09251870922148227,0.020282948388031217,0.009577436828287317
1772733717104481800,1.577481689453125,0.06842354788482188,0.018947998573398215,0.006972094901790842
1772733717114496800,1.587496826171875,0.03220832516551018,0.026040509551041757,-0.011265472113620488
1772733717124511700,1.59751171875,0.012307692909240721,0.019552097379812037,0.011037508576642721
1772733717134526700,1.607526611328125,0.0105178868830204,0.021350107262085655,0.003474014519806951
1772733717144541700,1.617541748046875,0.02878127332627773,0.023395810578402596,-0.00204919674792327
1772733717154556700,1.627556640625,0.05901566807031631,0.013031088980077765,0.009614567668014206
1772733717164571600,1.637571533203125,0.10361176564395427,0.007392843347799498,0.0053759848167654126
1772733717174587000,1.6475869140625,0.1196224047243595,-0.001539521059580147,-0.005492382304626516
1772733717184601900,1.657601806640625,0.09911737683415413,0.010091500997380353,0.006472858409071341
1772733717194616800,1.667616943359375,0.06664192516505718,0.011674701368482783,0.006104130127956159
1772733717204631800,1.6776318359375,0.023691256710886954,0.016067611698340624,-0.009308323863591067
1772733717214646500,1.687646484375,0.014711246919631956,0.021217427642992698,0.003510506038716994
1772733717224661500,1.69766162109375,0.03221943108141422,0.021067632492317353,-0.0046102428749669345
1772733717234675700,1.70767578125,0.05317103369534015,0.004207473043643404,0.006001952961692586
1772733717244690700,1.717690673828125,0.06813654763698578,0.010113110040989704,0.0034271568705094976
1772733717254705700,1.72770556640625,0.07322597973048686,0.015082445719046517,-0.0009194940316723659
1772733717264720600,1.737720703125,0.05616963098943233,0.021502576143748592,0.0001649721702095121
1772733717274735600,1.747735595703125,0.04854045128524303,0.009763741764181759,-0.0014859779411694034
1772733717284750600,1.75775048828125,0.03747019121646881,0.01982296847675461,0.0005693517200183123
1772733717294765800,1.767765869140625,0.0617132365912199,-0.0018760755205876193,0.008503304790752009
1772733717304780800,1.77778076171875,0.08610533504784107,0.0008619346085586585,0.010904794708220287
1772733717314795800,1.787795654296875,0.08490764969587325,0.008150157671258785,-0.010903004609933122
1772733717324810800,1.797810791015625,0.08670096285343169,0.005474266692623496,0.018380847943620757
1772733717334825700,1.80782568359375,0.07607318585515022,0.014654758358886464,0.010182138422899879
1772733717344840700,1.8178408203125,0.04404840056300163,0.006341448298457544,-0.009185994391865097
1772733717354855700,1.827855712890625,0.011576456025242805,0.013536419570154975,-0.015701175839011556
1772733717364871000,1.837870849609375,0.0323772519916296,0.0007155050253262742,-0.0003710481023648754
1772733717374884600,1.847884521484375,0.04165653699040413,0.016465595756692344,0.00231298965010792
1772733717384899600,1.857899658203125,0.07308160282373428,0.013069820405135397,-0.0010856352456612513
1772733717394914600,1.86791455078125,0.078169865873456,0.018569849443389103,0.013261093777092173
1772733717404929500,1.877929443359375,0.06395429351627827,0.019251554947101977,0.020418856577249244
1772733717414944800,1.88794482421875,0.06200900466740131,0.017376385892101096,0.0003478316235588863
1772733717424959700,1.897959716796875,0.058715223819017406,0.015660578967141917,-0.006183310011122376
1772733717434974700,1.907974609375,0.05063537773787975,0.017536117914901114,-0.0013958702386124059
1772733717444989700,1.91798974609375,0.03552256428003311,0.013749948156403843,0.0003087782548042014
1772733717455004700,1.928004638671875,0.050637715825438495,0.010727353498793672,-0.004930885097500868
1772733717465019600,1.93801953125,0.05602642312645912,0.017483282615966163,0.010352549386629835
1772733717475034600,1.94803466796875,0.05797288101911544,0.013558462438604328,0.004129395988886245
1772733717485049600,1.958049560546875,0.06351122592389583,0.02349446463030763,0.0017062924612313507
1772733717495064800,1.96806494140625,0.062465516263246534,-0.00034471036799950524,0.0066767012849450105
1772733717505079800,1.978079833984375,0.05303951627016067,0.011011367205099667,-0.007485264021740295
1772733717515093800,1.98809375,0.05648118115663528,0.008108437421382404,-0.00587629445514176
1772733717525108500,1.9981083984375,0.07144318796694278,0.0002647404669667594,-0.008704407720267772
1772733717535123700,2.008123779296875,0.07174012508690357,0.013020583569083827,-0.009831790615268982
1772733717545138700,2.018138671875,0.04959142164289951,0.013977715330559293,0.009873784859781153
1772733717555153400,2.0281533203125,0.028939678758382794,0.018544146463263314,0.010907868014718405
1772733717565168400,2.03816845703125,0.031633155626058576,0.03381455935232807,0.005902278279769234
1772733717575183400,2.048183349609375,0.06215981131494045,0.0021443710679537615,0.002863773666974157
1772733717585198300,2.0581982421875,0.04824409868717194,0.014230422866437583,0.008044961997424252
1772733717595213300,2.06821337890625,0.058869537597894664,0.011428649618965572,-0.005271433030324988
1772733717605228500,2.078228515625,0.07607727750837802,0.007564770415180828,0.001808401128835976
1772733717615243500,2.088243408203125,0.056923664227128024,0.009788063354685437,0.0035672457612119612
1772733717625258500,2.098258544921875,0.05467734660506248,0.005152608406648505,0.015434428361337632
1772733717635273500,2.1082734375,0.06425181515812874,0.018965778541972393,-0.0071529587608762085
1772733717645288400,2.118288330078125,0.054524201869964595,0.021648074145219288,0.0075903683640295636
1772733717655303400,2.128303466796875,0.03926175080835819,0.019457311218848916,0.004243400590261444
1772733717665317600,2.138317626953125,0.04824176059961319,0.016695995562640016,0.014189912759535945
1772733717675332600,2.14833251953125,0.047644379228353496,0.0120497064100462,0.011066136449505574
1772733717685347600,2.15834765625,0.06320902810692787,0.011732598718313966,0.008878924036957322
1772733717695362300,2.1683623046875,0.06620236470401286,0.01345028250652831,-0.001394034474552609
1772733717705377300,2.178377197265625,0.06650105538964271,0.008790697764232754,0.00989638028407935
1772733717715392300,2.188392333984375,0.05871814642846584,-0.0025450699564884415,0.003411995833995752
1772733717725407500,2.198407470703125,0.04105857109725475,0.014869241359783335,0.003040555005986243
1772733717735422500,2.20842236328125,0.0648503655731678,0.020060339162894524,0.02305654813707806
1772733717745437400,2.2184375,0.051233928152918815,0.0017134368713595904,-0.002482391400262713
1772733717755452400,2.228452392578125,0.03253098124861717,0.01930194941048976,0.00676685465327464
1772733717765467400,2.23846728515625,0.06365735639631748,0.027651125368743666,0.0009926460328511892
1772733717775482400,2.248482421875,0.06380699400007725,0.004047375694662333,-0.003367868997901678
1772733717785497300,2.258497314453125,0.08565174606144428,-0.00509523849649122,-0.012529866026248782
1772733717795512300,2.26851220703125,0.07457622529566288,0.015087987260555382,0.002254359364625998
1772733717805526500,2.278526611328125,0.06035597676336765,0.00018006470806431024,0.009377891101618296
1772733717815541500,2.28854150390625,0.06888064400255679,0.010297645428194663,-0.0024607823566533626
1772733717825556500,2.298556396484375,0.048527591803669924,0.0228051078263903,0.024765187819022684
1772733717835571500,2.308571533203125,0.025183541095256803,0.006745862097595818,0.005072211530641652
1772733717845586400,2.31858642578125,0.029077041402459144,0.02260795955278445,0.001198087210766971
1772733717855601700,2.3286015625,0.04254734835028648,0.02073852611882612,0.0006364210402825846
1772733717865616400,2.338616455078125,0.058413026002049444,0.009943495944992173,-0.0011444116616155951
1772733717875631400,2.34863134765625,0.0608113193154335,0.02151068181839073,-0.007560735844168812
1772733717885646300,2.358646240234375,0.07398410462141036,0.011312051201704889,-0.0004613704340532422
1772733717895661300,2.368661376953125,0.06231412509381771,0.0032518528192420487,-0.001514802176854573
1772733717905676300,2.37867626953125,0.12336568290591239,-0.008952112570754251,-0.0006861191006377339
1772733717915691300,2.388691162109375,0.07757248450219631,0.021018007497198413,0.005521357237361371
1772733717925706500,2.39870654296875,0.08160802362859249,0.007581356223800685,0.0059564881184604014
1772733717935721500,2.408721435546875,0.019655717584490775,0.02446527557397494,0.004369990678573958
1772733717945735400,2.4187353515625,0.009481529572606087,0.011203731989022343,-0.005547099033393897
1772733717955750400,2.42875048828125,0.045697921335697174,0.014612752697931136,0.006843755814386531
1772733717965765400,2.438765380859375,0.043458617976307866,0.003962492156494408,0.0057521429190877825
1772733717975780600,2.448780517578125,0.044509588333964345,0.018900401138584128,0.0031471160864224657
1772733717985795600,2.458795654296875,0.05992635317444801,0.0053183135125087575,0.004245240920898504
1772733717995810600,2.468810546875,0.08791150768697262,0.005164798884652554,0.009566842369036748
1772733718005825500,2.478825439453125,0.060378773117065423,0.016895105181180405,0.0011443340298021212
1772733718015840500,2.488840576171875,0.0753419489711523,0.004796890304156113,-0.0033013431003317234
1772733718025855500,2.49885546875,0.054990065816044806,-0.0017535633857711217,-0.0005037711039418355
1772733718035870500,2.508870361328125,0.06306932737529278,0.0008306900869240052,-0.007904571712622419
1772733718045885400,2.518885498046875,0.048852585974335665,0.01345855029466329,-0.000050127318617887793
1772733718055900400,2.528900390625,0.06112228496074676,0.02441120729917893,0.007262282620556652
1772733718065915400,2.538915283203125,0.06172025085389614,0.014256575654423795,0.008330208679591306
1772733718075930400,2.548930419921875,0.05378945785462856,0.01363332233967958,0.010601966703590005
1772733718085944300,2.5589443359375,0.04436228881776333,0.030691171201365067,0.017124281144421546
1772733718095959600,2.56895947265625,0.038677813440561294,0.02634192876658635,0.0031374303760472685
1772733718105974500,2.578974609375,0.06322013402283191,-0.004989876142586581,0.0007827661418356001
1772733718115989500,2.588989501953125,0.07608896794617176,0.004446684060420375,0.004669690577778965
1772733718126004500,2.59900439453125,0.07848200056254863,0.009005009518482257,-0.007646870624506846
1772733718136019500,2.60901953125,0.07862871555685996,0.008752137585822493,0.010507954577472991
1772733718146034400,2.619034423828125,0.05049333891868591,0.020486001246038357,0.016818320467788726
1772733718156049400,2.62904931640625,0.04525485374331474,0.01324452851807,-0.00046728871818631885
1772733718166064400,2.639064453125,0.04301028968691826,0.009394278264127205,0.014140301464148797
1772733718176079600,2.64907958984375,0.06934709247052669,0.006531550343346316,-0.0033760203383164477
1772733718186094600,2.659094482421875,0.05752747533917427,0.00968027386496542,-0.006311644531949423
1772733718196109600,2.669109619140625,0.028500118297338485,0.009737630075390916,-0.0011957217237446457
1772733718206124500,2.67912451171875,0.06950199077129364,0.0030485214000218544,-0.006747670462192035
1772733718216139500,2.689139404296875,0.06860416514873505,0.011223085143463686,-0.012873181304894387
1772733718226153500,2.699153564453125,0.05812836384177208,0.012406536474102175,0.003877836947189644
1772733718236168400,2.70916845703125,0.056181321427226066,0.005892069696297403,-0.007041447510686702
1772733718246183400,2.719183349609375,0.06575695902407169,0.018443453434610273,0.008826915288507006
1772733718256198400,2.729198486328125,0.059769701308012006,0.011397012371686287,0.006256726873782463
1772733718266213400,2.73921337890625,0.054529462566971776,0.008454558861756232,-0.0040849540589610114
1772733718276228400,2.749228271484375,0.0621574732273817,0.011185082087479531,-0.00038824583233799785
1772733718286243300,2.759243408203125,0.07382628371119498,0.015700171192013657,0.011221418342762626
1772733718296258600,2.769258544921875,0.034171149671077726,0.013055166258697863,0.007812769809900783
1772733718306273500,2.7792734375,0.020105799439549446,0.013323559987475163,-0.00047157216765917833
1772733718316288500,2.78928857421875,0.038814007040858266,0.01497219712747028,-0.00012471779163461178
1772733718326303500,2.799303466796875,0.056475335937738416,0.012923139660153538,-0.0015472933740820734
1772733718336318500,2.809318359375,0.06470774223208427,0.011063711596978828,0.0005102236776147038
1772733718346333400,2.81933349609375,0.0760825382053852,0.009427653094055131,0.004734056484303437
1772733718356348400,2.829348388671875,0.08206862687766552,0.009496229384816252,-0.009201954579399898
1772733718366363600,2.83936376953125,0.0548334139496088,0.008907876136805862,0.01442030114904046
1772733718376377300,2.84937744140625,0.0816162069350481,0.010410901110898702,0.005758280398929491
1772733718386392300,2.859392333984375,0.08191139048933982,-0.00044759763702750203,-0.0016877430243883282
1772733718396407300,2.8694072265625,0.0618570289760828,0.006085790753667242,-0.005084153130184859
1772733718406422300,2.87942236328125,0.02818739908635616,0.013628879060002508,-0.016720399351534434
1772733718416437500,2.8894375,0.008438157999515533,0.014802219988580327,-0.007669813108677044
1772733718426452500,2.899452392578125,0.013532266268134117,0.014144176204956602,-0.0060561719335382805
1772733718436467500,2.909467529296875,0.051397594282031056,0.005296010349155404,-0.0015766153666889294
1772733718446482400,2.919482421875,0.09868658420145511,0.0043893963486538266,0.0186733874496771
1772733718456497400,2.929497314453125,0.10122925442159175,-0.004780615022790152,0.0011628925997996702
1772733718466512400,2.939512451171875,0.10810849254131316,-0.0012417185732279904,-0.003599125037086196
1772733718476527400,2.94952734375,0.051987961390614505,0.01743801870213356,-0.007384525327314622
1772733718486542300,2.959542236328125,0.004399696263670921,0.027835991832800208,-0.018255152904451823
1772733718496557600,2.9695576171875,0.020710195073485375,0.014093683560157659,-0.00664732905998826
1772733718506572500,2.979572509765625,0.05153846405744552,0.009703748355386779,-0.005948108449182473
1772733718516586500,2.98958642578125,0.06650514704287051,0.01625126345284516,0.003177561457036063
1772733718526601500,2.9996015625,0.07997486946880816,0.01176098227929324,0.013996810473385267
1772733718536616400,3.009616455078125,0.06905249343812465,0.011176270876650232,0.012142104251100681
1772733718546631400,3.01963134765625,0.06112170043885708,0.024536893205193335,0.015923303290246986
1772733718556646000,3.02964599609375,0.06650806965231895,0.005018709511426277,-0.012518961039744318
1772733718566660900,3.039660888671875,0.07159341009259224,0.009829363479453604,-0.009229166813311167
1772733718576675800,3.04967578125,0.05872223808169365,0.009820575101510621,0.0019183597427560016
1772733718586690800,3.05969091796875,0.06650222443342209,0.008577603002823888,0.006250520895281806
1772733718596705800,3.069705810546875,0.026399346625804898,0.02168882399742724,0.002687161291320808
1772733718606721000,3.079720947265625,0.060817749056220054,0.0150926291863434,0.013177767441770993
1772733718616735700,3.08973583984375,0.07129179679751396,0.00011886800616048276,0.0009840837004827334
1772733718626750700,3.099750732421875,0.06784896286725997,0.005417266675224528,-0.014371457038633524
1772733718636765700,3.109765625,0.06126257021427154,-0.0016525141640915534,0.008540494995983318
1772733718646780700,3.11978076171875,0.06215864227116107,0.007241431628772988,-0.005906251201988197
1772733718656795000,3.129794921875,0.043751463443040844,0.016403474322892724,0.005761394804622978
1772733718666809900,3.139809814453125,0.05437514878809452,0.02299337867379654,0.005470965057262219
1772733718676824800,3.149824951171875,0.06799041716456412,0.010650730898894834,0.01163907293267548
1772733718686839800,3.15983984375,0.06978431484401226,0.01983987394578289,0.017141433208622037
1772733718696854800,3.169854736328125,0.046888592424988745,0.005432856970001012,0.012648254541796631
1772733718706869800,3.179869873046875,0.06604162118434906,0.011690846502396744,-0.003975863094720989
1772733718716884700,3.189884765625,0.05287292753159999,-0.005027838099375367,0.000407169728516601
1772733718726900000,3.19989990234375,0.03790916715562343,0.01432858144470956,-0.007916819272842258
1772733718736915000,3.2099150390625,0.03940554319322109,0.021866936493711544,0.007693805905617773
1772733718746930000,3.219929931640625,0.06005494799017906,0.017051594934123566,0.0022223841906292363
1772733718756945000,3.22994482421875,0.07157528991401195,0.00025813491295557467,0.006726810337253846
1772733718766959900,3.2399599609375,0.0992535704344511,0.012825136345508508,0.01935384856108576
1772733718776974800,3.249974853515625,0.06932020446360111,0.0009893626637989654,-0.004333809686917812
1772733718786989800,3.25998974609375,0.033252865782380105,0.021209792325808666,-0.006713106038887053
1772733718797003800,3.270003662109375,0.010507365489006042,0.015348718272685073,-0.016142014941689556
1772733718807018800,3.280018798828125,0.023080431336164473,0.012101521078962832,-0.003986452987394295
1772733718817033700,3.29003369140625,0.057950084665417664,-0.005431404798431322,0.0031285209838068113
1772733718827048700,3.300048583984375,0.06378828929960727,-0.0014521076376084237,-0.0006970880192238837
1772733718837063700,3.310063720703125,0.09805296247303485,-0.00631240258377511,0.008972493205079809
1772733718847079000,3.320078857421875,0.09939385568797587,-0.0023963388183154163,0.013168227861868217
1772733718857094000,3.330093994140625,0.08247662315666675,0.012564951039361767,0.010940916334372013
1772733718867108900,3.34010888671875,0.05403554157018661,0.013404520835774019,0.01057135236961767
1772733718877123800,3.350123779296875,0.0386164386421442,0.0186378457788378,-0.011359922631154767
1772733718887138800,3.360138916015625,0.006442600268125534,0.02801023415485397,0.0002800362175097689
1772733718897153800,3.37015380859375,0.0022550854504108427,0.018648746198765002,-0.007205857991892844
1772733718907168800,3.380168701171875,0.050742345243692394,0.01435956110486295,0.017484323795582166
1772733718917184000,3.39018408203125,0.07274141108393668,0.0009400892951292916,-0.004829082390572875
1772733718927199000,3.400198974609375,0.082914430052042,0.0024285879869479685,-0.004411217738105915
1772733718937212700,3.410212646484375,0.09428045819699764,-0.002273365459195338,0.000228379095508717
1772733718947227600,3.4202275390625,0.059853872460126877,0.0035260735006071627,0.007686983439186588
1772733718957242600,3.43024267578125,0.044133156237006185,0.01801133421121631,-0.0018819138896185904
1772733718967257900,3.4402578125,0.007318214058876037,0.020446123610087668,-0.010764290258986875
1772733718977272800,3.45027294921875,0.02811959454715252,0.0324466867989162,0.0016448263312689958
1772733718987287800,3.460287841796875,0.04323708418011665,0.014955408106162213,0.006763119193073362
1772733718997302800,3.470302734375,0.06299275500774383,0.010288188046682625,-0.014123122000484727
1772733719007317800,3.48031787109375,0.10025368738770485,-0.0039068438459653404,0.0015930185122182592
1772733719017332700,3.490332763671875,0.09336568143963814,-0.004387097077001818,0.005969571362319402
1772733719027347700,3.50034765625,0.06268295840620994,-0.003581393017573282,-0.0013185215529287232
1772733719037362700,3.51036279296875,0.03828443020880222,-0.0031022083656163883,0.0031133690804475917
1772733719047378000,3.5203779296875,0.03887830444872379,0.014639761719154194,-0.0032620111703639846
1772733719057393000,3.530392822265625,0.02570961079597473,0.019604768281965515,-0.005618492902326397
1772733719067408000,3.540407958984375,0.024066519764065743,0.0303059347434435,-0.010455658134655096
1772733719077421800,3.550421875,0.05863572884202003,0.013882262449315749,-0.0046788648315006865
1772733719087436800,3.560436767578125,0.06971008056402206,0.001861875748587772,-0.0033384830732131375
1772733719097452000,3.5704521484375,0.08766483944952487,-0.0026365727483993392,-0.0006234839268960058
1772733719107466800,3.580466796875,0.0688064097225666,-0.003231401402968913,0.0012828657176578416
1772733719117481700,3.590481689453125,0.06236790110766887,-0.00033317747712135315,-0.0025711154299089684
1772733719127496700,3.60049658203125,0.052337505480647084,0.002326059194235131,-0.005289731305418536
1772733719137511700,3.61051171875,0.03258241917490959,0.018161720733647232,-0.0033970174605725332
1772733719147526700,3.620526611328125,0.05068798470795154,0.02229889817018993,-0.007059101898386142
1772733719157541600,3.630541748046875,0.029440029495954513,0.02470564878466539,-0.00866452323445119
1772733719167556900,3.640556884765625,0.06086451080739498,0.006308941118209623,0.011259457931364885
1772733719177571800,3.65057177734375,0.06819558434784412,0.010750143002625554,0.007399768562219106
1772733719187586800,3.6605869140625,0.0714858580648899,-0.006948659227276221,0.003343332778266631
1772733719197601800,3.670601806640625,0.0458972433000803,0.007185586955421604,-0.002862065767077729
1772733719207616800,3.68061669921875,0.024201544320583343,0.00955727082309313,-0.0018796214678324758
1772733719217631000,3.690630859375,0.03587970715463161,0.014948645005235447,-0.008525420724437571
1772733719227646000,3.70064599609375,0.06970481986701488,0.022281755239143965,-0.005877404133416712
1772733719237661000,3.710660888671875,0.07509644977748393,0.009649917542608454,-0.002576257395907305
1772733719247676000,3.720676025390625,0.08213175524175166,0.0010535550403874367,0.009862345583736895
1772733719257691000,3.73069091796875,0.09110825790166854,-0.0038907375279581173,0.002794393658614717
1772733719267705900,3.740705810546875,0.06342062503099441,0.009277074775379151,-0.002528687360556796
1772733719277720800,3.750720947265625,0.06236907015144825,0.016535361640830522,0.004762469728034921
1772733719287735800,3.76073583984375,0.04665303010344505,0.006753273652493954,-0.003103550939331762
1772733719297750800,3.770750732421875,0.04470715673267841,0.025593774997116996,0.00610400226379279
1772733719307765800,3.780765869140625,0.04411035988330841,0.012465742148319258,-0.002870892960927449
1772733719317780700,3.79078076171875,0.04052198000252247,0.01719048738158308,-0.008726094395690597
1772733719327795700,3.800795654296875,0.06656301470994949,0.011112806869135237,0.0036089751442428676
1772733719337810700,3.810810791015625,0.06686579704880714,-0.01016086273943074,0.001430142400972545
1772733719347825700,3.82082568359375,0.05729015945196152,-0.008214021254284307,0.005125234059244394
1772733719357840000,3.83083984375,0.05788929438889026,0.0137290263826726,0.00709682182657998
1772733719367854800,3.840854736328125,0.06417348922491073,0.015280489041795953,-0.0064951022069202734
1772733719377869800,3.850869873046875,0.05264847112596035,0.005812453705002553,-0.005959986116643994
1772733719387884800,3.860884765625,0.06266951440274715,0.005705298969522118,-0.0002644459227332845
1772733719397899800,3.870899658203125,0.06161912856698036,0.005849187252507545,0.006924415268586017
1772733719407914800,3.880914794921875,0.056680503121018404,0.034345373726822434,-0.006235017365473322
1772733719417930000,3.890929931640625,0.020023381853103636,0.02111031400670763,0.0005905178056331351
1772733719427945000,3.900945068359375,0.03858428993821144,0.011491467455797828,-0.006502714691217988
1772733719437960000,3.9109599609375,0.07255728668868541,0.008064274052670226,0.0001998014549957588
1772733719447975000,3.920974853515625,0.0985959833085537,0.00370922521490138,-0.0019038106275955215
1772733719457990000,3.930989990234375,0.10173778846561908,0.0016689332926413042,-0.000013206541445106268
1772733719468004600,3.941004638671875,0.08078560132980346,-0.005637695359718054,0.0052350922084646295
1772733719478019800,3.951019775390625,0.042025954824686046,-0.003765805107192136,-0.012981600982276723
1772733719488034800,3.961034912109375,0.03723638246059417,0.020254003138048572,-0.00457804850526154
1772733719498048800,3.971048828125,0.04546820423305034,0.024234327778755685,-0.007597706853691488
1772733719508063700,3.981063720703125,0.05833996076583862,0.0063495927890064195,0.000054182439227588474
1772733719518078700,3.99107861328125,0.06732113960087299,0.0051523503950331355,-0.011795596934948116
1772733719528093700,4.00109375,0.06298340265750885,0.006048002326814458,-0.02045948084858246
1772733719538109000,4.01110888671875,0.06358312211632729,-0.003997061146376654,-0.0040551525757415215
1772733719548124400,4.02112451171875,0.05879530331790447,-0.004357948614330962,0.0035963942238828165
1772733719558139400,4.031139404296875,0.060141457229852674,0.01158066184290219,-0.00004212210867553949
1772733719568154400,4.041154296875,0.0742050538957119,0.007630234583537094,0.0016746369476430118
1772733719578169300,4.05116943359375,0.07031155358850956,0.008225378331937826,0.0016369398523354902
1772733719588184000,4.06118408203125,0.043076925182342525,0.019429735942045227,0.006121505954442545
1772733719598199000,4.071198974609375,0.05100947174727916,0.01617368872158695,-0.012683357821218669
1772733719608214000,4.081214111328125,0.027971125987172125,0.00913290793118067,0.0026293073239736257
1772733719618229200,4.091229248046875,0.043240006789565084,0.008328665176476352,0.003293904145970009
1772733719628244200,4.101244140625,0.061949383434653275,0.009926597325829789,0.008495692306454293
1772733719638258200,4.111258056640625,0.07107903082966804,-0.005583270891895517,0.005155464800726622
1772733719648273200,4.121273193359375,0.0830494546085596,0.015132079847319981,0.012739028964634053
1772733719658288000,4.1312880859375,0.05327098693847656,0.012296696591190993,0.0008262993228854611
1772733719668303400,4.141303466796875,0.03456687099039554,0.0042022146299248555,-0.013637274712300858
1772733719678318300,4.151318359375,0.04160217645466328,0.0077448967720381914,-0.0011639292128384114
1772733719688333300,4.161333251953125,0.050883215019106864,0.013139864850486628,0.003801232613599859
1772733719698348300,4.171348388671875,0.060763388520479196,0.005974827492749318,-0.007656455870182253
1772733719708363300,4.18136328125,0.08859715186357497,0.0010065284277312456,0.0018312705477699636
1772733719718378200,4.191378173828125,0.09428279628455638,0.0012010189533699304,-0.0021658134314930066
1772733719728393200,4.201393310546875,0.06764379568397999,0.005098409984400496,0.006969925777590833
1772733719738408400,4.211408447265625,0.07302490420043468,-0.010974343679938464,0.008172762228711508
1772733719748423400,4.22142333984375,0.07406652220785617,-0.0022760962723987178,-0.005291767998877913
1772733719758438400,4.2314384765625,0.02527998720705509,-0.005986390066379681,-0.0047381253046449275
1772733719768453000,4.241453125,0.02258651033937931,0.016920502200629562,-0.008221779869054443
1772733719778467000,4.251467041015625,0.024984803652763364,0.02296326209674589,-0.0009810788926435635
1772733719788482300,4.261482421875,0.031276012751460074,0.013597874283674172,-0.0042556070512859145
1772733719798497300,4.271497314453125,0.08126140214800834,0.008681679865228943,0.01372702622183133
1772733719808512300,4.28151220703125,0.09473229361772537,0.003706243239948526,0.006536479963501915
1772733719818527200,4.29152734375,0.09712766432166099,0.004960289288498461,0.0098117479076609
1772733719828542200,4.301542236328125,0.0803653300911188,-0.0014634190494893118,0.010345142398308962
1772733719838557200,4.31155712890625,0.08245441132485866,0.011002131302584893,-0.01635667147252243
1772733719848572200,4.321572265625,0.040999534386396405,0.013110373894521035,-0.013357608387549407
1772733719858587400,4.33158740234375,0.05161971260011196,-0.006049669127515517,-0.013191531105642206
1772733719868602400,4.341602294921875,0.033062311646342275,-0.01168490310208872,-0.01209884506468661
1772733719878617300,4.351617431640625,0.03336275589764118,0.01705700632818043,0.010245892408071085
1772733719888632300,4.36163232421875,0.037107787644863124,0.019306095862644722,0.003319189284276217
1772733719898647300,4.371647216796875,0.04743862752318382,0.0053151169084245335,0.0005378560366341844
1772733719908662300,4.381662353515625,0.07856734075844288,0.0038541546775028106,-0.004381160526559688
1772733719918676200,4.39167626953125,0.07886895405352115,0.010358070378541015,-0.004689966180827469
1772733719928691200,4.401691162109375,0.06884206555783748,-0.0024033028486417606,0.009005587190506047
1772733719938706200,4.4117060546875,0.07362696174681187,-0.011897089114622212,-0.0042743985167238855
1772733719948721200,4.42172119140625,0.06344751303792,0.0013350434294668956,-0.00449889145498164
1772733719958736100,4.431736083984375,0.036360184147953986,0.006100563631113619,-0.0033629873268073425
1772733719968751000,4.441751220703125,0.0442892235815525,0.0076335316523211075,-0.0048460015593329445
1772733719978766000,4.45176611328125,0.04892857381999492,0.022780329578160306,-0.003079763638367876
1772733719988781300,4.46178125,0.023044190979003905,0.009153818288468755,-0.009387946704751812
1772733719998796300,4.47179638671875,0.049533553975820536,-0.003809616849455051,0.001993658035248518
1772733720008811300,4.481811279296875,0.07287877372801303,0.011558226248808205,0.003213870312855579
1772733720018826200,4.491826171875,0.07048515658974647,-0.0032483205717289817,0.0026581635256996377
1772733720028841200,4.50184130859375,0.061655368924140926,0.00038122243650723245,-0.01098185569953639
1772733720038856200,4.511856201171875,0.06883505129516124,0.010588787561608477,-0.0008680789382662623
1772733720048871200,4.52187109375,0.07047814232707023,0.018410215602000242,0.0006426133190514519
1772733720058885400,4.531885498046875,0.048477907443046565,0.015784433675673788,-0.0005185120153473689
1772733720068900400,4.541900390625,0.03530921379029751,0.015322930810879916,-0.0003838345187017694
1772733720078915000,4.5519150390625,0.055959787631034846,0.0007050795294344425,0.0019346943896263837
1772733720088930000,4.561929931640625,0.06493804385662079,0.006825964429369196,0.010618237418378702
1772733720098945000,4.571945068359375,0.04937573306560516,0.0035962389602558686,-0.0007769620221341028
1772733720108960300,4.581960205078125,0.055960372152924535,-0.0015849950359668582,-0.003636662302189506
1772733720118975200,4.591975341796875,0.05132219095826149,0.02382516702255234,-0.008397816855972632
1772733720128990200,4.601990234375,0.052071548020839686,0.010346667635114862,0.005329953717952594
1772733720139005200,4.612005126953125,0.044590836876630784,0.010645906310016289,-0.0006894618351943791
1772733720149020200,4.622020263671875,0.06658756462931632,0.011188918012380599,-0.0027260000309441237
1772733720159035100,4.63203515625,0.06972878526449203,0.0013120050471741706,-0.0020541880168719216
1772733720169050000,4.642050048828125,0.05940145251750946,0.005281187239359133,-0.00008843176870141178
1772733720179065300,4.6520654296875,0.03680442078411579,0.023796726379357275,-0.0017416651687119154
1772733720189080300,4.662080322265625,0.07376257082521916,0.01230346425869502,-0.012070628183777443
1772733720199094300,4.67209423828125,0.0540098226070404,-0.009616220768983476,-0.005931330844317562
1772733720209109200,4.682109130859375,0.045479894670844075,0.007740727486996911,-0.00874618276907131
1772733720219124200,4.692124267578125,0.028571429967880247,0.0015717793613672256,-0.00020083806803449986
1772733720229139500,4.702139404296875,0.04189034574627876,0.009950183697394095,-0.003559678942686878
1772733720239154400,4.712154541015625,0.0755599756360054,0.0062103350153658535,0.002680758949997835
1772733720249169200,4.722169189453125,0.08468553137779235,0.006165696722618304,0.015185266772704199
1772733720259184000,4.73218408203125,0.06343348451256751,-0.004687966019986197,-0.0018963397071929647
1772733720269199000,4.74219921875,0.05041209037601947,-0.0002003905434627086,-0.0037176003176020455
1772733720279214000,4.752214111328125,0.0210837045609951,0.003413708300469443,0.010564379206136799
1772733720289229000,4.76222900390625,0.03470423363447189,0.025875121822301297,-0.000025175540451891717
1772733720299244300,4.772244384765625,0.049072950726747507,0.012519107170216738,-0.005141851833905093
1772733720309259300,4.78225927734375,0.07690905215740203,-0.005695179434306919,-0.015163484199158847
1772733720319274200,4.792274169921875,0.08364157528281212,0.003316312340600416,-0.006415260170050896
1772733720329289200,4.802289306640625,0.07555646850466728,0.0037427986909402532,-0.0000941856560530141
1772733720339303200,4.81230322265625,0.0634299773812294,-0.0012154128049034624,-0.012120486074336804
1772733720349318100,4.822318115234375,0.040080081453919406,0.00983525208083447,0.002338347853650339
1772733720359333400,4.83233349609375,0.025861001965403554,0.0192778241828084,-0.0018641818701056762
1772733720369348400,4.842348388671875,0.025711948883533477,0.020011147992615587,-0.0050370443191379306
1772733720379363300,4.85236328125,0.020630700096487996,0.02342084683824796,-0.003664714786317199
1772733720389378300,4.86237841796875,0.03545359069705009,0.013578082737815566,0.004222193405451252
1772733720399393300,4.872393310546875,0.05970423485636711,-0.0015360824269009753,-0.00559503439492546
1772733720409408300,4.882408203125,0.08245499584674834,-0.01567795022705104,-0.010422262755129487
1772733720419423200,4.89242333984375,0.08918985705971717,-0.006101869672210887,0.0005359883065335452
1772733720429438200,4.902438232421875,0.09831541280150413,0.008468151278980075,0.004154283834970556
1772733720439453200,4.912453125,0.06958031670451163,0.005626438746764324,-0.0009788321366300805
1772733720449468200,4.92246826171875,0.06463526151776314,0.014279230444226413,0.000730999421980232
1772733720459483100,4.932483154296875,0.04113748155236244,0.004443676969292573,0.010183056304929777
1772733720469498000,4.942498046875,0.01914133832156658,0.01920148471069988,0.0022340928947320207
1772733720479512300,4.95251220703125,-0.0007546177595853806,0.017360628917254508,-0.0069917266174452375
1772733720489527300,4.96252734375,0.03202536981403827,0.008773308238014579,-0.016144800553820095
1772733720499542300,4.972542236328125,0.08335808216631412,0.011766494138049892,-0.005256824549660086
1772733720509557200,4.98255712890625,0.11164134284257889,0.004487091419333592,-0.0014480616501532494
1772733720519572200,4.992572265625,0.121065004748106,-0.011932808881974778,0.010607273066369816
1772733720529587200,5.002587158203125,0.07676642881631851,0.004084689197479747,0.00042954595710616557
1772733720539602200,5.012602294921875,0.03426408865153789,0.0223837634420488,0.000023193645919673145
1772733720549617400,5.022617431640625,0.007778232786059379,0.020699664546316488,-0.0011299264785367994
1772733720559632400,5.03263232421875,0.007931377521157265,0.015171361544937825,-0.0015376350631704553
1772733720569647000,5.042647216796875,0.03861468507647514,0.015576910138525999,-0.007959745099116117
1772733720579662000,5.052662109375,0.061517421758174894,0.0153410509894602,0.009843458220176397
1772733720589677000,5.062677001953125,0.07888064449131488,0.019245963173243216,0.008450063066440633
1772733720599692000,5.072692138671875,0.09219839122593403,-0.005785807726671919,0.003115579303842969
1772733720609707000,5.08270703125,0.08232114033401013,-0.0007394978222670033,0.008051852962514386
1772733720619721200,5.09272119140625,0.04640577734410763,0.016161422895058057,0.006367192377778701
1772733720629736200,5.102736083984375,0.04715279631912708,0.0035353893182240425,-0.00031130813860800116
1772733720639751200,5.112751220703125,0.04281447485387325,0.009654214691813103,-0.015094286853889935
1772733720649766100,5.12276611328125,0.0401239205956459,0.024112267735088243,-0.0031844524221261964
1772733720659781000,5.132781005859375,0.03369534885287285,0.02325187891293317,0.014360853446228429
1772733720669796400,5.14279638671875,0.03160685214102268,0.002669041112740524,0.0007834282955387606
1772733720679811300,5.152811279296875,0.055554129439592356,0.00995545124426717,0.006110400038538501
1772733720689826300,5.162826416015625,0.07426175251901149,-0.018556213643681256,0.005000653264927678
1772733720699841300,5.17284130859375,0.09117138626575469,-0.007552500022074673,0.00572619106050115
1772733720709856300,5.182856201171875,0.08608078512847422,0.0017492045877734199,-0.008216980396350845
1772733720719871200,5.192871337890625,0.05405541531443596,0.000649111558496952,-0.004477958264807239
1772733720729886200,5.20288623046875,0.031159108373522756,0.006846166967181488,-0.0074091391787631435
1772733720739901200,5.212901123046875,0.028168109863996503,0.016963496525562366,0.0001506879165302962
1772733720749916200,5.222916259765625,0.029368133303523062,0.024183940165233796,-0.0013638676651520653
1772733720759930000,5.23293017578125,0.06693067897856235,0.015845205685892143,0.006820384071953595
1772733720769945000,5.242945068359375,0.07875438776314259,-0.00554059166079387,0.012400645589432678
1772733720779960000,5.2529599609375,0.07680968343615531,0.00013332350648706778,0.019418086603446863
1772733720789975000,5.26297509765625,0.08982698591947555,0.005247328352241311,-0.004999388323025778
1772733720799990300,5.272990234375,0.05974748947620392,0.01829953090229537,-0.0027717708348529413
1772733720810005200,5.283005126953125,0.057203065690398215,0.010697983557125553,-0.025224603758007287
1772733720820020200,5.293020263671875,0.03296294292509556,0.006804200122132897,0.0025387383971130473
1772733720830035200,5.30303515625,0.028775428107380867,0.006552079391432926,0.0010270323596429079
1772733720840050200,5.31305029296875,0.05840776530504226,0.010404679149377625,0.004054892280837521
1772733720850065200,5.323065185546875,0.0543716416567564,0.0050679668970755294,0.007123773765587247
1772733720860080000,5.333080078125,0.05931377423405647,0.013541394856083206,0.010596715139737352
1772733720870095400,5.343095458984375,0.06874269683659076,0.005010939480212982,0.0013783345819218084
1772733720880110300,5.3531103515625,0.06799509333968162,0.001825247232359834,-0.011817749401251784
1772733720890125300,5.363125244140625,0.09013970513045787,-0.00019117062396835534,-0.022205383800994603
1772733720900139000,5.373138916015625,0.08220540499985217,-0.0028195851820870302,0.0033446433859411627
1772733720910154000,5.383154052734375,0.07112813066840172,-0.0106475046120584,-0.015118987470306456
1772733720920169200,5.393169189453125,0.05600888746976852,0.008837418416212313,0.0004436840803129598
1772733720930184200,5.40318408203125,0.04463233793079853,0.01835896033879835,-0.0005979110942222177
1772733720940199200,5.41319921875,0.01590016444325447,0.019720183955715037,0.004763533740537241
1772733720950214100,5.423214111328125,0.00916939488351345,0.021242011811689006,-0.005620429131085984
1772733720960229000,5.43322900390625,0.028179800301790237,0.030194720320776105,-0.01519055943575222
1772733720970244000,5.443244140625,0.04838730655014515,0.00476491284687072,-0.010406183836585842
1772733720980259000,5.453259033203125,0.07098726089298725,0.014117911535827442,-0.00008104761326685547
1772733720990274300,5.4632744140625,0.09328560194075107,-0.007042527506209444,0.007851585716637782
1772733721000289300,5.473289306640625,0.08221358830630779,-0.004667834264121483,0.0004773945536697283
1772733721010304300,5.48330419921875,0.06859539732038974,-0.00278994124578312,-0.007254651869949885
1772733721020319200,5.4933193359375,0.055426119145751,0.006474048002448398,-0.0038877875190461053
1772733721030333200,5.503333251953125,0.04884031101465225,0.009480458710237871,-0.008733830177574418
1772733721040348400,5.513348388671875,0.04779167874455452,0.023276129721489267,-0.010345667554694227
1772733721050363400,5.52336328125,0.033875966116786,0.010455763165932148,-0.010897890043398365
1772733721060378000,5.533378173828125,0.0280418531358242,0.031189973869244565,0.0012693988813087342
1772733721070393000,5.54339306640625,0.06754910313785076,0.0188976885916898,0.0012631792030762881
1772733721080408000,5.553407958984375,0.06306231311261654,0.006682640118675772,-0.001521350648649968
1772733721090423000,5.563423095703125,0.05064414556622505,0.003806573225709144,-0.0009042873293859884
1772733721100438000,5.57343798828125,0.054235448056459426,0.009981261538958642,-0.0032619198388187214
1772733721110453200,5.583453369140625,0.07727905451357364,-0.0014323503410792909,0.005508242027461529
1772733721120468200,5.59346826171875,0.07278758831322192,0.012792213606729637,-0.009696482930961065
1772733721130483200,5.603483154296875,0.06545300764143466,0.0019782115876558234,0.009303474158537573
1772733721140498200,5.613498291015625,0.06021218437850475,0.012172583871043752,0.008482540563936344
1772733721150513200,5.62351318359375,0.06649462564885616,0.017441923125693575,0.001680180772440508
1772733721160528100,5.633528076171875,0.0539227288454771,0.011407501799659802,0.004471523957443423
1772733721170543000,5.643543212890625,0.04718845215439796,0.0216860886176466,-0.009869839337025768
1772733721180557300,5.653557373046875,0.05033084183335304,0.003981445735425223,-0.011655850537540391
1772733721190572300,5.663572265625,0.06843699188828468,0.002444194264744874,-0.004326197202620096
1772733721200587300,5.673587158203125,0.081603347453475,-0.003403771428344771,-0.00023014636090956626
1772733721210602200,5.683602294921875,0.0890799669444561,-0.011962706263316794,-0.005721113026584498
1772733721220617200,5.6936171875,0.0854804811477661,0.002720360308024101,-0.0009234441210050136
1772733721230632200,5.703632080078125,0.06736497874259949,0.01315834122209344,0.007391507623950019
1772733721240647200,5.713647216796875,0.04491057035028934,0.020559817684208972,-0.01009340982667636
1772733721250662100,5.723662109375,0.03637479719519615,0.020706614876911042,-0.009244400915061124
1772733721260677000,5.733677001953125,0.025299860951304435,0.0023558378445683046,-0.002757952372054569
1772733721270692000,5.743692138671875,0.02814472898840904,0.016804515704722144,-0.012015075771370901
1772733721280707000,5.75370703125,0.0426642527282238,0.013930193244270049,0.0005865585831459611
1772733721290722000,5.76372216796875,0.04641162256300449,-0.0037525437668198716,0.014935347132245078
1772733721300737000,5.773737060546875,0.07888824327588081,0.004682645957474596,-0.0006084005221957341
1772733721310751200,5.783751220703125,0.0748491970181465,-0.003031928741536103,0.002024363700766116
1772733721320766200,5.79376611328125,0.0636257922142744,-0.0038875591901829463,-0.004711967950081453
1772733721330781200,5.80378125,0.06826046627759932,0.008151454579201526,-0.004995657429401762
1772733721340796200,5.813796142578125,0.06571136631667614,0.0044074000795138995,0.0009004194384440779
1772733721350811100,5.82381103515625,0.06645254007279873,-0.004647752740606665,-0.0014337773964740335
1772733721360826400,5.833826416015625,0.06165829153358936,0.00927399690230377,-0.0022523820366710423
1772733721370841300,5.84384130859375,0.03950783452391624,0.00651489375277888,0.004060029680258594
1772733721380856300,5.853856201171875,0.03561550326049328,0.0057039061634568495,-0.005425080088921823
1772733721390871300,5.863871337890625,0.053422962629795075,0.01437769041659776,0.0056587975132511925
1772733721400886300,5.87388623046875,0.055520227169990534,0.009660799696226604,0.0018670314143178982
1772733721410901000,5.88390087890625,0.03831540986895561,0.01551684594778344,-0.0008139923971612006
1772733721420916000,5.893916015625,0.055826516640186306,0.00906098433928564,-0.001108559463522397
1772733721430931200,5.90393115234375,0.07169102524816989,0.006596640052367001,0.0036928860014537345
1772733721440946200,5.9139462890625,0.07662848165035248,0.005481134824827313,0.0037928209782810878
1772733721450960100,5.923960205078125,0.09383212990760803,-0.00614291863522958,0.0009019355420954525
1772733721460975000,5.93397509765625,0.09666823011636734,0.00536460947280284,0.0006350875997217371
1772733721470990000,5.943989990234375,0.06718026982545852,0.001920885059982538,-0.010271049682213925
1772733721481005300,5.95400537109375,0.05609773479700088,0.012860970277292653,-0.013425280496012418
1772733721491020300,5.964020263671875,0.03169979112148285,0.020428985245618966,0.0028457996188662946
1772733721501035300,5.97403515625,0.018827450066804884,0.004682234965520911,0.014081986272498032
1772733721511050200,5.98405029296875,0.025262451550364492,0.011532406820962205,0.010741535004484467
1772733721521065200,5.994065185546875,0.04965455000698566,0.0060832106375135475,0.00789481293701101
1772733721531080200,6.004080078125,0.06342296311855315,0.009173801630572416,0.012875679222657345
1772733721541095200,6.01409521484375,0.07644085012376307,0.01693825705302879,0.00759998100916855
1772733721551110400,6.0241103515625,0.06267243701219559,0.02041528551382944,0.0038924317281227557
1772733721561125600,6.034125732421875,0.05384148030281066,0.015798284104513005,-0.009548247266421095
1772733721571140600,6.044140625,0.04082242425382137,0.006684227004274726,0.003777988735330291
1772733721581155600,6.054155517578125,0.04770575402677059,0.005528736826218664,-0.006426352386223152
1772733721591169300,6.064169189453125,0.0602753127425909,-0.016285035574994982,-0.002653090058360249
1772733721601184300,6.074184326171875,0.05398994886279106,0.0028085637478623537,0.014029561965516768
1772733721611199500,6.084199462890625,0.061768766170740126,0.005175087383226491,-0.006902902123099193
1772733721621214500,6.09421435546875,0.07463350844085216,0.014928241538023575,-0.0002673365661408752
1772733721631229400,6.1042294921875,0.06250993992686271,0.027570614328305234,0.004054536087810993
1772733721641244400,6.114244384765625,0.039464579904079436,0.007810568719659932,-0.013638388957153073
1772733721651259400,6.12425927734375,0.03542553364634514,0.004740262462804094,-0.009147694508358836
1772733721661274400,6.1342744140625,0.05577917036712169,0.010080157619458623,-0.0072545377055183045
1772733721671289300,6.144289306640625,0.07687982606291771,-0.007139546723454259,-0.011393852300220168
1772733721681304600,6.1543046875,0.0726882195919752,0.0050483968302141875,-0.0032483845038106664
1772733721691319600,6.164319580078125,0.07073825456798076,-0.004869574231165461,-0.0013601870038779452
1772733721701334500,6.17433447265625,0.05696516528129577,0.01046696497995872,0.0038470582164358345
1772733721711349500,6.184349609375,0.05261866050958633,0.006944097216590307,-0.006517948792967945
1772733721721364500,6.194364501953125,0.05096972425878048,0.00919774419516325,0.0022132601692574096
1772733721731378400,6.20437841796875,0.03555529750585556,0.013678072513570077,-0.01990547282816842
1772733721741393400,6.214393310546875,0.059198038899898525,0.013588668063911609,-0.000016531009692698716
1772733721751408400,6.224408447265625,0.062191375496983524,0.0006201092262985184,-0.0035635468336287883
1772733721761423400,6.23442333984375,0.07535773106217383,0.012650167937669902,0.00041046223072335123
1772733721771438300,6.244438232421875,0.06099018301367759,0.01143863672344014,0.006928516054968349
1772733721781453300,6.254453369140625,0.052309448429942125,0.0065151357813738285,-0.001384357897331938
1772733721791468300,6.26446826171875,0.0485679238140583,0.007182221387978643,-0.011402263935538939
1772733721801483500,6.2744833984375,0.04333353029191494,0.015265885127708314,-0.010182001425581984
1772733721811498500,6.28449853515625,0.04782675005793571,0.02262547237658873,-0.007899279049574397
1772733721821513500,6.294513427734375,0.05546235950291156,0.01538954347341787,0.011849838739680126
1772733721831528400,6.304528564453125,0.046188335201144216,0.005546057853777892,0.005124142647278495
1772733721841543400,6.31454345703125,0.07641571568250656,0.011794816050236114,0.00810387541069649
1772733721851558400,6.324558349609375,0.0919768574297428,0.003674500961392186,0.0034194439215119925
1772733721861573400,6.334573486328125,0.0849403829216957,0.008934618013259022,-0.006418114280840381
1772733721871587600,6.344587646484375,0.0532125347495079,0.0165585050544003,-0.0015737018903950227
1772733721881602600,6.3546025390625,0.05440495940446853,0.01838988063344732,0.01200203362670727
1772733721891617500,6.364617431640625,0.044376317343115805,0.0024170436796266586,-0.0001981392208719626
1772733721901632500,6.374632568359375,0.04003624231219292,0.012756098830443806,-0.00791687863834668
1772733721911647200,6.384647216796875,0.029265257450938224,0.01784722055753227,-0.0024063350559445098
1772733721921662200,6.394662109375,0.044083471876382826,0.018557031061011364,-0.00341456681699492
1772733721931677400,6.404677490234375,0.040047932749986644,0.0023181818484561516,0.00235150416274555
1772733721941692400,6.4146923828125,0.07357084764540195,0.008675679382705128,0.0016144585924688726
1772733721951707400,6.424707275390625,0.05711480288505554,0.005443862421205267,-0.004463783608982339
1772733721961722400,6.434722412109375,0.06385083314180373,-0.0042222482043784105,0.00901996734230779
1772733721971737300,6.4447373046875,0.06879004310965538,-0.00783828327707015,-0.0003099198991199955
1772733721981752300,6.45475244140625,0.06115735627412796,-0.004612124304799362,-0.013841496614087373
1772733721991767300,6.464767333984375,0.07043254961967468,0.006379864629684016,-0.0013121557442238555
1772733722001781500,6.474781494140625,0.058009705898165696,0.010673620867426507,0.0013856822047382592
1772733722011796500,6.48479638671875,0.041997313252091405,0.015943332298123277,0.0031840140307089313
1772733722021811500,6.4948115234375,0.04244681058526039,0.019001464059995487,0.009794673475273885
1772733722031826400,6.504826416015625,0.04155132305026054,0.02536673390874639,0.011811821983964181
1772733722041841400,6.51484130859375,0.049185178929567336,0.01037022660721559,0.009868254734715446
1772733722051856600,6.524856689453125,0.09003741379976272,-0.007622201974131167,-0.01493471694458276
1772733722061871600,6.53487158203125,0.0720785632610321,0.003322248891042545,-0.022701629185606725
1772733722071886600,6.544886474609375,0.04528934053480625,0.004375803931429982,-0.0036495309169171375
1772733722081901600,6.554901611328125,0.05755611691176891,0.005836291238316334,-0.00010517284094821661
1772733722091916300,6.564916259765625,0.0349608387440443,0.019848523043119348,-0.0014832105953479185
1772733722101931300,6.57493115234375,0.038403672674298284,0.013698407482123002,0.00011180807771161198
1772733722111946200,6.5849462890625,0.052172670307755464,0.01295776344896294,0.007042785517824814
1772733722121961500,6.59496142578125,0.06115384914278984,0.0032178797676926476,-0.001337253652862273
1772733722131976400,6.6049765625,0.04619418042004108,0.00876055835429579,-0.005923293668334372
1772733722141990400,6.614990478515625,0.07447627205252647,0.0019531159623060374,0.001292578827496618
1772733722152005400,6.62500537109375,0.07567045027315616,-0.0043329009380424395,0.005098378018359653
1772733722162020400,6.635020263671875,0.06489128210544585,-0.009113408646266906,-0.004884593703784048
1772733722172035300,6.645035400390625,0.06324059228897094,0.0012882816782919689,0.0087009690875886
1772733722182050600,6.655050537109375,0.02523030284643173,0.012606118733389302,0.005735077619855292
1772733722192065500,6.6650654296875,0.03181728002130985,0.021319919903087427,-0.002843826857488602
1772733722202080500,6.67508056640625,0.02030044522881508,0.017322877023019826,-0.008274966794438659
1772733722212095500,6.685095458984375,0.03871463831961155,0.023729136469285,0.005725387342902831
1772733722222110500,6.6951103515625,0.06775134771168231,0.0038420167151372877,-0.0006303520590998232
1772733722232125400,6.70512548828125,0.09678338092863559,0.0015581663945456966,0.013022366817505099
1772733722242140400,6.715140380859375,0.1026169093877077,-0.012953406934253871,0.014030904539232142
1772733722252155600,6.72515576171875,0.0810626647055149,0.0001518523937324062,0.013568077367031946
1772733722262170600,6.735170654296875,0.040355975785851476,0.018940262791514395,0.008555368338129483
1772733722272185300,6.745185302734375,0.015965046373009682,0.0025982089328113944,-0.004101160841668025
1772733722282199300,6.75519921875,0.005346037203073501,0.003168400903046131,0.004301067327940836
1772733722292214300,6.76521435546875,0.04455868817269802,0.016211015924136152,0.00164004512487445
1772733722302229500,6.7752294921875,0.08481821784675121,0.01110077850462403,-0.005602998505672439
1772733722312244500,6.785244384765625,0.09140519502162933,-0.00623169289722573,-0.00834579897436779
1772733722322259500,6.795259521484375,0.08437164312303065,-0.003176369580370374,0.005931504374253563
1772733722332274400,6.8052744140625,0.0819733498096466,0.001639940093597397,0.003541038174298592
1772733722342289400,6.815289306640625,0.04919920745491981,0.01690301677628886,0.006981100192153826
1772733722352304400,6.825304443359375,0.026452538117766378,0.025482400744245386,0.0067763942331774156
1772733722362319400,6.8353193359375,0.0355798474252224,0.007732571580004878,-0.010989559515379369
1772733722372334600,6.84533447265625,0.055930561536550516,0.006326874067122117,-0.001013446792284958
1772733722382349600,6.855349609375,0.07044482457935809,-0.0008847789113176986,-0.009923231758386827
1772733722392364500,6.865364501953125,0.05248831212818622,0.0009058993311598896,0.003200787068996578
1772733722402379500,6.875379638671875,0.06251344705820083,0.000665441638790071,-0.008740757675282656
1772733722412393200,6.885393310546875,0.05607903009653091,0.00999783593113534,0.0035590670213336124
1772733722422408400,6.895408447265625,0.035280572217702866,-0.0033492464958224445,0.013016188238468021
1772733722432423400,6.90542333984375,0.03767711196541786,0.006838887843023985,0.002162228668341413
1772733722442438400,6.9154384765625,0.05638356600105762,0.010768450410873629,0.008178808377007954
1772733722452453400,6.925453369140625,0.07449205414354801,0.0076931391853373495,-0.0036122813461814075
1772733722462468400,6.93546826171875,0.06072656364142894,0.006468255299190059,-0.0026449067519046365
1772733722472483300,6.9454833984375,0.05967734684944152,0.0119938822862925,0.005959182399045675
1772733722482498300,6.955498291015625,0.05758183587491512,0.010010836976603604,0.005291722333105281
1772733722492513500,6.965513427734375,0.04830371991991996,-0.0032735920103034,0.00388066365851555
1772733722502528500,6.975528564453125,0.04336509447395801,0.00678355919290334,0.0055332303382456295
1772733722512543500,6.98554345703125,0.050398061850666996,0.00777538780842442,0.0004962179851485416
1772733722522558500,6.995558349609375,0.0502495932906866,0.006951595536456443,0.00893840827238746
1772733722532573400,7.005573486328125,0.05369418078660965,0.009228349395981057,-0.010025244527868927
1772733722542588400,7.01558837890625,0.05684007759690284,0.028345347860734907,0.008145801156549714
1772733722552603000,7.025602783203125,0.06522329053878784,0.012802148195565678,0.009072834607283585
1772733722562617900,7.035617919921875,0.04981353996098041,0.006215481547941454,0.0035083962800214067
1772733722572632800,7.0456328125,0.0644797786951065,-0.01133744137128815,0.00400805289784912
1772733722582647800,7.055647705078125,0.09365735786259174,-0.0019482616906752808,-0.004939497662219219
1772733722592662500,7.06566259765625,0.08452478785812854,-0.01110112099791877,-0.00834289463122841
1772733722602677500,7.075677490234375,0.06342004050910473,-0.008062036429811268,-0.004881470164936036
1772733722612692500,7.0856923828125,0.04710486552417278,0.004491863492573611,-0.0005949017198057845
1772733722622707700,7.095707763671875,0.04216448651254177,0.02330881043167319,0.019773882337752728
1772733722632722700,7.10572265625,0.020768062740564346,0.002399508022936061,0.001664161219401285
1772733722642737700,7.115737548828125,0.04037584953010082,0.0032992972737178206,-0.01598876517531462
1772733722652752600,7.125752685546875,0.05025894564092159,-0.0021845546645810824,0.0003349036433268338
1772733722662767600,7.135767578125,0.06822013426721095,-0.0021522552635986356,-0.014258374885865486
1772733722672782600,7.145782470703125,0.06912146702110766,0.005650034251483157,0.0031860370244365184
1772733722682797600,7.155797607421875,0.08737667015790938,-0.0019025182862300424,0.002444315279042348
1772733722692811800,7.165811767578125,0.09096505003869533,-0.015656332050287165,-0.004853490746044554
1772733722702826800,7.17582666015625,0.06626841567754745,-0.01352342994112987,0.004846248154505156
1772733722712841700,7.185841796875,0.05548807846605777,-0.003912433336535469,-0.0012555347527377306
1772733722722856700,7.195856689453125,0.0375274743616581,0.008787962384452112,-0.012198492347146383
1772733722732871700,7.20587158203125,0.02091594677865505,0.008595280223409645,0.0012660698464838787
1772733722742886700,7.21588671875,0.045158992153406144,0.014765598322218283,-0.003547367450385354
1772733722752902000,7.22590185546875,0.04471358647346496,0.02384223232178483,-0.005512904502847232
1772733722762916900,7.235916748046875,0.06207856277227401,0.023840136262821034,0.006715014868183061
1772733722772931600,7.245931640625,0.04068681517541408,0.01005009127475787,0.0018054374201921745
1772733722782946600,7.255946533203125,0.09066869744062424,-0.0047224162788596005,-0.0009862619578372687
1772733722792961500,7.26596142578125,0.08572948747277259,-0.014770886418689042,-0.0013808005336439237
1772733722802976500,7.2759765625,0.10218377866744995,-0.014559992747521027,0.010921636245166882
1772733722812991700,7.28599169921875,0.04262275167405605,0.007423893789900466,0.002958132852963172
1772733722823006700,7.2960068359375,0.003866612300276756,0.029144439516286366,0.010509438715083525
1772733722833020700,7.306020751953125,0.02078092222213745,0.01699101928672753,-0.006579574753134511
1772733722843035600,7.31603564453125,0.038295536124706264,0.005819477100833319,-0.003277418802049942
1772733722853050600,7.326050537109375,0.07690788311362266,-0.01417813099019695,-0.0041363828520989045
1772733722863065600,7.336065673828125,0.07990238875448703,-0.014811131664109415,-0.001187451652321033
1772733722873080800,7.346080810546875,0.11147183149456977,-0.007792823000415228,0.00401281127135735
1772733722883095800,7.356095703125,0.10502806218266486,0.003285647774278186,0.00030812980083283037
1772733722893110800,7.36611083984375,0.07314531570971011,0.00359832588606514,0.005322090071905404
1772733722903125800,7.376125732421875,0.012984569257497787,0.009153813721891491,0.003972972451313399
1772733722913140700,7.386140625,0.015678046125173567,0.019585944850486703,-0.007426231877459213
1772733722923155700,7.39615576171875,0.027801614639163016,0.012046781517309136,-0.00619626995739527
1772733722933170700,7.406170654296875,0.06386661523282527,0.0034915730093838643,0.002456448674830608
1772733722943186000,7.41618603515625,0.1072615203231573,0.000501533481082879,0.017510229988396166
1772733722953200600,7.42620068359375,0.08600947345793247,0.0024424521155189723,0.00936770306774415
1772733722963214600,7.436214599609375,0.059517772373557085,-0.005010416607116349,0.004387718131509609
1772733722973229600,7.4462294921875,0.05801496659517288,0.005852863347204401,-0.0001452628227416426
1772733722983244500,7.45624462890625,0.05561199710667133,0.006141005239356309,0.0007808070801896974
1772733722993259800,7.466259765625,0.05051438170671463,0.00486183844928164,0.003059341904846951
1772733723003274800,7.476274658203125,0.06606500205993653,0.009369995489530264,-0.0005942304329480976
1772733723013289700,7.486289794921875,0.055580432924628255,0.018042770529096013,0.0021656353349797427
1772733723023304700,7.4963046875,0.012030045011639595,0.02609685198131483,-0.006539795298594981
1772733723033319700,7.506319580078125,0.015770400583744047,0.00473870525995735,0.007082884632772766
1772733723043334700,7.516334716796875,0.02205927159488201,0.003253581268736161,0.01559392063883133
1772733723053349600,7.526349609375,0.06695581341981888,0.003069319876166992,0.0016687871621688826
1772733723063364900,7.53636474609375,0.06306874285340308,-0.006927447475888766,0.00014606197376269847
1772733723073379800,7.5463798828125,0.07504092019796371,-0.0027390924079576506,0.01125817015657667
1772733723083394800,7.556394775390625,0.07668634931743144,0.004197369491448626,-0.0035020304713165385
1772733723093409800,7.566409912109375,0.06471534101665019,-0.008008411113009787,-0.014857820350048132
1772733723103423500,7.576423583984375,0.04705751925110817,-0.013022188720991834,0.001437672686879523
1772733723113438700,7.586438720703125,0.07114975797832011,-0.015248221606854349,0.0024357118474785237
1772733723123453700,7.59645361328125,0.07219546763896942,0.010028724259743466,0.021440244647394864
1772733723133468700,7.60646875,0.09568331073224544,0.009191597582167014,0.016042564022052102
1772733723143483600,7.616483642578125,0.07637421462833881,0.017548639469756745,0.009593780608312227
1772733723153498600,7.62649853515625,0.023548633369803427,0.031646161238104105,0.007402905800798908
1772733723163513600,7.636513671875,-0.013406009539961815,0.020335480009578168,-0.02098637709978502
1772733723173528600,7.646528564453125,0.008304302486777305,0.012328151175379753,-0.032797838324145415
1772733723183543800,7.656543701171875,0.021041618984937668,0.006089973738440312,-0.011647434335644356
1772733723193558800,7.666558837890625,0.07193593991994858,0.0040751541841542345,0.005526371339196339
1772733723203573800,7.67657373046875,0.10756021100878715,0.0026138220604741942,0.021987064875196666
1772733723213588700,7.686588623046875,0.13464695537686347,0.00026385226768907156,0.04440238793271128
1772733723223603700,7.696603759765625,0.11638590702116489,-0.0008743579820031299,0.012371862452942877
1772733723233618700,7.70661865234375,0.07941548202037811,0.002998332432610914,-0.005205459688603878
1772733723243633000,7.7166328125,0.04887655137181282,0.007721611794573254,-0.02033348441531416
1772733723253648000,7.72664794921875,0.03764379421770572,-0.003046094264206476,-0.02958380361450836
1772733723263662600,7.73666259765625,0.03359656465351581,0.0048138071896275504,-0.018378619453916323
1772733723273677600,7.746677490234375,0.04182429477274418,0.0014431525795953347,0.021687821633717977
1772733723283692500,7.756692626953125,0.040481063470244404,-0.0003414840811630711,0.018029518321878275
1772733723293707500,7.76670751953125,0.016249708533287048,0.02209696412361227,0.0059776953032705926
1772733723303722500,7.776722412109375,-0.008273322826623917,0.035868738236045465,0.012273699308093636
1772733723313737700,7.78673779296875,0.01119885488450527,-0.0019644456404959783,-0.007385534540889784
1772733723323752700,7.796752685546875,0.08663140474855899,0.0037622249106178058,-0.013228520381473935
1772733723333767700,7.806767578125,0.04279518563151359,-0.005037569475523196,-0.02592281058866065
1772733723343782700,7.81678271484375,-0.05804360816776752,0.031620122614549474,0.007470367846707813
1772733723353797600,7.826797607421875,-0.054120881766080854,0.029305358849174807,0.0560135773446178
1772733723363812600,7.8368125,0.15105214673280715,0.0058035077801439905,0.002182412939844653
1772733723373826800,7.846826904296875,0.09284954861104487,0.013181292839418164,0.0016640379218151792
1772733723383841800,7.856841796875,0.04182546381652355,0.0034148933272692373,-0.01937260806048289
1772733723393856800,7.866856689453125,0.03300152136981487,0.009413420214370125,-0.022920865993434562
1772733723403871700,7.876871826171875,0.016693945169448852,0.004633699669901398,-0.01652838391077239
1772733723413886700,7.88688671875,0.10093816252052783,0.0007554163397842785,0.005429797363234684
1772733723423901700,7.896901611328125,0.1182937864691019,0.01358310026458348,0.016292798756342382
1772733723433917000,7.9069169921875,0.1601958226531744,0.0021494844928442035,0.027192519997223278
1772733723443931600,7.916931640625,0.1801069763034582,-0.011322990437538828,0.013212272499571553
1772733723453946600,7.926946533203125,0.15228607244193554,-0.02498843408168759,-0.017687399486475623
1772733723463961600,7.936961669921875,0.14825813210010527,-0.007251289156617713,-0.00839243742795661
1772733723473976600,7.9469765625,0.17834405828416347,-0.02356770111316582,-0.011024598862719722
1772733723483991600,7.956991455078125,0.1609790819853544,-0.01660185671400395,-0.02301354924556799
1772733723494006500,7.967006591796875,-0.027430443239212034,0.02024919453219045,0.005187604371504857
