time,seconds_elapsed,z,y,x
1772733715592226800,0.065226806640625,0.0021644635125994682,0.009688100777566433,0.0731499046087265
1772733715602241800,0.07524169921875,0.0002660052850842476,0.014979888685047626,0.03822427615523338
1772733715612256800,0.0852568359375,0.0018625701777637005,0.000737303402274847,-0.026558980345726013
1772733715622271700,0.095271728515625,0.0021802489645779133,-0.00007025804370641708,-0.06569302827119827
1772733715632286700,0.10528662109375,-0.0005228596273809671,-0.004008806776255369,-0.05804416537284851
1772733715642301700,0.1153017578125,-0.0013174323830753565,-0.00132627016864717,-0.01775697059929371
1772733715652317000,0.12531689453125,-0.002790959319099784,0.0004641730338335037,0.018538452684879303
1772733715662332000,0.135331787109375,-0.0008831068407744169,-0.00027658301405608654,0.033684033900499344
1772733715672347000,0.145346923828125,-0.002883407287299633,-0.0018470489885658026,0.027745982632040977
1772733715682361900,0.15536181640625,-0.002181397983804345,-0.0034667837899178267,0.018172185868024826
1772733715692376600,0.16537646484375,-0.0004141242243349552,-0.010067428462207317,0.02010936848819256
1772733715702390800,0.175390869140625,-0.0026475689373910427,-0.008174465037882328,0.03100682608783245
1772733715712405800,0.18540576171875,-0.0005018599331378937,0.00014764699153602123,0.039078064262866974
1772733715722420700,0.195420654296875,-0.00035553891211748123,0.006264863535761833,0.028159596025943756
1772733715732435700,0.205435791015625,0.001237564254552126,0.005873911082744598,-0.0003625924582593143
1772733715742450700,0.21545068359375,0.0006565400399267673,0.0006400721613317728,-0.030213290825486183
1772733715752465700,0.225465576171875,-0.0002542613074183464,0.0003830771893262863,-0.03878201171755791
1772733715762480600,0.235480712890625,-0.0023848668206483126,0.00043516349978744984,-0.028089947998523712
1772733715772496000,0.245495849609375,0.00041704485192894936,0.0005174551624804735,-0.007849125191569328
1772733715782510800,0.2555107421875,0.0008157235570251942,0.0023303853813558817,0.005393273197114468
1772733715792525800,0.26552587890625,0.0002561933360993862,0.0008651141542941332,0.010177908465266228
1772733715802540800,0.275540771484375,-0.0003050905652344227,-0.0005949717015028,0.010172565467655659
1772733715812555800,0.2855556640625,-0.0006771341431885958,-0.0012892577797174454,0.012442111037671566
1772733715822570800,0.29557080078125,-0.0023989782202988863,-0.003364252159371972,0.014367859810590744
1772733715832585700,0.305585693359375,0.0002335566096007824,-0.002740805735811591,0.01880681701004505
1772733715842600700,0.3156005859375,0.000884657260030508,0.0007170634344220161,0.019333144649863243
1772733715852616000,0.325615966796875,0.0005150106735527515,0.003831896698102355,0.00505300797522068
1772733715862629600,0.335629638671875,-0.0008125356398522854,0.002867241157218814,-0.0171345267444849
1772733715872644600,0.34564453125,-0.0007329070940613747,0.0016219470417127013,-0.030166972428560257
1772733715882659600,0.35565966796875,-0.0002205483615398407,-0.00023064156994223595,-0.028329618275165558
1772733715892674600,0.365674560546875,-0.0014629128854721785,-0.0007006896194070578,-0.010369261726737022
1772733715902689800,0.375689697265625,-0.0010832971893250942,0.0007437430322170258,0.011069144122302532
1772733715912704800,0.385704833984375,-0.0010971457231789827,-0.0007196636870503426,0.028700070455670357
1772733715922719700,0.3957197265625,0.0012656417675316334,-0.0016035507433116436,0.032500918954610825
1772733715932734700,0.405734619140625,0.0029793856665492058,0.0014825204852968454,0.024150045588612556
1772733715942749700,0.415749755859375,0.001699813175946474,0.0006029503419995308,0.004818832967430353
1772733715952764700,0.4257646484375,0.0006206999532878399,0.003064510179683566,-0.015640635043382645
1772733715962779600,0.435779541015625,-0.00032080337405204773,0.0031329214107245207,-0.0298110693693161
1772733715972795000,0.445794921875,-0.0004299927968531847,-0.0011012386530637741,-0.03372165560722351
1772733715982809900,0.455809814453125,0.00018744263797998428,0.0021733189933001995,-0.02430209517478943
1772733715992824800,0.465824951171875,-0.0006234899628907442,0.0015437477268278599,-0.006903132889419794
1772733716002839800,0.47583984375,0.0009032613597810268,-0.0005853520706295967,0.007224999368190765
1772733716012854800,0.485854736328125,-0.0018304733093827963,-0.0006260983645915985,0.015624342486262321
1772733716022868700,0.49586865234375,-0.00008907029405236244,-0.0029575990047305822,0.02244582585990429
1772733716032883700,0.5058837890625,0.0016787364147603512,0.0061661247164011,0.023265814408659935
1772733716042898700,0.515898681640625,0.00018550222739577293,0.00600530905649066,0.010275034233927727
1772733716052913700,0.52591357421875,0.0019373293034732342,0.0014603582676500082,-0.014036696404218674
1772733716062928600,0.5359287109375,0.0010479120537638664,-0.00029912148602306843,-0.026396285742521286
1772733716072943600,0.545943603515625,-0.001131352735683322,-0.0020381654612720013,-0.020125340670347214
1772733716082958600,0.55595849609375,-0.0014635655097663403,0.0000367301981896162,-0.003818085417151451
1772733716092973800,0.565973876953125,-0.00039137713611125946,-0.00045728590339422226,0.006346933543682098
1772733716102988800,0.57598876953125,-0.00012795208021998405,-0.0006315545178949833,0.012353365309536457
1772733716113003800,0.586003662109375,-0.00008454266935586929,0.00022465153597295284,0.008152228780090809
1772733716123018800,0.596018798828125,-0.0005563015583902597,-0.00001877686008810997,0.0016129041323438287
1772733716133033700,0.60603369140625,-0.0025315680541098118,-0.003315237583592534,-0.004370952490717173
1772733716143048700,0.616048583984375,-0.0002713790163397789,-0.0017455827910453081,0.0013591167517006397
1772733716153063700,0.626063720703125,0.0014327778480947018,0.0023857790511101484,0.007954967208206654
1772733716163079000,0.636078857421875,0.00006215926259756088,0.0005757540930062532,0.0066864872351288795
1772733716173094000,0.646093994140625,0.0008224919438362122,0.0024085415061563253,-0.0017858273349702358
1772733716183107600,0.656107666015625,0.001187649555504322,0.001582331140525639,-0.014024712145328522
1772733716193122600,0.66612255859375,-0.00001876242458820343,0.0008395754266530275,-0.022574525326490402
1772733716203137500,0.676137451171875,-0.0003777565434575081,0.0017048366134986281,-0.02184588462114334
1772733716213152800,0.68615283203125,-0.0010374216362833977,0.0010611505713313818,-0.014839639887213707
1772733716223167700,0.696167724609375,-0.0009978157468140125,-0.0004923040978610516,-0.0020756623707711697
1772733716233182700,0.7061826171875,0.00017370888963341713,0.0002890676259994507,0.008478976786136627
1772733716243197700,0.71619775390625,-0.0012195054441690445,-0.0014754778239876032,0.014462343417108059
1772733716253212700,0.726212646484375,0.0011861277744174004,0.000057437457144260406,0.017585964873433113
1772733716263227600,0.7362275390625,0.0018522231839597225,-0.0024233944714069366,0.012666777707636356
1772733716273242600,0.74624267578125,0.00016644224524497986,-0.001583167351782322,0.006681855767965317
1772733716283257600,0.756257568359375,-0.0004100571386516094,-0.0011983870062977076,-0.0024074665270745754
1772733716293272800,0.76627294921875,0.0009047454223036766,0.003242167644202709,-0.014589563943445683
1772733716303287800,0.776287841796875,-0.0006650353316217661,0.0009559083264321089,-0.022357165813446045
1772733716313302800,0.786302734375,0.001337129157036543,0.0031745878513902426,-0.023125486448407173
1772733716323317800,0.79631787109375,0.000362602062523365,0.002419549273326993,-0.020531855523586273
1772733716333332700,0.806332763671875,0.0011255978606641293,0.0029122340492904186,-0.014997007325291634
1772733716343347000,0.816346923828125,0.0004204344004392624,0.0004075502511113882,-0.004703057464212179
1772733716353362000,0.82636181640625,-0.0012195399031043053,-0.0017051352187991142,0.008215936832129955
1772733716363376600,0.836376708984375,-0.00027891527861356735,-0.0006799341645091772,0.015808777883648872
1772733716373391600,0.8463916015625,0.0003469274379312992,0.0009323437698185444,0.01603727787733078
1772733716383406600,0.856406494140625,0.0014400030486285686,-0.00042912899516522884,0.010676293633878231
1772733716393421600,0.866421630859375,-0.000266816932708025,0.0015485344920307398,-0.0012695816112682223
1772733716403436500,0.8764365234375,-0.0009312757756561041,0.0017605220200493932,-0.013570456765592098
1772733716413451800,0.88645166015625,0.0014980598352849483,0.0003202846273779869,-0.01896442286670208
1772733716423466800,0.896466796875,-0.0015264921821653843,-0.0017609756905585527,-0.016177423298358917
1772733716433481700,0.906481689453125,0.00005302857607603073,-0.00011674012057483196,-0.007373013999313116
1772733716443496700,0.91649658203125,0.0009894375689327717,0.0011447789147496223,0.00008561392314732075
1772733716453511700,0.92651171875,-0.0021850503981113434,-0.0016667204909026623,0.006605564616620541
1772733716463526700,0.936526611328125,0.00009415531530976295,0.0008168993517756462,0.005100124981254339
1772733716473541600,0.946541748046875,0.0004110713489353657,0.0016033308347687125,-0.0008216797141358256
1772733716483556900,0.956556884765625,0.0004319618456065655,0.0015018759295344353,-0.008780069649219513
1772733716493570800,0.96657080078125,0.0016682012937963009,0.002672601491212845,-0.015007872134447098
1772733716503585800,0.976585693359375,0.0016385982744395733,0.0015663454541936517,-0.014997931197285652
1772733716513600800,0.986600830078125,0.0005773287266492844,-0.0005583243910223246,-0.012254608795046806
1772733716523615700,0.99661572265625,-0.0006592150311917067,-0.0009427480399608612,-0.006776836700737476
1772733716533630700,1.006630615234375,-0.0001428280957043171,-0.000517974141985178,0.0009231610456481576
1772733716543645700,1.016645751953125,0.00041293585672974586,-0.0010997382923960686,0.00950857624411583
1772733716553660700,1.02666064453125,-0.0008866866119205952,-0.00007548672147095203,0.01595156081020832
1772733716563675600,1.036675537109375,0.000319803599268198,0.0004963648971170187,0.013490410521626472
1772733716573690600,1.046690673828125,0.00013284990563988686,0.0010809286031872034,0.0036351163871586323
1772733716583705600,1.05670556640625,-0.000032914336770772934,-0.0011117057874798775,-0.009093514643609524
1772733716593720600,1.066720458984375,-0.0006347887683659792,-0.002021441701799631,-0.01728113740682602
1772733716603735800,1.07673583984375,-0.0007998300716280937,0.0016019021859392524,-0.01284591481089592
1772733716613750800,1.086750732421875,0.0008388129062950611,0.0007675339002162218,-0.006553131155669689
1772733716623765800,1.096765869140625,0.00040559330955147743,0.0016596849309280515,0.00029375660233199596
1772733716633780700,1.10678076171875,-0.0004508793354034424,-0.0002641826868057251,0.009089378640055656
1772733716643794700,1.116794677734375,-0.0015232586301863194,0.0016778672579675913,0.010434948839247227
1772733716653809700,1.1268095703125,0.0007811747491359711,0.00011618947610259056,0.00894996989518404
1772733716663825000,1.136824951171875,-0.0014371622819453478,-0.00032346625812351704,0.0035091526806354523
1772733716673839900,1.14683984375,-0.0019985565450042486,-0.001607908634468913,-0.0006331279291771352
1772733716683854600,1.1568544921875,-0.001351750921458006,-0.0006391236092895269,-0.0027435575611889362
1772733716693869600,1.16686962890625,-0.00007822737097740173,-0.0018319531809538603,-0.0014481961261481047
1772733716703884500,1.176884521484375,-0.00038665812462568283,0.0006262408569455147,-0.0017738377209752798
1772733716713899500,1.1868994140625,-0.0005792046431452036,-0.0008307744283229113,-0.001876103226095438
1772733716723914500,1.19691455078125,-0.0004180045798420906,0.0015780441462993622,-0.004147345200181007
1772733716733929700,1.2069296875,0.00014631915837526321,0.00030851527117192745,-0.001484450651332736
1772733716743944700,1.21694482421875,-0.0010046989191323519,-0.00006352830678224564,-0.0016972371377050877
1772733716753959700,1.226959716796875,-0.00013570953160524368,0.00011969706974923611,0.0010623302077874541
1772733716763974700,1.236974609375,-0.0011535738594830036,-0.00005066138692200184,0.0012758885277435184
1772733716773989600,1.24698974609375,-0.0008576966356486082,-0.00008368468843400478,-0.0017766266828402877
1772733716784004600,1.257004638671875,-0.0011124848388135433,0.0004037062171846628,0.0007081235526129603
1772733716794018800,1.267018798828125,-0.0013894536532461643,0.00008625746704638004,0.0017020151717588305
1772733716804033800,1.27703369140625,-0.00016599753871560097,-0.0010609924793243408,0.0002677569864317775
1772733716814048800,1.287048828125,0.00011230260133743286,0.0006357072852551937,-0.0015613019932061434
1772733716824063700,1.297063720703125,0.0010805143974721432,0.00038139987736940384,-0.0005792066222056746
1772733716834078700,1.30707861328125,0.0005601323209702969,0.002185158897191286,0.0034150024875998497
1772733716844093700,1.31709375,-0.0009347756858915091,0.0015289236325770617,0.004401416517794132
1772733716854108700,1.327108642578125,-0.00003808923065662384,0.0007275785319507122,0.0016453108983114362
1772733716864123600,1.33712353515625,0.0011708345264196396,-0.0015556546859443188,-0.003905144752934575
1772733716874138600,1.347138671875,-0.0013138949871063232,-0.0005164891481399536,-0.006464442238211632
1772733716884153600,1.357153564453125,-0.003829479683190584,-0.001683010021224618,-0.0055842106230556965
1772733716894168600,1.36716845703125,-0.00006057415157556534,0.00022248178720474243,-0.0010256778914481401
1772733716904183600,1.37718359375,-0.0009693589527159929,0.0003549056127667427,0.004832519218325615
1772733716914198500,1.387198486328125,0.00028232671320438385,0.0005618331488221884,0.009756703861057758
1772733716924213800,1.3972138671875,0.0006377091631293297,0.0017534507205709815,0.008179564960300922
1772733716934228700,1.407228759765625,0.00011279992759227753,-0.00038693170063197613,0.0015493594110012054
1772733716944242700,1.41724267578125,-0.0004906745161861181,0.0010361168533563614,-0.0039933836087584496
1772733716954257700,1.427257568359375,-0.0008342224173247814,0.00036579929292201996,-0.008469359017908573
1772733716964272600,1.437272705078125,0.0011128145270049572,0.00043287151493132114,-0.009275618009269238
1772733716974288000,1.447287841796875,0.0005178642459213734,0.00037321681156754494,-0.01151347253471613
1772733716984302800,1.457302734375,-0.00037052854895591736,-0.0003235633485019207,-0.006944615859538317
1772733716994317800,1.46731787109375,-0.0007731984369456768,0.0011536921374499798,-0.004135247319936752
1772733717004332800,1.477332763671875,-0.00011977041140198708,0.0003248993307352066,0.003988261334598064
1772733717014347800,1.48734765625,-0.00022017164155840874,-0.0004540751688182354,0.010440833866596222
1772733717024362800,1.49736279296875,-0.00006616674363613129,-0.0008385216351598501,0.011306089349091053
1772733717034377500,1.50737744140625,-0.000014235265552997589,-0.00002386048436164856,0.010902886278927326
1772733717044392700,1.517392822265625,0.00009960075840353966,-0.0029348849784582853,0.008565030060708523
1772733717054407700,1.52740771484375,-0.00002183951437473297,-0.0013308629859238863,0.009578096680343151
1772733717064422700,1.537422607421875,-0.0006411431822925806,-0.00045107188634574413,0.009046543389558792
1772733717074437600,1.547437744140625,0.0004552803002297878,0.0007518776692450047,0.004133278038352728
1772733717084451600,1.55745166015625,0.00039456039667129517,0.0003944814670830965,-0.004464204888790846
1772733717094466600,1.567466552734375,0.0001801755279302597,-0.0008204525802284479,-0.01010051928460598
1772733717104481800,1.577481689453125,0.0008694780990481377,0.0002814093604683876,-0.008993181400001049
1772733717114496800,1.587496826171875,-0.00010337447747588158,0.0005141696892678738,-0.0030980082228779793
1772733717124511700,1.59751171875,-0.0015857666730880737,-0.0018984598573297262,0.008445055224001408
1772733717134526700,1.607526611328125,-0.0003220965154469013,0.00012820586562156677,0.018573589622974396
1772733717144541700,1.617541748046875,0.00041910726577043533,-0.0005975042004138231,0.02122475765645504
1772733717154556700,1.627556640625,-0.000985976541414857,-0.002005251357331872,0.01659458689391613
1772733717164571600,1.637571533203125,0.0012180879712104797,0.0011169870849698782,0.00528686074540019
1772733717174587000,1.6475869140625,0.00018291734158992767,0.00032949051819741726,-0.007952777668833733
1772733717184601900,1.657601806640625,-0.000039381906390190125,-0.0014038870576769114,-0.013986828736960888
1772733717194616800,1.667616943359375,0.000706835649907589,0.0005487429443746805,-0.013711191713809967
1772733717204631800,1.6776318359375,-0.000915182288736105,0.0025780072901397943,-0.005043442361056805
1772733717214646500,1.687646484375,0.000934649258852005,0.0026592337526381016,0.001963600516319275
1772733717224661500,1.69766162109375,0.0010641179978847504,0.001077444525435567,0.006535266526043415
1772733717234675700,1.70767578125,-0.0007337820716202259,-0.000024038832634687424,0.006066284142434597
1772733717244690700,1.717690673828125,-0.0005971631035208702,-0.000029589980840682983,0.0037766178138554096
1772733717254705700,1.72770556640625,-0.00037372391670942307,-0.0031670599710196257,0.0038812803104519844
1772733717264720600,1.737720703125,-0.001373474719002843,-0.00031401566229760647,0.0018479564459994435
1772733717274735600,1.747735595703125,-0.0009849194902926683,-0.002303929766640067,0.004321234300732613
1772733717284750600,1.75775048828125,-0.0009701577946543694,-0.0011811659205704927,0.00799034908413887
1772733717294765800,1.767765869140625,-0.0002774694003164768,0.0012345872819423676,0.004723716527223587
1772733717304780800,1.77778076171875,-0.00005425885319709778,-0.0017972916830331087,0.001155962934717536
1772733717314795800,1.787795654296875,-0.001599957700818777,0.0002173897810280323,-0.005757869221270084
1772733717324810800,1.797810791015625,0.0009354101493954659,-0.0005779271014034748,-0.008041325956583023
1772733717334825700,1.80782568359375,-0.0014582392759621143,-0.0007166778668761253,-0.011760963127017021
1772733717344840700,1.8178408203125,0.0003931545652449131,-0.0012128097005188465,-0.005556241609156132
1772733717354855700,1.827855712890625,-0.0005754372105002403,-0.000337961595505476,-0.00017958576790988445
1772733717364871000,1.837870849609375,0.000531299039721489,0.0005338822957128286,0.0037700082175433636
1772733717374884600,1.847884521484375,0.000793886836618185,-0.0008783920202404261,0.004705310799181461
1772733717384899600,1.857899658203125,0.0006984267383813858,0.0017141576390713453,0.0045279329642653465
1772733717394914600,1.86791455078125,0.0013322592712938786,0.00005607353523373604,0.001136130653321743
1772733717404929500,1.877929443359375,0.00044858502224087715,-0.0008738855831325054,-0.0004363774787634611
1772733717414944800,1.88794482421875,0.0006531160324811935,0.002152797067537904,-0.0016901937779039145
1772733717424959700,1.897959716796875,-0.0006850096397101879,-0.00012076715938746929,-0.0012946361675858498
1772733717434974700,1.907974609375,-0.00028926413506269455,-0.0022654107306152582,0.000028954818844795227
1772733717444989700,1.91798974609375,0.0009182929061353207,-0.00025903619825839996,0.001728366012685001
1772733717455004700,1.928004638671875,0.0004072324372828007,-0.0015128522645682096,0.0036652828566730022
1772733717465019600,1.93801953125,0.001162541564553976,0.0015169300604611635,0.005972582846879959
1772733717475034600,1.94803466796875,0.0035181078128516674,-0.0004285089671611786,0.0055382209829986095
1772733717485049600,1.958049560546875,-0.0006831069476902485,-0.0010157269425690174,0.005039776209741831
1772733717495064800,1.96806494140625,-0.00014994200319051743,-0.0014508874155580997,0.003136681392788887
1772733717505079800,1.978079833984375,-0.00004905369132757187,0.0003216201439499855,0.003491252427920699
1772733717515093800,1.98809375,-0.0018179253675043583,0.000011361902579665184,-0.0007823220803402364
1772733717525108500,1.9981083984375,0.0003020274452865124,0.0005876745563000441,-0.007100685499608517
1772733717535123700,2.008123779296875,0.000411483459174633,-0.001128466334193945,-0.009358513168990612
1772733717545138700,2.018138671875,-0.0007638342212885618,-0.0014670772943645716,-0.005181603133678436
1772733717555153400,2.0281533203125,0.00005748448893427849,0.00020325719378888607,-0.0010406540241092443
1772733717565168400,2.03816845703125,0.00047870073467493057,-0.00041139288805425167,0.0029093518387526274
1772733717575183400,2.048183349609375,-0.0005050709005445242,0.001417666207998991,0.003816690994426608
1772733717585198300,2.0581982421875,-0.00023734988644719124,0.0002732090651988983,0.0031197359785437584
1772733717595213300,2.06821337890625,-0.00048129516653716564,0.0005144914612174034,0.0014169110218062997
1772733717605228500,2.078228515625,0.0008972766809165478,-0.0003795986995100975,-0.003207683563232422
1772733717615243500,2.088243408203125,-0.00021778885275125504,-0.0012376690283417702,-0.0017259009182453156
1772733717625258500,2.098258544921875,0.00023816339671611786,0.0016108223935589194,-0.003731647040694952
1772733717635273500,2.1082734375,-0.0010902215726673603,-0.00022169877775013447,-0.003444558009505272
1772733717645288400,2.118288330078125,0.0006787721067667007,0.0002742200158536434,0.000037189689464867115
1772733717655303400,2.128303466796875,-0.0008568065240979195,-0.0011274015996605158,0.003802100196480751
1772733717665317600,2.138317626953125,-0.00008260086178779602,-0.00037234649062156677,0.00538218067958951
1772733717675332600,2.14833251953125,-0.0015571932308375835,-0.00006022397428750992,0.005007740575820208
1772733717685347600,2.15834765625,-0.0005311793647706509,-0.001248205779120326,0.0022425951901823282
1772733717695362300,2.1683623046875,0.0007937434129416943,-0.0006993280258029699,-0.00024506356567144394
1772733717705377300,2.178377197265625,0.0014341394416987896,0.0010210592299699783,-0.0006025640177540481
1772733717715392300,2.188392333984375,0.000017604324966669083,0.0014215987175703049,-0.003838570788502693
1772733717725407500,2.198407470703125,0.0013040509074926376,0.000014972873032093048,-0.003751997370272875
1772733717735422500,2.20842236328125,0.0010270820930600166,-0.0015408459585160017,-0.00015593110583722591
1772733717745437400,2.2184375,-0.0003819982521235943,-0.00006626010872423649,0.005847701337188482
1772733717755452400,2.228452392578125,0.000265682116150856,-0.00035414774902164936,0.006168345920741558
1772733717765467400,2.23846728515625,-0.0014667569193989038,0.000622117891907692,0.0017250023083761334
1772733717775482400,2.248482421875,-0.000019062310457229614,-0.00035153375938534737,-0.0029994454234838486
1772733717785497300,2.258497314453125,0.00025830091908574104,0.0006353473290801048,-0.006987185217440128
1772733717795512300,2.26851220703125,0.00026229582726955414,-0.00013057771138846874,-0.010397895239293575
1772733717805526500,2.278526611328125,-0.00176483322866261,0.00039619533345103264,-0.01281469315290451
1772733717815541500,2.28854150390625,-0.0005416432395577431,-0.00029303086921572685,-0.011261804029345512
1772733717825556500,2.298556396484375,-0.0008200677111744881,-0.0006191604770720005,-0.005438593216240406
1772733717835571500,2.308571533203125,-0.00029755523428320885,-0.0013185064308345318,0.002077113837003708
1772733717845586400,2.31858642578125,0.001130872406065464,-0.0017677380237728357,0.007280454970896244
1772733717855601700,2.3286015625,0.0001196698285639286,0.001640575472265482,0.009281021542847157
1772733717865616400,2.338616455078125,0.0005411873571574688,-0.0015138436574488878,0.011996877379715443
1772733717875631400,2.34863134765625,-0.0004108930006623268,-0.00007733446545898914,0.012139355763792992
1772733717885646300,2.358646240234375,-0.002034920733422041,0.0007408035453408957,0.012624109163880348
1772733717895661300,2.368661376953125,0.0014021550305187702,-0.0007705404423177242,0.00408867746591568
1772733717905676300,2.37867626953125,0.00040867459028959274,0.002486557001248002,-0.007029894273728132
1772733717915691300,2.388691162109375,-0.0023192011285573244,-0.0018136491999030113,-0.01488648634403944
1772733717925706500,2.39870654296875,-0.00038020918145775795,-0.0016426013316959143,-0.013351762667298317
1772733717935721500,2.408721435546875,-0.001829501474276185,-0.001679086359217763,-0.0028850070666521788
1772733717945735400,2.4187353515625,-0.0007495356258004904,-0.0018649962730705738,0.0035894461907446384
1772733717955750400,2.42875048828125,-0.0003500613383948803,-0.0026972340419888496,0.012054303660988808
1772733717965765400,2.438765380859375,0.0003459933213889599,0.0004905315581709146,0.012413453310728073
1772733717975780600,2.448780517578125,0.0013867570087313652,0.0006982581689953804,0.012364983558654785
1772733717985795600,2.458795654296875,-0.0006812098436057568,-0.0012407402973622084,0.009663697332143784
1772733717995810600,2.468810546875,0.00047753145918250084,0.0008527706377208233,0.006207180209457874
1772733718005825500,2.478825439453125,-0.00012228591367602348,-0.0001842244528234005,-0.0012704585678875446
1772733718015840500,2.488840576171875,0.00035069137811660767,-0.0013869081158190966,-0.0035634401720017195
1772733718025855500,2.49885546875,-0.0003425776958465576,-0.0009610597044229507,-0.0055189006961882114
1772733718035870500,2.508870361328125,-0.0014131686184555292,0.000272250035777688,-0.003996371291577816
1772733718045885400,2.518885498046875,-0.000747244106605649,0.0007837112061679363,-0.0011026222491636872
1772733718055900400,2.528900390625,-0.0004372522234916687,0.0018993093399330974,-0.0018166156951338053
1772733718065915400,2.538915283203125,0.0006076674908399582,-0.00174938072450459,-0.0013814072590321302
1772733718075930400,2.548930419921875,-0.00021791225299239159,-0.0009142130147665739,-0.0006381190032698214
1772733718085944300,2.5589443359375,-0.00012792740017175674,-0.0015364817809313536,0.0006222238298505545
1772733718095959600,2.56895947265625,-0.0005881213583052158,-0.0015719018410891294,0.00436210073530674
1772733718105974500,2.578974609375,-0.00035378290340304375,-0.0003938383888453245,0.003882157616317272
1772733718115989500,2.588989501953125,-0.0007138424552977085,0.00012174970470368862,-0.0005536034004762769
1772733718126004500,2.59900439453125,-0.00002024741843342781,0.0008294407743960619,-0.004532396327704191
1772733718136019500,2.60901953125,0.0009648557752370834,0.0002906832378357649,-0.006511923857033253
1772733718146034400,2.619034423828125,0.00011324509978294373,0.0002682311460375786,-0.005582241807132959
1772733718156049400,2.62904931640625,0.0006011365912854671,-0.0014843952376395464,-0.0020466293208301067
1772733718166064400,2.639064453125,-0.0022062379866838455,0.0002451909240335226,0.002729959785938263
1772733718176079600,2.64907958984375,-0.0012032913509756327,0.0008587832562625408,0.00429110461845994
1772733718186094600,2.659094482421875,0.001172457356005907,-0.0012533343397080898,0.004415035247802734
1772733718196109600,2.669109619140625,0.00015007006004452705,-0.0003113741986453533,0.005145274102687836
1772733718206124500,2.67912451171875,0.0012306123971939087,-0.0007357171270996332,0.002256282139569521
1772733718216139500,2.689139404296875,-0.0008746164385229349,-0.000007608672603964806,-0.0001464219531044364
1772733718226153500,2.699153564453125,0.0011065914295613766,0.0019375107949599624,-0.001999933272600174
1772733718236168400,2.70916845703125,-0.0011158164124935865,-0.0005565392784774303,-0.004074269440025091
1772733718246183400,2.719183349609375,-0.00015084538608789444,-0.000048387330025434494,-0.004124939441680908
1772733718256198400,2.729198486328125,-0.00006535835564136505,0.0011295289732515812,-0.004663962870836258
1772733718266213400,2.73921337890625,0.0021142493933439255,0.001641953131183982,-0.004541436675935984
1772733718276228400,2.749228271484375,-0.0012929991353303194,0.0018651260761544108,-0.007335358764976263
1772733718286243300,2.759243408203125,-0.0005587276536971331,-0.0010732358787208796,-0.007516516838222742
1772733718296258600,2.769258544921875,-0.0009382280986756086,-0.0019169251900166273,-0.002520426642149687
1772733718306273500,2.7792734375,-0.001531731802970171,-0.0020032767206430435,0.002891221549361944
1772733718316288500,2.78928857421875,0.0003311494365334511,-0.00262991851195693,0.008723277598619461
1772733718326303500,2.799303466796875,-0.0014357618056237698,-0.0005129557102918625,0.010835767723619938
1772733718336318500,2.809318359375,0.001054027583450079,-0.00007007201202213764,0.007320128381252289
1772733718346333400,2.81933349609375,0.00014569610357284546,-0.0005977931432425976,0.00545420590788126
1772733718356348400,2.829348388671875,0.0006959051825106144,0.00038038589991629124,0.0013920861529186368
1772733718366363600,2.83936376953125,0.0013611605390906334,0.00011975225061178207,-0.0022920051123946905
1772733718376377300,2.84937744140625,-0.0006710975430905819,0.001862524775788188,-0.006880098953843117
1772733718386392300,2.859392333984375,0.0004236963577568531,-0.00015449454076588154,-0.010712492279708385
1772733718396407300,2.8694072265625,-0.001125197857618332,-0.0021694423630833626,-0.009801691398024559
1772733718406422300,2.87942236328125,-0.0005851881578564644,-0.0025354379322379827,-0.0008001233218237758
1772733718416437500,2.8894375,0.00008219992741942406,-0.002141556004062295,0.011322319507598877
1772733718426452500,2.899452392578125,-0.0011608339846134186,0.00018309149891138077,0.019953478127717972
1772733718436467500,2.909467529296875,0.00010656425729393959,0.0005822994280606508,0.01752973534166813
1772733718446482400,2.919482421875,0.0013732416555285454,0.0019919013138860464,0.005892155226320028
1772733718456497400,2.929497314453125,0.0004395376890897751,-0.00028323731385171413,-0.008508355356752872
1772733718466512400,2.939512451171875,-0.0009878035634756088,0.00006637186743319035,-0.018340522423386574
1772733718476527400,2.94952734375,-0.00008632335811853409,-0.00024921284057199955,-0.01383551862090826
1772733718486542300,2.959542236328125,-0.0008848914876580238,0.0004735048860311508,-0.004142985679209232
1772733718496557600,2.9695576171875,0.0004410967230796814,0.0014958924148231745,0.00659780902788043
1772733718506572500,2.979572509765625,-0.0006134787108749151,0.001112607540562749,0.009474879130721092
1772733718516586500,2.98958642578125,-0.00019296538084745407,0.0001232433132827282,0.00744315329939127
1772733718526601500,2.9996015625,-0.0005098425317555666,-0.0007853391580283642,0.004966909997165203
1772733718536616400,3.009616455078125,-0.001578568946570158,0.0021561223547905684,0.0021894993260502815
1772733718546631400,3.01963134765625,-0.0005142001900821924,-0.0010986344423145056,-0.0008549524354748428
1772733718556646000,3.02964599609375,-0.0008431004825979471,0.00014186627231538296,-0.00455754529684782
1772733718566660900,3.039660888671875,0.000009261537343263626,0.0020550680346786976,-0.005142574664205313
1772733718576675800,3.04967578125,-0.0005931456107646227,0.0005381314549595118,-0.004122051876038313
1772733718586690800,3.05969091796875,0.0003393501974642277,-0.0005916471127420664,-0.002002420835196972
1772733718596705800,3.069705810546875,-0.0001245727762579918,-0.0005136162508279085,0.0009366438025608659
1772733718606721000,3.079720947265625,-0.0005393354222178459,-0.0018160112667828798,-0.0006867146003060043
1772733718616735700,3.08973583984375,-0.0005545155145227909,-0.000265518669039011,-0.003937901929020882
1772733718626750700,3.099750732421875,-0.0028068721294403076,-0.0003578073810786009,-0.0056188395246863365
1772733718636765700,3.109765625,0.0011686948128044605,-0.000857949024066329,-0.006237758323550224
1772733718646780700,3.11978076171875,-0.0011292214039713144,0.00006581679917871952,-0.0043080030009150505
1772733718656795000,3.129794921875,0.0009568324312567711,0.0020884876139461994,-0.0003561382181942463
1772733718666809900,3.139809814453125,-0.0019110997673124075,0.0008393609896302223,-0.00017678202129900455
1772733718676824800,3.149824951171875,0.001574711874127388,0.000632965937256813,-0.003645549528300762
1772733718686839800,3.15983984375,-0.002206641947850585,0.00044642435386776924,-0.003684431314468384
1772733718696854800,3.169854736328125,-0.0015624233055859804,-0.0009248373098671436,-0.004484178498387337
1772733718706869800,3.179869873046875,0.000021848361939191818,-0.0013861020561307669,-0.0027533206157386303
1772733718716884700,3.189884765625,0.00039282673969864845,-0.00010299100540578365,-0.002279544249176979
1772733718726900000,3.19989990234375,0.0006259721703827381,-0.001125049777328968,0.0008855528431013227
1772733718736915000,3.2099150390625,-0.0010094752069562674,0.0016220008255913854,0.0020991554483771324
1772733718746930000,3.219929931640625,-0.0007795249111950397,-0.0004316398408263922,-0.0005766728427261114
1772733718756945000,3.22994482421875,-0.00039789406582713127,0.001232303213328123,-0.006381564773619175
1772733718766959900,3.2399599609375,-0.0000441456213593483,-0.00015651760622859,-0.013525119982659817
1772733718776974800,3.249974853515625,-0.001620737137272954,0.00008449866436421871,-0.013345623388886452
1772733718786989800,3.25998974609375,-0.0002770237624645233,0.0006262848619371653,-0.00686732167378068
1772733718797003800,3.270003662109375,0.0003789127804338932,-0.0009974443819373846,0.0036202063784003258
1772733718807018800,3.280018798828125,-0.000397298950701952,0.00160648999735713,0.01236201822757721
1772733718817033700,3.29003369140625,0.000055172014981508255,0.002358566503971815,0.010538284666836262
1772733718827048700,3.300048583984375,0.00038999272510409355,-0.0003132906276732683,0.0035655340179800987
1772733718837063700,3.310063720703125,-0.0002305237576365471,0.0021759660448879004,-0.007400564383715391
1772733718847079000,3.320078857421875,-0.0008863667026162148,0.0019478778121992946,-0.015131643041968346
1772733718857094000,3.330093994140625,0.0000723712146282196,0.0009190987329930067,-0.021216966211795807
1772733718867108900,3.34010888671875,-0.0005189755465835333,0.0002058548852801323,-0.01858323998749256
1772733718877123800,3.350123779296875,-0.0008065968286246061,-0.0008956287056207657,-0.01075834035873413
1772733718887138800,3.360138916015625,0.000020592939108610153,-0.000535063911229372,0.00044418335892260075
1772733718897153800,3.37015380859375,-0.001355462707579136,0.00012220442295074463,0.00891197007149458
1772733718907168800,3.380168701171875,-0.0009953046683222055,0.00001785391941666603,0.010775572620332241
1772733718917184000,3.39018408203125,-0.000059736426919698715,0.0014463735278695822,0.0030358938965946436
1772733718927199000,3.400198974609375,0.0004766341298818588,0.0015328740701079369,-0.00969878863543272
1772733718937212700,3.410212646484375,0.00040792440995574,0.0029632579535245895,-0.01657746732234955
1772733718947227600,3.4202275390625,-0.0005823441315442324,-0.00005444139242172241,-0.019071334972977638
1772733718957242600,3.43024267578125,-0.0004872693680226803,0.0005040233954787254,-0.011360951699316502
1772733718967257900,3.4402578125,-0.0005205771885812283,-0.0006651189178228378,-0.0015401947312057018
1772733718977272800,3.45027294921875,0.0012333807535469532,0.00027923774905502796,0.007663423661142588
1772733718987287800,3.460287841796875,-0.0006635910831391811,0.0007783558685332537,0.01001058705151081
1772733718997302800,3.470302734375,-0.000033220741897821426,-0.0015338005032390356,0.005821967497467995
1772733719007317800,3.48031787109375,-0.000895210076123476,-0.00043863640166819096,-0.003380977548658848
1772733719017332700,3.490332763671875,-0.0002698996104300022,0.00117736984975636,-0.009789075702428818
1772733719027347700,3.50034765625,-0.0007846998050808907,0.0007805675268173218,-0.014420411549508572
1772733719037362700,3.51036279296875,-0.0003745728172361851,0.00021198252215981483,-0.012115445919334888
1772733719047378000,3.5203779296875,-0.00014727003872394562,-0.0008637541905045509,-0.0050067538395524025
1772733719057393000,3.530392822265625,0.00019654398784041405,0.0005418621003627777,0.0029624896124005318
1772733719067408000,3.540407958984375,-0.0016693808138370514,0.0007605717983096838,0.00696845818310976
1772733719077421800,3.550421875,-0.002541033551096916,-0.00013744598254561424,0.00472341338172555
1772733719087436800,3.560436767578125,0.0005711754783987999,0.00012660189531743526,-0.00024702673545107245
1772733719097452000,3.5704521484375,-0.0016285954043269157,-0.0007631599437445402,-0.0062705641612410545
1772733719107466800,3.580466796875,0.0003668372519314289,-0.001079352106899023,-0.008895250037312508
1772733719117481700,3.590481689453125,-0.0012430434580892324,-0.0011667036451399326,-0.009487004019320011
1772733719127496700,3.60049658203125,-0.0003088098019361496,0.0019380926387384534,-0.00580414617434144
1772733719137511700,3.61051171875,0.0007266271859407425,-0.001386597752571106,-0.0030110226944088936
1772733719147526700,3.620526611328125,-0.0001553734764456749,0.0006444579921662807,-0.0008545774617232382
1772733719157541600,3.630541748046875,0.0002579488791525364,0.0012476639822125435,0.0037713334895670414
1772733719167556900,3.640556884765625,0.0004937541671097279,0.000279885483905673,0.001826625782996416
1772733719177571800,3.65057177734375,-0.000004789792001247406,0.00042422860860824585,-0.002938568126410246
1772733719187586800,3.6605869140625,0.00033921515569090843,0.00031047919765114784,-0.003429409582167864
1772733719197601800,3.670601806640625,0.0013858373276889324,0.0010561642702668905,0.0004532129969447851
1772733719207616800,3.68061669921875,0.0016377842985093594,-0.0003494368866086006,0.008454496040940285
1772733719217631000,3.690630859375,0.0011813188903033733,0.0007741507142782211,0.015529981814324856
1772733719227646000,3.70064599609375,0.0013738526031374931,0.00150931510142982,0.012991281226277351
1772733719237661000,3.710660888671875,-0.00009008729830384254,0.00036282441578805447,0.00804525800049305
1772733719247676000,3.720676025390625,0.001996958162635565,-0.00016056140884757042,0.0004519128706306219
1772733719257691000,3.73069091796875,0.0013372935354709625,0.0008200143929570913,-0.005897063296288252
1772733719267705900,3.740705810546875,0.0006187311373651028,-0.0001784912310540676,-0.00897164735943079
1772733719277720800,3.750720947265625,-0.001256666611880064,0.0015943751204758883,-0.00748373894020915
1772733719287735800,3.76073583984375,0.0002382434904575348,-0.0008972876239567995,-0.0036725876852869987
1772733719297750800,3.770750732421875,-0.0014395478647202253,-0.001020858297124505,0.0012627822579815984
1772733719307765800,3.780765869140625,0.000010693911463022232,0.00027460954152047634,0.003272299189120531
1772733719317780700,3.79078076171875,-0.0011784075759351254,0.0007361352909356356,0.007983697578310966
1772733719327795700,3.800795654296875,0.001032667700201273,-0.0024185283109545708,0.005497355479747057
1772733719337810700,3.810810791015625,-0.0011077148374170065,0.0006755322683602571,0.004810792859643698
1772733719347825700,3.82082568359375,0.0022857175208628178,-0.00042672199197113514,0.0016895979642868042
1772733719357840000,3.83083984375,-0.00018569594249129295,-0.00020461436361074448,0.00006799912080168724
1772733719367854800,3.840854736328125,-0.0007715527899563313,0.0006391638889908791,-0.0018175555160269141
1772733719377869800,3.850869873046875,0.0012441938742995262,0.0019582274835556746,-0.0053827292285859585
1772733719387884800,3.860884765625,-0.000046525150537490845,0.0009511804673820734,-0.007051628082990646
1772733719397899800,3.870899658203125,0.0001271129585802555,-0.0014022549148648977,-0.003835860639810562
1772733719407914800,3.880914794921875,-0.0011338191106915474,0.0005318063776940107,0.004567884840071201
1772733719417930000,3.890929931640625,-0.0010118463542312384,0.0004127630963921547,0.011190367862582207
1772733719427945000,3.900945068359375,0.0009513245895504951,0.00023941346444189548,0.012707758694887161
1772733719437960000,3.9109599609375,0.0006567789241671562,0.0014631359372287989,0.010380422696471214
1772733719447975000,3.920974853515625,0.0005911495536565781,0.00033539370633661747,0.0025253240019083023
1772733719457990000,3.930989990234375,-0.0011343127116560936,0.00018279463984072208,-0.005080663599073887
1772733719468004600,3.941004638671875,-0.00006535695865750313,-0.00018169614486396313,-0.005946128163486719
1772733719478019800,3.951019775390625,-0.0011865475680679083,0.00243938690982759,-0.001650715945288539
1772733719488034800,3.961034912109375,-0.0014624535106122494,0.0002570084761828184,0.0011658165603876114
1772733719498048800,3.971048828125,-0.00036975834518671036,0.001199234975501895,0.005581071600317955
1772733719508063700,3.981063720703125,-0.0006390749476850033,-0.0009652734734117985,0.006084828171879053
1772733719518078700,3.99107861328125,0.00061420863494277,-0.0012164092622697353,0.0030181980691850185
1772733719528093700,4.00109375,0.0002164035104215145,0.001112109050154686,0.0027239122427999973
1772733719538109000,4.01110888671875,-0.0002397960051894188,0.00037814187817275524,0.00165971287060529
1772733719548124400,4.02112451171875,0.0014117066748440266,-0.0002495329827070236,-0.0005956972599960864
1772733719558139400,4.031139404296875,-0.0004695504903793335,0.0018777999794110656,-0.0016702827997505665
1772733719568154400,4.041154296875,-0.0006350080948323011,0.0017050080932676792,-0.004421907477080822
1772733719578169300,4.05116943359375,-0.0012821562122553587,0.0003244252875447273,-0.0037590465508401394
1772733719588184000,4.06118408203125,0.000250872690230608,-0.00020515453070402145,0.0005768296541646123
1772733719598199000,4.071198974609375,0.0003621927462518215,0.000013224547728896141,0.008133815601468086
1772733719608214000,4.081214111328125,0.0006453273817896843,-0.000030897557735443115,0.011950621381402016
1772733719618229200,4.091229248046875,-0.001555242808535695,0.0010061373468488455,0.01035006158053875
1772733719628244200,4.101244140625,0.0004670461639761925,-0.0011727542150765657,0.008690276183187962
1772733719638258200,4.111258056640625,0.001644429750740528,0.001548463711515069,0.0028004285413771868
1772733719648273200,4.121273193359375,0.00016260752454400063,0.003308724844828248,0.0002976260147988796
1772733719658288000,4.1312880859375,-0.00032475078478455544,-0.0014492785558104515,0.001969824777916074
1772733719668303400,4.141303466796875,0.00014374125748872757,0.0005031300242990255,0.003421091940253973
1772733719678318300,4.151318359375,-0.0010592085309326649,-0.0005030122119933367,0.0073487223125994205
1772733719688333300,4.161333251953125,0.0017862296663224697,-0.00019792094826698303,0.00813685730099678
1772733719698348300,4.171348388671875,0.001940160058438778,-0.0002583747263997793,0.00717092864215374
1772733719708363300,4.18136328125,-0.0000930926762521267,0.0019130180589854717,0.0028182510286569595
1772733719718378200,4.191378173828125,-0.0007029564585536718,0.0003287035506218672,-0.0030441656708717346
1772733719728393200,4.201393310546875,0.00022371625527739525,0.0015052652452141047,-0.010076438076794147
1772733719738408400,4.211408447265625,0.0003390312194824219,0.00027009123004972935,-0.012728148140013218
1772733719748423400,4.22142333984375,0.0003093867562711239,0.0005276740994304419,-0.011561999097466469
1772733719758438400,4.2314384765625,-0.0007289797067642212,0.0006155583541840315,-0.004084642045199871
1772733719768453000,4.241453125,-0.0009492160752415657,0.0008069218602031469,0.004604412242770195
1772733719778467000,4.251467041015625,-0.0007372284308075905,-0.000662344042211771,0.011665517464280128
1772733719788482300,4.261482421875,-0.0010678793769329786,-0.000393429072573781,0.016004031524062157
1772733719798497300,4.271497314453125,-0.000538709107786417,-0.00029835430905222893,0.011880924925208092
1772733719808512300,4.28151220703125,-0.0004318344872444868,-0.0002707107923924923,0.0061463890597224236
1772733719818527200,4.29152734375,-0.0003447490744292736,0.000590022886171937,-0.0023325830698013306
1772733719828542200,4.301542236328125,0.000027404166758060455,0.0011431409511715174,-0.009449537843465805
1772733719838557200,4.31155712890625,0.0003392603248357773,0.0006392707582563162,-0.012372889555990696
1772733719848572200,4.321572265625,0.0010464461520314217,-0.0003749674651771784,-0.010937074199318886
1772733719858587400,4.33158740234375,0.0006224708631634712,-0.0002769632264971733,-0.008293886668980122
1772733719868602400,4.341602294921875,-0.0011176473926752806,-0.0017753408756107092,-0.0026463521644473076
1772733719878617300,4.351617431640625,0.0001401635818183422,-0.00023044133558869362,0.005497328005731106
1772733719888632300,4.36163232421875,0.0011793291196227074,-0.00032285298220813274,0.009248124435544014
1772733719898647300,4.371647216796875,0.0007987632416188717,-0.0008213964756578207,0.011875865049660206
1772733719908662300,4.381662353515625,0.0009227856062352657,0.0006121350452303886,0.008335108868777752
1772733719918676200,4.39167626953125,-0.00000479305163025856,0.0012345158029347658,0.0022231540642678738
1772733719928691200,4.401691162109375,-0.00008374126628041267,-0.000007566763088107109,-0.004750765860080719
1772733719938706200,4.4117060546875,0.00002624746412038803,-0.0010222310665994883,-0.010599866509437561
1772733719948721200,4.42172119140625,0.0011305278167128563,-0.0016787780914455652,-0.008676527068018913
1772733719958736100,4.431736083984375,0.00042665470391511917,0.0008048857562243938,-0.005327335558831692
1772733719968751000,4.441751220703125,-0.0018692677840590477,-0.001458598766475916,-0.002788516227155924
1772733719978766000,4.45176611328125,0.00007697055116295815,0.0003970919642597437,0.0025039836764335632
1772733719988781300,4.46178125,0.0014520920813083649,0.0005796621553599834,0.009702017530798912
1772733719998796300,4.47179638671875,0.00030426960438489914,0.0004137472715228796,0.00593018252402544
1772733720008811300,4.481811279296875,0.00044724950566887856,-0.0005262116901576519,0.0030647399835288525
1772733720018826200,4.491826171875,0.001380154862999916,0.0017563835717737675,0.000043117557652294636
1772733720028841200,4.50184130859375,-0.0007372640538960695,-0.0011218332219868898,-0.0027852284256368876
1772733720038856200,4.511856201171875,0.0009927256032824516,0.0003809886984527111,-0.007141627371311188
1772733720048871200,4.52187109375,-0.0007832362316548824,-0.00009946548379957676,-0.006138815078884363
1772733720058885400,4.531885498046875,0.001804291270673275,-0.0003676458727568388,-0.0029230481013655663
1772733720068900400,4.541900390625,0.0007651466876268387,0.00034083309583365917,0.0004376580473035574
1772733720078915000,4.5519150390625,0.00009988900274038315,-0.00044479966163635254,0.0010917303152382374
1772733720088930000,4.561929931640625,-0.0009462833404541016,0.00014754082076251507,0.00004852144047617912
1772733720098945000,4.571945068359375,-0.00011431192979216576,-0.0005400872323662043,0.0006930064409971237
1772733720108960300,4.581960205078125,0.0007385467179119587,0.0005024755373597145,0.0010985640110448003
1772733720118975200,4.591975341796875,0.000634683296084404,-0.0005060634575784206,0.002263963222503662
1772733720128990200,4.601990234375,-0.00028455350548028946,0.000585523433983326,0.0038711242377758026
1772733720139005200,4.612005126953125,-0.0013056094758212566,0.00009683333337306976,0.0026631143409758806
1772733720149020200,4.622020263671875,0.000019692350178956985,0.0007712291553616524,0.0013953940942883492
1772733720159035100,4.63203515625,-0.0019393290858715773,-0.0006450398359447718,-0.0035671403165906668
1772733720169050000,4.642050048828125,0.0009279018267989159,-0.00290896138176322,-0.006172518245875835
1772733720179065300,4.6520654296875,-0.0005765177775174379,0.0017315970035269856,-0.0039980472065508366
1772733720189080300,4.662080322265625,-0.00019086524844169617,-0.0013556084595620632,-0.0022272481583058834
1772733720199094300,4.67209423828125,0.0001601395197212696,-0.000352662056684494,-0.0015617243479937315
1772733720209109200,4.682109130859375,-0.00006522377952933311,-0.00017525022849440575,0.00038213166408240795
1772733720219124200,4.692124267578125,0.0002698022872209549,-0.00023969868198037148,0.0032226592302322388
1772733720229139500,4.702139404296875,-0.0023058224469423294,0.0007388733793050051,0.003959247842431068
1772733720239154400,4.712154541015625,-0.0004067220725119114,0.00028800033032894135,0.0014345712261274457
1772733720249169200,4.722169189453125,0.0007450622506439686,0.0008121815044432878,-0.005042606964707375
1772733720259184000,4.73218408203125,0.001144536305218935,0.0005384087562561035,-0.006238100118935108
1772733720269199000,4.74219921875,0.0002924306318163872,0.0007614032365381718,-0.0014347964897751808
1772733720279214000,4.752214111328125,-0.0017613992094993591,0.0010415676515549421,0.003289385000243783
1772733720289229000,4.76222900390625,-0.00072858901694417,0.00034866947680711746,0.008523985743522644
1772733720299244300,4.772244384765625,-0.0005690655671060085,-0.000022575026378035545,0.00783609040081501
1772733720309259300,4.78225927734375,-0.0004300700966268778,-0.0008643579203635454,0.0039901044219732285
1772733720319274200,4.792274169921875,0.0015105754137039185,0.002114121336489916,-0.00562630407512188
1772733720329289200,4.802289306640625,0.0000033224932849407196,0.0003125057555735111,-0.010684214532375336
1772733720339303200,4.81230322265625,0.0008531375788152218,0.00021423515863716602,-0.012821667827665806
1772733720349318100,4.822318115234375,-0.000516129657626152,-0.0010780254378914833,-0.009560571052134037
1772733720359333400,4.83233349609375,-0.0009968304075300694,0.0005004301201552153,-0.002891216427087784
1772733720369348400,4.842348388671875,0.0005956417880952358,-0.0006840729620307684,0.005527442786842585
1772733720379363300,4.85236328125,-0.000052304938435554504,-0.001870244974270463,0.014711087569594383
1772733720389378300,4.86237841796875,-0.000539242522791028,-0.0021868410985916853,0.017263425514101982
1772733720399393300,4.872393310546875,0.0009140446782112122,-0.0015487477649003267,0.015045810490846634
1772733720409408300,4.882408203125,-0.0026549668982625008,0.0005571106448769569,0.007647935301065445
1772733720419423200,4.89242333984375,0.0003546713851392269,-0.001335598062723875,-0.0023687463253736496
1772733720429438200,4.902438232421875,0.00009344425052404404,-0.000370801892131567,-0.006922114174813032
1772733720439453200,4.912453125,-0.0007513104937970638,0.0014569254126399755,-0.013256176374852657
1772733720449468200,4.92246826171875,0.0011203479953110218,0.00006093946285545826,-0.01341630145907402
1772733720459483100,4.932483154296875,-0.0004506506957113743,-0.002352949697524309,-0.006559194065630436
1772733720469498000,4.942498046875,-0.0012158984318375587,-0.0006430973298847675,0.005147143267095089
1772733720479512300,4.95251220703125,-0.00033332686871290207,-0.00029821787029504776,0.017537234351038933
1772733720489527300,4.96252734375,0.0009520766325294971,-0.0007011124398559332,0.020142415538430214
1772733720499542300,4.972542236328125,0.0008716490119695663,0.0003116875886917114,0.010827477090060711
1772733720509557200,4.98255712890625,-0.0019483664073050022,0.00006232620216906071,-0.0012429995695129037
1772733720519572200,4.992572265625,-0.0016652725171297789,0.0010104114189743996,-0.011005881242454052
1772733720529587200,5.002587158203125,-0.00025892164558172226,-0.00058567407540977,-0.01249916572123766
1772733720539602200,5.012602294921875,-0.0002642478793859482,-0.002494361950084567,-0.009854646399617195
1772733720549617400,5.022617431640625,-0.0002517765387892723,-0.0010027452372014523,0.0036899037659168243
1772733720559632400,5.03263232421875,0.0009458470158278942,-0.000525773037225008,0.013031739741563797
1772733720569647000,5.042647216796875,-0.0005204614717513323,-0.0021288285497576,0.015993820503354073
1772733720579662000,5.052662109375,0.00016290554776787758,-0.0010995168704539537,0.015022031962871552
1772733720589677000,5.062677001953125,0.0004484988749027252,0.001615951769053936,0.0057470547035336494
1772733720599692000,5.072692138671875,0.0007353215478360653,0.0009357803501188755,-0.0011329554254189134
1772733720609707000,5.08270703125,0.00238986499607563,-0.0004365365020930767,-0.005509495735168457
1772733720619721200,5.09272119140625,0.0004553445614874363,0.0009347251616418362,-0.004282843787223101
1772733720629736200,5.102736083984375,-0.0009400637354701757,-0.0017362574581056833,-0.002609915565699339
1772733720639751200,5.112751220703125,-0.0009698912035673857,-0.002318690763786435,0.0018029423663392663
1772733720649766100,5.12276611328125,0.00008044997230172157,-0.00207502325065434,0.007778332568705082
1772733720659781000,5.132781005859375,0.0007425118237733841,-0.0015586365479975939,0.013650336302816868
1772733720669796400,5.14279638671875,0.0001291520893573761,0.0013555458281189203,0.01631384901702404
1772733720679811300,5.152811279296875,0.0005560568533837795,0.0011451561003923416,0.01384243369102478
1772733720689826300,5.162826416015625,0.00010696286335587502,-0.000403351616114378,0.00574926333501935
1772733720699841300,5.17284130859375,-0.0008448509033769369,-0.000954892486333847,-0.005646402947604656
1772733720709856300,5.182856201171875,0.0014269016683101654,-0.001162586733698845,-0.010877097025513649
1772733720719871200,5.192871337890625,0.00012115389108657837,-0.0014113257639110088,-0.007703407667577267
1772733720729886200,5.20288623046875,-0.0005281246267259121,-0.0007082512602210045,-0.0002502852585166693
1772733720739901200,5.212901123046875,-0.0007166764698922634,-0.0004453975707292557,0.006482718512415886
1772733720749916200,5.222916259765625,0.0007298383861780167,-0.00018217205069959164,0.009149237535893917
1772733720759930000,5.23293017578125,0.0016411719843745232,0.0008484714198857546,0.009269611909985542
1772733720769945000,5.242945068359375,-0.0018790678586810827,0.0014374474994838238,0.005722553934901953
1772733720779960000,5.2529599609375,-0.0011232628021389246,0.00006032688543200493,-0.000008568749763071537
1772733720789975000,5.26297509765625,-0.00033751362934708595,-0.0008782781660556793,-0.005280191078782082
1772733720799990300,5.272990234375,0.0022111316211521626,0.00013585388660430908,-0.005427729804068804
1772733720810005200,5.283005126953125,0.0010817176662385464,-0.0027134742122143507,-0.002268512500450015
1772733720820020200,5.293020263671875,0.0006417636759579182,0.000692176166921854,0.004005628637969494
1772733720830035200,5.30303515625,-0.00008626747876405716,-0.0013930881395936012,0.00939203891903162
1772733720840050200,5.31305029296875,0.0013880585320293903,-0.0005944059230387211,0.011640812270343304
1772733720850065200,5.323065185546875,0.00041315052658319473,-0.0012188439723104239,0.010000978596508503
1772733720860080000,5.333080078125,-0.00004837522283196449,0.00033564306795597076,0.009582862257957458
1772733720870095400,5.343095458984375,0.00005237013101577759,0.00021259579807519913,0.005393877625465393
1772733720880110300,5.3531103515625,-0.0004954419564455748,0.0008211282547563314,-0.00005921092815697193
1772733720890125300,5.363125244140625,-0.0007219265680760145,0.001351736020296812,-0.0069795395247638226
1772733720900139000,5.373138916015625,-0.0010785236954689026,-0.0021407336462289095,-0.012847281992435455
1772733720910154000,5.383154052734375,0.000279461033642292,-0.0008404499385505915,-0.015020604245364666
1772733720920169200,5.393169189453125,-0.0017490687314420938,0.0011760953348129988,-0.013423506170511246
1772733720930184200,5.40318408203125,0.0003323052078485489,-0.0014077674131840467,-0.008879929780960083
1772733720940199200,5.41319921875,-0.0005659789312630892,0.00010357657447457314,0.0014187805354595184
1772733720950214100,5.423214111328125,-0.00040946202352643013,-0.0013731378130614758,0.012174321338534355
1772733720960229000,5.43322900390625,0.0016989624127745628,0.0008178451098501682,0.01594509184360504
1772733720970244000,5.443244140625,0.00009635230526328087,0.0003773067146539688,0.016494549810886383
1772733720980259000,5.453259033203125,0.0002066073939204216,-0.00003548315726220608,0.009722131304442883
1772733720990274300,5.4632744140625,-0.0008281078189611435,-0.0011178236454725266,0.0041632940992712975
1772733721000289300,5.473289306640625,0.0008712555281817913,-0.0008824001997709274,-0.001032799482345581
1772733721010304300,5.48330419921875,-0.0017237321007996798,-0.001269274391233921,-0.005325575824826956
1772733721020319200,5.4933193359375,-0.0008904288988560438,-0.0011803247034549713,-0.006355952937155962
1772733721030333200,5.503333251953125,-0.001581632299348712,-0.00030065933242440224,-0.004463322460651398
1772733721040348400,5.513348388671875,0.0011774026788771152,-0.0009206430986523628,-0.0023863231763243675
1772733721050363400,5.52336328125,0.0005905264988541603,-0.00026050093583762646,0.003570951521396637
1772733721060378000,5.533378173828125,-0.00022866157814860344,0.0010162184480577707,0.0074098980985581875
1772733721070393000,5.54339306640625,-0.0004501568619161844,-0.00037229107692837715,0.008094771765172482
1772733721080408000,5.553407958984375,-0.0004333790857344866,-0.0016420860774815083,0.006227896083146334
1772733721090423000,5.563423095703125,0.0006441241130232811,0.0006232666783034801,0.0033796243369579315
1772733721100438000,5.57343798828125,-0.0008491100743412971,0.0012688171118497849,-0.0005714415456168354
1772733721110453200,5.583453369140625,-0.0008176241535693407,0.00044736568816006184,-0.0023199531715363264
1772733721120468200,5.59346826171875,0.0013443301431834698,0.0001786528155207634,-0.00487765297293663
1772733721130483200,5.603483154296875,-0.001569434069097042,0.0013248438481241465,-0.008856848813593388
1772733721140498200,5.613498291015625,-0.00011428305879235268,-0.000060532474890351295,-0.007644311524927616
1772733721150513200,5.62351318359375,-0.0015347481239587069,-0.0003605170641094446,-0.007163427770137787
1772733721160528100,5.633528076171875,-0.0007041082717478275,0.000819529639557004,-0.0034376652911305428
1772733721170543000,5.643543212890625,0.0004194830544292927,-0.0011763025540858507,-0.001619781251065433
1772733721180557300,5.653557373046875,-0.0007629601750522852,-0.00044233561493456364,-0.00017421739175915718
1772733721190572300,5.663572265625,0.001718367449939251,-0.0006832857616245747,-0.0023673726245760918
1772733721200587300,5.673587158203125,0.000626205001026392,0.001234190072864294,-0.008834326639771461
1772733721210602200,5.683602294921875,-0.0005852298345416784,0.0010916150640696287,-0.01571466587483883
1772733721220617200,5.6936171875,-0.00009574089199304581,0.0018756496720016003,-0.020065471529960632
1772733721230632200,5.703632080078125,0.0002530571073293686,0.0018047771882265806,-0.01985643431544304
1772733721240647200,5.713647216796875,0.00020298967137932777,0.0005618799477815628,-0.017288347706198692
1772733721250662100,5.723662109375,0.00010339263826608658,0.00020825467072427273,-0.009002049453556538
1772733721260677000,5.733677001953125,-0.0018396498635411263,-0.0002399554941803217,0.00003938283771276474
1772733721270692000,5.743692138671875,-0.0010104426182806492,-0.00027643865905702114,0.007577053736895323
1772733721280707000,5.75370703125,0.0005240710452198982,-0.0009787140879780054,0.012477269396185875
1772733721290722000,5.76372216796875,-0.0006023163441568613,-0.002341093961149454,0.01026307512074709
1772733721300737000,5.773737060546875,-0.0010417378507554531,-0.0027986252680420876,0.005372446961700916
1772733721310751200,5.783751220703125,0.0002612601965665817,0.0010490224231034517,0.0001892696600407362
1772733721320766200,5.79376611328125,-0.00026711076498031616,-0.0003129180986434221,-0.004475523252040148
1772733721330781200,5.80378125,-0.00040425918996334076,0.00230547902174294,-0.009104594588279724
1772733721340796200,5.813796142578125,0.0008327793329954147,0.001124367117881775,-0.01203247532248497
1772733721350811100,5.82381103515625,-0.0012493054382503033,0.0016738185659050941,-0.013314422219991684
1772733721360826400,5.833826416015625,0.0010431436821818352,0.0002263905480504036,-0.01199269574135542
1772733721370841300,5.84384130859375,-0.0013084139209240675,-0.00007847882807254791,-0.006639798171818256
1772733721380856300,5.853856201171875,-0.0001869569532573223,-0.001974117010831833,-0.004602213390171528
1772733721390871300,5.863871337890625,-0.0008868614677339792,-0.0015757798682898283,0.0007836585864424706
1772733721400886300,5.87388623046875,-0.001332141924649477,-0.0008676454890519381,0.004668678157031536
1772733721410901000,5.88390087890625,0.0012653544545173645,-0.0004294209647923708,0.0071640885435044765
1772733721420916000,5.893916015625,0.001136191189289093,-0.0010320940054953098,0.006895109545439482
1772733721430931200,5.90393115234375,0.0007507409900426865,0.000238876324146986,0.002672807080671191
1772733721440946200,5.9139462890625,0.0008002757094800472,0.0027193445712327957,-0.002105436520650983
1772733721450960100,5.923960205078125,0.0007342849858105183,0.001999400556087494,-0.010976776480674744
1772733721460975000,5.93397509765625,0.00009485986083745956,-0.0020062599796801805,-0.017437338829040527
1772733721470990000,5.943989990234375,-0.0013767934869974852,0.000617616344243288,-0.02018633857369423
1772733721481005300,5.95400537109375,-0.0008665318600833416,0.0002836559433490038,-0.015375870279967785
1772733721491020300,5.964020263671875,-0.0007901920471340418,0.0005669083911925554,-0.009515156969428062
1772733721501035300,5.97403515625,-0.00040962640196084976,0.0002270890399813652,-0.003392282873392105
1772733721511050200,5.98405029296875,0.0009254622273147106,0.0017221225425601006,0.003859891090542078
1772733721521065200,5.994065185546875,-0.00008600624278187752,0.0008882868569344282,0.003069997299462557
1772733721531080200,6.004080078125,0.0024363212287425995,-0.0005977391265332699,0.0022884076461195946
1772733721541095200,6.01409521484375,0.0011444217525422573,0.0015660790959373116,-0.0026182003784924746
1772733721551110400,6.0241103515625,0.0003448938950896263,-0.00008360599167644978,-0.005201585590839386
1772733721561125600,6.034125732421875,-0.0004804197233170271,-0.0003083767369389534,-0.0037360480055212975
1772733721571140600,6.044140625,-0.001257660100236535,0.0006727539002895355,0.0007506563561037183
1772733721581155600,6.054155517578125,-0.0002187611535191536,-0.0008220782037824392,0.00033866544254124165
1772733721591169300,6.064169189453125,0.0004443512298166752,0.00037899985909461975,-0.00001310231164097786
1772733721601184300,6.074184326171875,-0.00019853608682751656,0.0003177470061928034,-0.001485830289311707
1772733721611199500,6.084199462890625,0.0005772886797785759,0.0021513020619750023,-0.005763873923569918
1772733721621214500,6.09421435546875,-0.00009942054748535156,0.000335026066750288,-0.0050016772001981735
1772733721631229400,6.1042294921875,-0.0008115370292216539,0.0001744020264595747,-0.002699769800528884
1772733721641244400,6.114244384765625,0.001210601069033146,-0.0002333279699087143,0.0007133373292163014
1772733721651259400,6.12425927734375,0.00039607565850019455,-0.0008678592275828123,0.004808963742107153
1772733721661274400,6.1342744140625,-0.00011605024337768555,-0.00016851304098963737,0.0035373042337596416
1772733721671289300,6.144289306640625,0.0016329260542988777,0.00036874227225780487,0.00031542766373604536
1772733721681304600,6.1543046875,-0.00017749052494764328,-0.00022833840921521187,-0.005615165922790766
1772733721691319600,6.164319580078125,-0.0004752357490360737,0.0010879191104322672,-0.008348503150045872
1772733721701334500,6.17433447265625,0.0008704592473804951,0.0029534632340073586,-0.009101378731429577
1772733721711349500,6.184349609375,-0.0020442327950149775,0.00098764942958951,-0.007963620126247406
1772733721721364500,6.194364501953125,0.000683643389493227,-0.0002579109277576208,-0.0031584780663251877
1772733721731378400,6.20437841796875,-0.0006287519354373217,0.0023800870403647423,-0.0007907525287009776
1772733721741393400,6.214393310546875,0.0019166972488164902,-0.0014545982703566551,0.0021142237819731236
1772733721751408400,6.224408447265625,0.0006860396824777126,4.561152309179306e-7,-0.0021069422364234924
1772733721761423400,6.23442333984375,-0.001272715162485838,-0.0010373778641223907,-0.005144810304045677
1772733721771438300,6.244438232421875,-0.000392877496778965,-0.002553938888013363,-0.005298321135342121
1772733721781453300,6.254453369140625,0.00036132941022515297,0.00004024640657007694,-0.0031707221642136574
1772733721791468300,6.26446826171875,0.0017645442858338356,0.000039798207581043243,0.0024048443883657455
1772733721801483500,6.2744833984375,0.001727792900055647,-0.00167234824039042,0.007611590903252363
1772733721811498500,6.28449853515625,-0.00008486304432153702,0.0011622996535152197,0.007182092405855656
1772733721821513500,6.294513427734375,0.00040542474016547203,-0.0005850002635270357,0.0068667735904455185
1772733721831528400,6.304528564453125,0.0014076819643378258,-0.00041644275188446045,0.005324614234268665
1772733721841543400,6.31454345703125,-0.00011830916628241539,-0.00010911398567259312,-0.0016776348929852247
1772733721851558400,6.324558349609375,0.0001758546568453312,0.0003088824450969696,-0.0047754086554050446
1772733721861573400,6.334573486328125,0.0002664020285010338,0.000735254492610693,-0.0056270877830684185
1772733721871587600,6.344587646484375,0.00048044417053461075,0.0014153532683849335,-0.007045095320791006
1772733721881602600,6.3546025390625,0.00004448462277650833,-0.00041397218592464924,-0.006587564013898373
1772733721891617500,6.364617431640625,-0.00018484843894839287,-0.0010054060257971287,-0.0020842154044657946
1772733721901632500,6.374632568359375,0.0010593803599476814,-0.0001478681806474924,0.001775770098902285
1772733721911647200,6.384647216796875,0.0019591855816543102,-0.000023264205083251,0.006665579043328762
1772733721921662200,6.394662109375,-0.0004318002611398697,0.0010795507114380598,0.007204869296401739
1772733721931677400,6.404677490234375,-0.00021551642566919327,0.0021432030480355024,0.008431430906057358
1772733721941692400,6.4146923828125,-0.0017159415874630213,-0.0011913408525288105,0.007004510145634413
1772733721951707400,6.424707275390625,0.0008479622192680836,-0.00039856741204857826,0.005456728395074606
1772733721961722400,6.434722412109375,-0.0020487578585743904,0.001021163770928979,0.003895050846040249
1772733721971737300,6.4447373046875,-0.0004726252518594265,0.00010568322613835335,0.001396999810822308
1772733721981752300,6.45475244140625,0.0024185022339224815,0.001002635806798935,-0.002643548185005784
1772733721991767300,6.464767333984375,-0.0011064154095947742,-0.0009624655358493328,-0.003048770362511277
1772733722001781500,6.474781494140625,0.0009343652054667473,0.0005430195014923811,-0.0038013795856386423
1772733722011796500,6.48479638671875,0.00034531019628047943,-0.00010848534293472767,-0.0011454722844064236
1772733722021811500,6.4948115234375,-0.00017187558114528656,0.0009818128310143948,0.004858624190092087
1772733722031826400,6.504826416015625,0.0009417426772415638,0.0008165370672941208,0.005048402585089207
1772733722041841400,6.51484130859375,-0.0005938361864537001,0.000614669406786561,0.004875297658145428
1772733722051856600,6.524856689453125,0.0007019476033747196,0.0014077795203775167,-0.000934732030145824
1772733722061871600,6.53487158203125,-0.0016845108475536108,-0.0006662900559604168,-0.007235238328576088
1772733722071886600,6.544886474609375,-0.00045568798668682575,-0.0004150271415710449,-0.006779220886528492
1772733722081901600,6.554901611328125,-0.001167284557595849,-0.00018679420463740826,-0.003046001773327589
1772733722091916300,6.564916259765625,0.000409719068557024,-0.0012146239168941975,0.0019636843353509903
1772733722101931300,6.57493115234375,-0.0020182847511023283,0.0002114987000823021,0.003726696828380227
1772733722111946200,6.5849462890625,-0.0007419816683977842,-0.0014134026132524014,0.0043611666187644005
1772733722121961500,6.59496142578125,-0.001226410735398531,-0.0011276453733444214,0.0075803957879543304
1772733722131976400,6.6049765625,-0.00045215291902422905,-0.00005835411138832569,0.003701522946357727
1772733722141990400,6.614990478515625,0.00083495257422328,-0.0008245457429438829,-0.0018905827309936285
1772733722152005400,6.62500537109375,-0.000294459518045187,0.0013043314684182405,-0.005877011921256781
1772733722162020400,6.635020263671875,-0.00036023976281285286,0.00013174163177609444,-0.008637645281851292
1772733722172035300,6.645035400390625,0.0009677279740571976,-0.00009100441820919514,-0.006911545060575008
1772733722182050600,6.655050537109375,-0.0014011540915817022,0.0007031501736491919,0.0005002982215955853
1772733722192065500,6.6650654296875,-0.0007766794878989458,-0.0009575013536959887,0.007291688118129969
1772733722202080500,6.67508056640625,-0.0007782774046063423,0.0009059126023203135,0.012486450374126434
1772733722212095500,6.685095458984375,0.0007032845169305801,-0.0010402421467006207,0.01592668704688549
1772733722222110500,6.6951103515625,-0.0004533266182988882,0.001248744549229741,0.009836038574576378
1772733722232125400,6.70512548828125,0.001406317576766014,0.00029360875487327576,0.0012507210485637188
1772733722242140400,6.715140380859375,-0.00019078003242611885,0.0013303773012012243,-0.008330000564455986
1772733722252155600,6.72515576171875,0.0006070206873118877,0.0007445351220667362,-0.010330350138247013
1772733722262170600,6.735170654296875,0.0002879737876355648,0.0008926067966967821,-0.005685264244675636
1772733722272185300,6.745185302734375,0.0013733305968344212,-0.0014705648645758629,0.005261378828436136
1772733722282199300,6.75519921875,-0.0021052903030067682,-0.0002021011896431446,0.01254991814494133
1772733722292214300,6.76521435546875,-0.0006121690385043621,-0.0004909907002002001,0.015103131532669067
1772733722302229500,6.7752294921875,-0.002370388014242053,-0.0009581090416759253,0.008702491410076618
1772733722312244500,6.785244384765625,-0.00205355160869658,-0.0009437163826078176,0.0011882138205692172
1772733722322259500,6.795259521484375,0.00026526255533099174,0.00048719998449087143,-0.004952769260853529
1772733722332274400,6.8052744140625,-0.0003094119019806385,-0.001471343683078885,-0.00829071830958128
1772733722342289400,6.815289306640625,-0.0010433790739625692,0.0016927579417824745,-0.005087734665721655
1772733722352304400,6.825304443359375,-0.0018215903546661139,0.00016043009236454964,-0.0007122179958969355
1772733722362319400,6.8353193359375,0.00005993293598294258,0.002458738163113594,0.001514184637926519
1772733722372334600,6.84533447265625,-0.0011260125320404768,-0.001123261172324419,0.00033908814657479525
1772733722382349600,6.855349609375,0.0016758991405367851,0.001568129169754684,0.0009646646212786436
1772733722392364500,6.865364501953125,0.0000951266847550869,-0.0004517028573900461,0.0008836322231218219
1772733722402379500,6.875379638671875,0.0016280421987175941,0.000018344959244132042,-0.0023606307804584503
1772733722412393200,6.885393310546875,-0.0003667823038995266,0.0006027489434927702,-0.0006331431795842946
1772733722422408400,6.895408447265625,-0.0006781057454645634,-0.0008771696593612432,0.004706228151917458
1772733722432423400,6.90542333984375,-0.00149933947250247,0.0012019046116620302,0.005340376868844032
1772733722442438400,6.9154384765625,-0.0002151629887521267,0.00011746538802981377,0.004145949147641659
1772733722452453400,6.925453369140625,-0.001229856163263321,-0.0017458999063819647,0.003562130033969879
1772733722462468400,6.93546826171875,0.0000492599792778492,0.0010634686332195997,-0.000466700061224401
1772733722472483300,6.9454833984375,0.0004924279637634754,-0.0008871755562722683,-0.002028378890827298
1772733722482498300,6.955498291015625,-0.0003866814076900482,-0.0003129979595541954,-0.0019125314429402351
1772733722492513500,6.965513427734375,-0.0010859405156224966,-0.0032793646678328514,-0.0028799811843782663
1772733722502528500,6.975528564453125,0.0008720154874026775,-0.00008623464964330196,0.0007618915988132358
1772733722512543500,6.98554345703125,0.000515869352966547,0.0003332262858748436,0.0014578730333596468
1772733722522558500,6.995558349609375,0.0004687313921749592,-0.001632452942430973,0.004526100587099791
1772733722532573400,7.005573486328125,0.0005765492096543312,0.0008204570040106773,0.0059587969444692135
1772733722542588400,7.01558837890625,-0.00038511818274855614,-0.0008647912181913853,0.0070634763687849045
1772733722552603000,7.025602783203125,0.001374505925923586,-0.000331818126142025,0.0062393685802817345
1772733722562617900,7.035617919921875,0.0000783456489443779,-0.001786703011021018,0.003591920016333461
1772733722572632800,7.0456328125,0.0002280152402818203,0.0003281133249402046,0.0013346245978027582
1772733722582647800,7.055647705078125,-0.0013488424010574818,0.002087930217385292,-0.004334978759288788
1772733722592662500,7.06566259765625,0.0004934496246278286,0.001453891396522522,-0.008861658163368702
1772733722602677500,7.075677490234375,0.00024018296971917152,0.0026584393344819546,-0.009190825745463371
1772733722612692500,7.0856923828125,-0.0004413551650941372,-0.000021801097318530083,-0.007184827700257301
1772733722622707700,7.095707763671875,0.00012403400614857674,-0.00027826358564198017,-0.00006273598410189152
1772733722632722700,7.10572265625,0.0008215592242777348,0.0000746874138712883,0.008764437399804592
1772733722642737700,7.115737548828125,-0.0008735426235944033,-0.0012619532644748688,0.013078225776553154
1772733722652752600,7.125752685546875,-0.0011103290598839521,0.002670238260179758,0.012954174540936947
1772733722662767600,7.135767578125,-0.0005771641153842211,0.0005679388996213675,0.010227097198367119
1772733722672782600,7.145782470703125,-0.00006057554855942726,0.0013018713798373938,0.0053742751479148865
1772733722682797600,7.155797607421875,0.0007229265756905079,0.0018912289524450898,-0.0035680867731571198
1772733722692811800,7.165811767578125,-0.0009360967669636011,-0.0011517638340592384,-0.010533283464610577
1772733722702826800,7.17582666015625,-0.0004101223312318325,-0.0016939835622906685,-0.0147671764716506
1772733722712841700,7.185841796875,-0.0009735326748341322,-0.0007256821263581514,-0.012483599595725536
1772733722722856700,7.195856689453125,0.00012528756633400917,-0.0005437883082777262,-0.005746600683778524
1772733722732871700,7.20587158203125,-0.0006926832720637321,0.0021014451049268246,-0.00008045940194278955
1772733722742886700,7.21588671875,-0.0006380884442478418,-0.0013795727863907814,0.004579806234687567
1772733722752902000,7.22590185546875,0.0005395873449742794,-0.00008568051271140575,0.00848851352930069
1772733722762916900,7.235916748046875,0.0008357306942343712,-0.0034239531960338354,0.012258483096957207
1772733722772931600,7.245931640625,-0.0008675814606249332,0.0015565284993499517,0.011745510622859001
1772733722782946600,7.255946533203125,0.0021479157730937004,0.0007716948166489601,0.0026582726277410984
1772733722792961500,7.26596142578125,0.00047693727537989616,0.00023154704831540585,-0.007624739781022072
1772733722802976500,7.2759765625,0.0016327491030097008,-0.0015269385185092688,-0.014860548079013824
1772733722812991700,7.28599169921875,-0.00009685894474387169,-0.003652449930086732,-0.008947223424911499
1772733722823006700,7.2960068359375,-0.0011253717821091413,0.00022271554917097092,0.003258842509239912
1772733722833020700,7.306020751953125,0.000770260114222765,-0.0018333734478801489,0.012666809372603893
1772733722843035600,7.31603564453125,0.0007140673696994781,0.0020242156460881233,0.013803446665406227
1772733722853050600,7.326050537109375,0.000291396863758564,-0.0008854223415255547,0.008465133607387543
1772733722863065600,7.336065673828125,0.00020830612629652023,0.0026230260264128447,-0.00031424302142113447
1772733722873080800,7.346080810546875,0.00023756502196192741,0.004080542363226414,-0.010416391305625439
1772733722883095800,7.356095703125,0.0004442264325916767,0.0004738233983516693,-0.01857924647629261
1772733722893110800,7.36611083984375,0.0005812300369143486,0.0002109056804329157,-0.01703043468296528
1772733722903125800,7.376125732421875,-0.0012899069115519524,0.0005909388419240713,-0.005632904823869467
1772733722913140700,7.386140625,-0.0006942311301827431,-0.00002322392538189888,0.004817992448806763
1772733722923155700,7.39615576171875,-0.00017038732767105103,0.002391464076936245,0.007787683513015509
1772733722933170700,7.406170654296875,-0.00017796503379940987,0.0004641555715352297,0.004570233169943094
1772733722943186000,7.41618603515625,0.0006263097748160362,0.00006255088374018669,-0.0037721190601587296
1772733722953200600,7.42620068359375,-0.0010169153101742268,0.0004017776809632778,-0.008125470019876957
1772733722963214600,7.436214599609375,0.0003918968141078949,0.002042284933850169,-0.008994192816317081
1772733722973229600,7.4462294921875,0.0003786724992096424,0.001877093454822898,-0.01105025876313448
1772733722983244500,7.45624462890625,0.0008657644502818584,0.002248604316264391,-0.013923808932304382
1772733722993259800,7.466259765625,0.00214900029823184,0.004599257837980986,-0.013257388956844807
1772733723003274800,7.476274658203125,0.0003436431288719177,0.0008687018416821957,-0.01848677173256874
1772733723013289700,7.486289794921875,0.00029271794483065605,-0.0028039077296853065,-0.01636088825762272
1772733723023304700,7.4963046875,-0.0004292649682611227,-0.0007383599877357483,-0.0049692178145051
1772733723033319700,7.506319580078125,0.00036456575617194176,0.0033112613018602133,0.0036160144954919815
1772733723043334700,7.516334716796875,0.0014119870029389858,-0.001252331305295229,0.0075447093695402145
1772733723053349600,7.526349609375,-0.0011005112901329994,-0.0012149931862950325,0.006789796520024538
1772733723063364900,7.53636474609375,0.0008435961790382862,-0.0002591845113784075,0.004435562528669834
1772733723073379800,7.5463798828125,-0.0007583368569612503,0.0007751376833766699,0.0028786417096853256
1772733723083394800,7.556394775390625,-0.0006052050739526749,-0.0027013528160750866,-0.0032405033707618713
1772733723093409800,7.566409912109375,-0.0006916355341672897,-0.0009611696004867554,-0.0016536589246243238
1772733723103423500,7.576423583984375,-0.0005638038273900747,-0.00010869186371564865,0.0014928658492863178
1772733723113438700,7.586438720703125,-0.0008448844309896231,0.001781195285730064,0.0022988992277532816
1772733723123453700,7.59645361328125,0.0014478308148682117,0.004941035993397236,-0.0026340740732848644
1772733723133468700,7.60646875,0.0005467762239277363,-0.002608208218589425,-0.010686217807233334
1772733723143483600,7.616483642578125,0.0007465132512152195,-0.0005373342428356409,-0.010496600531041622
1772733723153498600,7.62649853515625,0.00043616723269224167,-0.0012415621895343065,-0.0001001087948679924
1772733723163513600,7.636513671875,0.0001248437911272049,-0.002513221697881818,0.014589355327188969
1772733723173528600,7.646528564453125,-0.0006179965566843748,0.00006631226278841496,0.02621615305542946
1772733723183543800,7.656543701171875,-0.002159700496122241,-0.003943342715501785,0.031611185520887375
1772733723193558800,7.666558837890625,0.0004237974062561989,0.00031223823316395283,0.025177456438541412
1772733723203573800,7.67657373046875,0.0020877402275800705,-0.001329866936430335,0.01321959774941206
1772733723213588700,7.686588623046875,0.0004495140165090561,0.000975476810708642,-0.0033921003341674805
1772733723223603700,7.696603759765625,0.0012111780233681202,-0.0004378629382699728,-0.014947555959224701
1772733723233618700,7.70661865234375,0.0018926048651337624,0.0018915717955678701,-0.0186736062169075
1772733723243633000,7.7166328125,0.002094739116728306,0.0038284887559711933,-0.017683442682027817
1772733723253648000,7.72664794921875,0.0000510592944920063,0.001792573370039463,-0.011691877618432045
1772733723263662600,7.73666259765625,-0.00013482896611094475,0.003296992974355817,-0.004857406951487064
1772733723273677600,7.746677490234375,0.0010036961175501347,-0.000036736251786351204,0.0005831224843859673
1772733723283692500,7.756692626953125,-0.0022096741013228893,-0.005624047946184874,0.006063109263777733
1772733723293707500,7.76670751953125,-0.0008615630213171244,-0.007947638630867004,0.016913292929530144
1772733723303722500,7.776722412109375,-0.0018117788713425398,-0.0038793939165771008,0.030891425907611847
1772733723313737700,7.78673779296875,-0.001278463751077652,-0.0006436384283006191,0.035132862627506256
1772733723323752700,7.796752685546875,0.0003138403408229351,0.0008314864244312048,0.02589808776974678
1772733723333767700,7.806767578125,0.001128566451370716,0.02339358441531658,0.04270746931433678
1772733723343782700,7.81678271484375,0.0020526833832263947,-0.003049474209547043,0.07616982609033585
1772733723353797600,7.826797607421875,-0.0001353914849460125,-0.00953223742544651,0.07369781285524368
1772733723363812600,7.8368125,0.0006864597089588642,0.004249888006597757,0.06088215112686157
1772733723373826800,7.846826904296875,0.00012156041339039803,0.01465680357068777,0.05544820800423622
1772733723383841800,7.856841796875,0.0006653778254985809,0.005418830551207066,0.05718618631362915
1772733723393856800,7.866856689453125,-0.0006927554495632648,0.00201259832829237,0.06506732851266861
1772733723403871700,7.876871826171875,0.0005786377005279064,-0.00030808011069893837,0.06800719350576401
1772733723413886700,7.88688671875,-0.0011890565510839224,-0.000994932372123003,0.05875411629676819
1772733723423901700,7.896901611328125,-0.0021288860589265823,-0.0061721173115074635,0.040136758238077164
1772733723433917000,7.9069169921875,-0.001222536200657487,-0.013838260434567928,0.013088647276163101
1772733723443931600,7.916931640625,-0.0003735204227268696,-0.014369294978678226,-0.013859879225492477
1772733723453946600,7.926946533203125,-0.001423932844772935,-0.013898121193051338,-0.03845919668674469
1772733723463961600,7.936961669921875,-0.0005791783332824707,-0.01360996626317501,-0.06385776400566101
1772733723473976600,7.9469765625,0.0023073325864970684,-0.01139917690306902,-0.09513864666223526
1772733723483991600,7.956991455078125,-0.0001923106610774994,0.007298877462744713,-0.10314224660396576
1772733723494006500,7.967006591796875,-0.0027295779436826706,-0.007837805896997452,-0.07042331993579865
