time,seconds_elapsed,z,y,x
1772785721323675000,0.0546748046875,0.47676628828048706,-0.5063173174858093,1.1043827533721924
1772785721333691000,0.06469091796875,0.4866516590118408,-0.14121153950691223,0.7920450568199158
1772785721343707000,0.074706787109375,0.4752781391143799,0.16796934604644775,0.4177091419696808
1772785721353723000,0.084722900390625,0.4253089427947998,0.43176504969596863,0.02913956344127655
1772785721363737900,0.09473779296875,0.3809765875339508,0.6926395893096924,-0.31439208984375
1772785721373753900,0.10475390625,0.4100644290447235,1.0463086366653442,-0.5622285008430481
1772785721383769900,0.114769775390625,0.5232723951339722,1.3672877550125122,-0.691864013671875
1772785721393785900,0.124785888671875,0.6644638776779175,1.4636681079864502,-0.7363449335098267
1772785721403801900,0.1348017578125,0.9165130853652954,1.5541483163833618,-0.8762833476066589
1772785721413817900,0.14481787109375,1.1884958744049072,1.579295039176941,-0.960265040397644
1772785721423833900,0.154833740234375,1.3969684839248657,1.4479018449783325,-0.986065149307251
1772785721433849900,0.164849853515625,1.5347293615341187,1.2422810792922974,-0.9846339821815491
1772785721443865900,0.174865966796875,1.671652913093567,1.122713327407837,-0.8857669830322266
1772785721453881900,0.1848818359375,1.7354047298431396,1.058214545249939,-0.6772785186767578
1772785721463897900,0.19489794921875,1.5853315591812134,0.9307109713554382,-0.38253054022789
1772785721473913900,0.204913818359375,1.2853325605392456,0.6844490170478821,-0.03552144020795822
1772785721483929900,0.214929931640625,1.1014316082000732,0.19633769989013672,0.26057010889053345
1772785721493945900,0.22494580078125,1.0949561595916748,-0.24277974665164948,0.4969845116138458
1772785721503960800,0.2349609375,1.1045812368392944,-0.4043271243572235,0.6705620288848877
1772785721513976800,0.244976806640625,1.0614057779312134,-0.42337512969970703,0.7517484426498413
1772785721523992800,0.254992919921875,0.9509948492050171,-0.3752653896808624,0.7472677230834961
1772785721534009000,0.265009033203125,0.8968573212623596,-0.296398788690567,0.6277466416358948
1772785721544024800,0.27502490234375,0.9384801387786865,-0.2876471281051636,0.43608278036117554
1772785721554040800,0.285040771484375,0.9430751800537109,-0.08449453860521317,0.2730634808540344
1772785721564056800,0.295056884765625,0.8723146319389343,0.16171804070472717,0.17594197392463684
1772785721574072800,0.30507275390625,0.756217360496521,0.31775185465812683,0.04441803693771362
1772785721584088800,0.3150888671875,0.7433558106422424,0.34625008702278137,-0.08654168993234634
1772785721594104800,0.325104736328125,0.7389357686042786,0.44339606165885925,-0.10945632308721542
1772785721604121000,0.33512109375,0.7686716318130493,0.27802085876464844,-0.14774224162101746
1772785721614136800,0.34513671875,0.8588793277740479,-0.213889479637146,-0.26116281747817993
1772785721624152800,0.35515283203125,0.8741967678070068,-0.7408397793769836,-0.19068971276283264
1772785721634167800,0.365167724609375,0.7435860633850098,-0.9675858616828918,0.09097659587860107
1772785721644183800,0.375183837890625,0.5890547037124634,-1.0722739696502686,0.34250128269195557
1772785721654199800,0.38519970703125,0.5259287357330322,-1.1250029802322388,0.47397246956825256
1772785721664215800,0.3952158203125,0.49258142709732056,-1.0225626230239868,0.4500298500061035
1772785721674231800,0.405231689453125,0.4779331684112549,-0.9285521507263184,0.15386059880256653
1772785721684248000,0.415248046875,0.5323674082756042,-0.8495680689811707,-0.19560426473617554
1772785721694263800,0.425263916015625,0.5652278661727905,-0.6828216910362244,-0.4249088168144226
1772785721704279800,0.43527978515625,0.6214057803153992,-0.5502951741218567,-0.46758967638015747
1772785721714295800,0.4452958984375,0.6033572554588318,-0.480631947517395,-0.3104357421398163
1772785721724311800,0.455311767578125,0.5577554702758789,-0.7414854764938354,-0.20684346556663513
1772785721734327800,0.465327880859375,0.355119526386261,-1.0231573581695557,-0.21548143029212952
1772785721744343800,0.47534375,-0.1106756329536438,-0.7374679446220398,-0.31888914108276367
1772785721754360000,0.485360107421875,-0.7407744526863098,-0.06908509135246277,-0.6754624247550964
1772785721764375800,0.495375732421875,-1.1995855569839478,0.5563427209854126,-1.072377324104309
1772785721774391000,0.50539111328125,-1.3449674844741821,0.9301634430885315,-1.2747889757156372
1772785721784406800,0.51540673828125,-1.1328856945037842,0.7219655513763428,-1.3677061796188354
1772785721794422800,0.5254228515625,-0.7211474180221558,0.127387136220932,-1.3757271766662598
1772785721804438800,0.535438720703125,-0.23903179168701172,-0.2968326807022095,-1.195421814918518
1772785721814454800,0.545454833984375,0.20970232784748077,-0.4384441375732422,-0.802553117275238
1772785721824470800,0.555470703125,0.3925456702709198,-0.44568681716918945,-0.31963884830474854
1772785721834487000,0.565487060546875,0.441652774810791,-0.017445724457502365,-0.02631855010986328
1772785721844503000,0.5755029296875,0.5413874387741089,0.7339820861816406,-0.2065134048461914
1772785721854518800,0.585518798828125,0.6105318665504456,1.5072312355041504,-0.6280491352081299
1772785721864534800,0.59553466796875,0.5760518312454224,1.893787145614624,-1.0483486652374268
1772785721874550800,0.60555078125,0.45564019680023193,2.0025784969329834,-1.4016292095184326
1772785721884566800,0.61556689453125,0.23501034080982208,2.2274460792541504,-1.706138253211975
1772785721894582800,0.625582763671875,-0.15123483538627625,2.4833691120147705,-1.9309513568878174
1772785721904597800,0.63559765625,-0.5218856930732727,2.6847739219665527,-1.7001105546951294
1772785721914614000,0.645614013671875,-0.8433800935745239,2.631730556488037,-0.9970730543136597
1772785721924630000,0.655630126953125,-1.0546735525131226,2.3578696250915527,-0.20944945514202118
1772785721934646000,0.66564599609375,-1.1017539501190186,1.9371585845947266,0.2274130880832672
1772785721944661800,0.675661865234375,-1.0654298067092896,1.7249289751052856,0.2565734386444092
1772785721954677800,0.685677734375,-1.0016415119171143,1.541046380996704,0.1694404035806656
1772785721964693800,0.69569384765625,-0.776608407497406,1.2234129905700684,0.41811829805374146
1772785721974709800,0.705709716796875,-0.5246827006340027,0.794949471950531,0.89312344789505
1772785721984726000,0.71572607421875,-0.325044721364975,0.3760744035243988,1.2985109090805054
1772785721994742000,0.725741943359375,-0.04807596281170845,0.065549835562706,1.4462755918502808
1772785722004757800,0.7357578125,0.32467764616012573,-0.362692654132843,1.311411738395691
1772785722014773800,0.745773681640625,0.49698764085769653,-0.883175790309906,1.0999623537063599
1772785722024789800,0.755789794921875,0.6162440776824951,-1.3170897960662842,0.937282919883728
1772785722034805800,0.7658056640625,0.6565691232681274,-1.5617961883544922,0.8500167727470398
1772785722044820700,0.77582080078125,0.5920314192771912,-1.265499234199524,1.0062572956085205
1772785722054836700,0.785836669921875,0.4605642259120941,-0.9523254036903381,1.230523943901062
1772785722064853000,0.79585302734375,0.22594992816448212,-1.040951132774353,1.2102528810501099
1772785722074869000,0.805868896484375,-0.07339203357696533,-1.3824692964553833,0.9289035201072693
1772785722084885000,0.815885009765625,-0.3686125576496124,-1.7276211977005005,0.41626930236816406
1772785722094900700,0.825900634765625,-0.6211537718772888,-1.8844683170318604,-0.24157674610614777
1772785722104916700,0.835916748046875,-0.8524504899978638,-1.7386173009872437,-0.8581132292747498
1772785722114932700,0.8459326171875,-0.9472377300262451,-1.4498616456985474,-1.2340178489685059
1772785722124948700,0.85594873046875,-0.8467755317687988,-1.1103291511535645,-1.2090463638305664
1772785722134964700,0.86596484375,-0.7074543833732605,-0.6242903470993042,-0.8019845485687256
1772785722144980700,0.875980712890625,-0.4450426697731018,-0.44221511483192444,-0.3041188716888428
1772785722154996700,0.885996826171875,-0.2389659434556961,-0.4755136966705322,0.19021201133728027
1772785722165012500,0.896012451171875,-0.1404658854007721,-0.5451621413230896,0.5655394792556763
1772785722175027700,0.90602783203125,-0.13171420991420746,-0.6114814877510071,0.7864692211151123
1772785722185043700,0.916043701171875,-0.14677827060222626,-0.6645514369010925,0.8285157084465027
1772785722195059700,0.926059814453125,-0.12134535610675812,-0.8282192349433899,0.7311657071113586
1772785722205075700,0.93607568359375,-0.10935500264167786,-0.6843701601028442,0.771493136882782
1772785722215091700,0.946091796875,-0.023279773071408272,-0.822696328163147,0.7899904251098633
1772785722225107700,0.956107666015625,-0.008305982686579227,-0.7954298257827759,1.0200308561325073
1772785722235123700,0.966123779296875,-0.05313577502965927,-0.829107403755188,1.0638843774795532
1772785722245139700,0.9761396484375,0.017954057082533836,-0.6858805418014526,0.895132303237915
1772785722255155700,0.98615576171875,0.23267008364200592,-0.2481633871793747,0.473433256149292
1772785722265171700,0.996171630859375,0.5155320167541504,0.7415359020233154,-0.06893346458673477
1772785722275187700,1.006187744140625,0.6266321539878845,2.238396167755127,-0.45137110352516174
1772785722285203700,1.01620361328125,0.25236430764198303,3.3950703144073486,-0.6696872711181641
1772785722295219700,1.0262197265625,-0.04520348086953163,3.314784526824951,-0.8388060331344604
1772785722305234700,1.036234619140625,0.016513796523213387,2.2367494106292725,-1.1896451711654663
1772785722315250700,1.046250732421875,0.42122772336006165,0.6895768046379089,-1.5578469038009644
1772785722325266700,1.0562666015625,0.7704049944877625,0.0724777951836586,-1.6992589235305786
1772785722335282700,1.06628271484375,0.7550023794174194,1.0195749998092651,-1.9871208667755127
1772785722345298700,1.076298583984375,0.7062403559684753,1.5492242574691772,-1.7435542345046997
1772785722355314700,1.086314697265625,0.6413511037826538,0.6284314393997192,-0.756047248840332
1772785722365330700,1.09633056640625,0.6275144815444946,-0.17887069284915924,0.28320080041885376
1772785722375346700,1.1063466796875,0.7432698607444763,-0.7293524742126465,0.930850088596344
1772785722385362700,1.11636279296875,0.8617658019065857,-1.354028344154358,1.1275197267532349
1772785722395378700,1.126378662109375,0.9713809490203857,-2.110236406326294,0.8927697539329529
1772785722405394700,1.136394775390625,0.9148591160774231,-2.3828225135803223,0.4551886022090912
1772785722415410700,1.14641064453125,0.5427383184432983,-1.7839207649230957,0.09157868474721909
1772785722425426700,1.1564267578125,-0.08477159589529037,-0.4944270849227905,-0.34911975264549255
1772785722435441700,1.166441650390625,-0.7458917498588562,0.6733219623565674,-0.7052879333496094
1772785722445457700,1.176457763671875,-1.28035569190979,1.3099247217178345,-0.8479723334312439
1772785722455473700,1.1864736328125,-1.528425931930542,1.3847116231918335,-0.8477196097373962
1772785722465489700,1.19648974609375,-1.6860593557357788,1.0207104682922363,-0.6143797039985657
1772785722475505700,1.206505615234375,-2.0625922679901123,0.6671878099441528,-0.2650051712989807
1772785722485522000,1.21652197265625,-2.606628656387329,-0.052549704909324646,-0.18683399260044098
1772785722495537700,1.22653759765625,-2.937035322189331,-1.3094557523727417,-0.5829454064369202
1772785722505553700,1.2365537109375,-2.438586711883545,-1.1534514427185059,-0.9668492674827576
1772785722515569700,1.246569580078125,-1.461227297782898,-0.47730904817581177,-0.8367761969566345
1772785722525585700,1.256585693359375,-0.5725770592689514,0.03057742677628994,-0.12138312309980392
1772785722535601700,1.2666015625,-0.03793925791978836,0.12341389060020447,0.7554203271865845
1772785722545617700,1.27661767578125,0.10992082208395004,0.002167878905311227,1.3425620794296265
1772785722555633700,1.286633544921875,0.020806126296520233,0.049300502985715866,1.4541893005371094
1772785722565649000,1.29664892578125,-0.08308262377977371,0.1499176323413849,1.1987916231155396
1772785722575664600,1.30666455078125,-0.07504946738481522,0.17066419124603271,0.8841159343719482
1772785722585680600,1.3166806640625,-0.03693703934550285,0.1510469764471054,0.5639616847038269
1772785722595696600,1.326696533203125,0.11040207743644714,0.5692625641822815,0.17102718353271484
1772785722605712600,1.336712646484375,0.453813761472702,1.4897141456604004,-0.15967172384262085
1772785722615728600,1.346728759765625,0.7826001644134521,2.122652769088745,-0.3364403545856476
1772785722625744600,1.35674462890625,0.8119346499443054,2.2618560791015625,-0.1255451738834381
1772785722635761000,1.366760986328125,0.6626258492469788,2.224400043487549,0.4622642993927002
1772785722645776600,1.376776611328125,0.5092937350273132,1.8810582160949707,0.8688824772834778
1772785722655792600,1.386792724609375,0.40918177366256714,1.3121923208236694,0.8667029738426208
1772785722665808600,1.39680859375,0.29947561025619507,0.6130919456481934,0.623640775680542
1772785722675824600,1.40682470703125,0.33228468894958496,-0.22531509399414062,0.1486561894416809
1772785722685840600,1.416840576171875,0.360420823097229,-0.8523942828178406,-0.25604429841041565
1772785722695857000,1.42685693359375,0.38124778866767883,-1.3014471530914307,-0.45698004961013794
1772785722705871600,1.43687158203125,0.4546489119529724,-1.7020543813705444,-0.5151786804199219
1772785722715887900,1.446887939453125,0.551142692565918,-2.00430965423584,-0.41793251037597656
1772785722725904000,1.45690380859375,0.6572813391685486,-2.0897176265716553,-0.2719504237174988
1772785722735919600,1.466919677734375,0.715304434299469,-1.9926691055297852,-0.13868293166160583
1772785722745935600,1.476935546875,0.6676197648048401,-1.8613669872283936,-0.019520055502653122
1772785722755951600,1.48695166015625,0.5332515239715576,-1.6757843494415283,0.11634163558483124
1772785722765967600,1.496967529296875,0.38286471366882324,-1.4658963680267334,0.20976482331752777
1772785722775983900,1.50698388671875,0.24504294991493225,-1.177060842514038,0.22755473852157593
1772785722786000000,1.516999755859375,0.1056724339723587,-0.8095077872276306,0.2236102670431137
1772785722796015600,1.527015625,-0.06261324882507324,-0.4782097637653351,0.21841657161712646
1772785722806031600,1.537031494140625,-0.24481521546840668,-0.13361284136772156,0.24281932413578033
1772785722816047600,1.547047607421875,-0.43331456184387207,0.10684796422719955,0.2619536221027374
1772785722826063600,1.557063720703125,-0.6198387145996094,0.20091402530670166,0.2731228470802307
1772785722836078600,1.56707861328125,-0.7784017324447632,0.2038285881280899,0.22404134273529053
1772785722846094600,1.577094482421875,-0.8491876125335693,0.2509540021419525,0.12344419956207275
1772785722856110800,1.58711083984375,-0.8511589169502258,0.24738430976867676,0.027605818584561348
1772785722866126800,1.597126953125,-0.8451349139213562,-0.025744827464222908,-0.03891817480325699
1772785722876142800,1.607142822265625,-0.729122519493103,-0.4983416795730591,-0.07692121714353561
1772785722886158600,1.61715869140625,-0.4530230164527893,-1.1631516218185425,-0.11129490286111832
1772785722896174600,1.627174560546875,-0.20115642249584198,-1.8033697605133057,-0.15269534289836884
1772785722906190600,1.637190673828125,-0.058824632316827774,-2.2721128463745117,-0.1999250203371048
1772785722916206600,1.64720654296875,-0.04790594056248665,-2.604548692703247,-0.3949754536151886
1772785722926222800,1.657222900390625,0.0025077108293771744,-2.7581915855407715,-0.7182630896568298
1772785722936238800,1.66723876953125,0.21089686453342438,-2.9551174640655518,-1.0954060554504395
1772785722946254800,1.6772548828125,0.6882163882255554,-2.355804443359375,-1.5628505945205688
1772785722956270600,1.6872705078125,1.5409680604934692,-1.2966046333312988,-1.8700387477874756
1772785722966285800,1.697285888671875,1.9287738800048828,-0.927650511264801,-1.5993157625198364
1772785722976301600,1.707301513671875,1.2565659284591675,0.5505133271217346,-1.8128788471221924
1772785722986317600,1.717317626953125,0.5256268382072449,1.8266710042953491,-1.796883463859558
1772785722996333600,1.72733349609375,-0.0900169089436531,1.837231159210205,-1.12129807472229
1772785723006349800,1.737349853515625,-0.42673686146736145,1.2014957666397095,-0.264089435338974
1772785723016365800,1.74736572265625,-0.35425707697868347,0.7824697494506836,0.1711944043636322
1772785723026381800,1.7573818359375,0.019944557920098305,0.2953464388847351,0.06811081618070602
1772785723036397600,1.7673974609375,0.261434942483902,0.5242618918418884,-0.5662975907325745
1772785723046413600,1.77741357421875,0.12031423300504684,1.221518874168396,-1.2241710424423218
1772785723056429600,1.7874296875,-0.20474214851856232,1.399285912513733,-1.4395798444747925
1772785723066445600,1.797445556640625,-0.5180937647819519,1.4479737281799316,-1.2983150482177734
1772785723076461800,1.8074619140625,-1.0524811744689941,1.905218243598938,-1.0048238039016724
1772785723086477800,1.817477783203125,-1.83136785030365,2.696115732192993,-0.7959040403366089
1772785723096493800,1.827493896484375,-2.6277339458465576,3.210618495941162,-0.6245248317718506
1772785723106509600,1.837509521484375,-3.187203884124756,2.97426700592041,-0.3812278211116791
1772785723116525600,1.847525634765625,-3.2888317108154297,1.9341099262237549,0.003908947575837374
1772785723126541600,1.85754150390625,-2.8324406147003174,0.7585991024971008,0.39261066913604736
1772785723136557600,1.8675576171875,-2.094416379928589,0.13821549713611603,0.8281022310256958
1772785723146573800,1.87757373046875,-1.3386385440826416,0.16853216290473938,1.1964917182922363
1772785723156589800,1.88758984375,-0.712716817855835,0.7646322846412659,1.4627350568771362
1772785723166605800,1.897605712890625,-0.38603559136390686,1.380523681640625,1.6399805545806885
1772785723176621600,1.90762158203125,-0.30401182174682617,1.6404311656951904,1.9802364110946655
1772785723186637600,1.917637451171875,-0.07739634811878204,1.3280186653137207,2.4689078330993652
1772785723196653600,1.927653564453125,0.27003034949302673,1.0477938652038574,2.6638951301574707
1772785723206669800,1.937669921875,0.6504267454147339,0.8971668481826782,2.437126636505127
1772785723216685800,1.947685791015625,0.9900370240211487,0.7899484634399414,1.892076015472412
1772785723226700800,1.95770068359375,1.2380456924438477,0.5775697827339172,1.2412453889846802
1772785723236716800,1.967716796875,1.2742681503295898,0.345327228307724,0.8110828995704651
1772785723246732800,1.97773291015625,1.1602264642715454,0.350676029920578,0.7842202186584473
1772785723256748800,1.987748779296875,0.9292752742767334,0.23977985978126526,0.7886919379234314
1772785723266764500,1.9977646484375,0.6922683119773865,0.01840272918343544,0.6609563827514648
1772785723276780500,2.007780517578125,0.554661214351654,-0.3134622871875763,0.4148528575897217
1772785723286796800,2.017796875,0.5239261388778687,-0.6802685856819153,0.09609271585941315
1772785723296812800,2.027812744140625,0.5100851655006409,-1.009145736694336,-0.222100168466568
1772785723306828800,2.037828857421875,0.4691581428050995,-1.1575208902359009,-0.5022344589233398
1772785723316844800,2.0478447265625,0.3952924311161041,-1.2185763120651245,-0.6816335320472717
1772785723326860500,2.057860595703125,0.2774008810520172,-1.4334088563919067,-0.6607258319854736
1772785723336876500,2.06787646484375,0.16317255795001984,-1.6355254650115967,-0.5439347624778748
1772785723346892500,2.077892578125,0.06243247911334038,-1.6989598274230957,-0.4394870400428772
1772785723356907500,2.087907470703125,-0.05114228278398514,-1.6631922721862793,-0.3631957173347473
1772785723366923800,2.097923828125,-0.19759710133075714,-1.5919334888458252,-0.3058008849620819
1772785723376939800,2.107939697265625,-0.3569263219833374,-1.502801537513733,-0.2470254749059677
1772785723386955800,2.117955810546875,-0.5062283873558044,-1.287211298942566,-0.21120212972164154
1772785723396971800,2.1279716796875,-0.6099286675453186,-0.9884111881256104,-0.21842436492443085
1772785723406987800,2.13798779296875,-0.6780266761779785,-0.718574583530426,-0.22133000195026398
1772785723417003500,2.14800341796875,-0.779167652130127,-0.473741352558136,-0.11684354394674301
1772785723427019500,2.15801953125,-0.9008669853210449,-0.26209601759910583,0.0661262720823288
1772785723437035800,2.168035888671875,-0.9463210105895996,-0.14666743576526642,0.23149073123931885
1772785723447051800,2.1780517578125,-0.866479754447937,-0.18332135677337646,0.29905712604522705
1772785723457067800,2.18806787109375,-0.6819317936897278,-0.42775559425354004,0.25773125886917114
1772785723467083800,2.198083740234375,-0.459316223859787,-0.8973203301429749,0.20341698825359344
1772785723477099800,2.208099853515625,-0.27235671877861023,-1.435654640197754,0.23337195813655853
1772785723487114800,2.21811474609375,-0.07121654599905014,-1.8047783374786377,0.302929162979126
1772785723497130800,2.228130859375,0.13576459884643555,-1.8861887454986572,0.27495184540748596
1772785723507146500,2.238146484375,0.37224575877189636,-1.8649252653121948,0.03469475731253624
1772785723517162800,2.248162841796875,0.45826879143714905,-2.125643491744995,-0.3496912717819214
1772785723527178800,2.2581787109375,0.25660523772239685,-2.794192314147949,-0.812275230884552
1772785723537194800,2.26819482421875,0.049593452364206314,-2.530323028564453,-1.4903086423873901
1772785723547210800,2.278210693359375,0.3254833519458771,-1.6083827018737793,-2.09295392036438
1772785723557226800,2.288226806640625,0.8540412187576294,-0.29958227276802063,-2.5219383239746094
1772785723567242500,2.298242431640625,1.2935699224472046,0.8142635226249695,-2.781294107437134
1772785723577258500,2.308258544921875,1.2262084484100342,2.311166763305664,-3.0750319957733154
1772785723587274800,2.318274658203125,0.8407188653945923,3.4788055419921875,-3.1450300216674805
1772785723597290800,2.328290771484375,0.4454767405986786,3.025679349899292,-2.2823822498321533
1772785723607306800,2.338306640625,0.130127415060997,1.9439195394515991,-0.9510390162467957
1772785723617321700,2.34832177734375,0.20844724774360657,1.1681052446365356,0.006588469259440899
1772785723627337700,2.358337646484375,0.4941452443599701,0.8210760951042175,0.18313968181610107
1772785723637353700,2.368353759765625,0.684806227684021,0.5753113627433777,-0.094737209379673
1772785723647369700,2.37836962890625,0.6232055425643921,0.389114648103714,-0.3735702335834503
1772785723657385500,2.388385498046875,0.4337599277496338,0.5664252638816833,-0.5409536361694336
1772785723667401700,2.398401611328125,0.08520340919494629,0.9001646637916565,-0.5688164830207825
1772785723677417700,2.408417724609375,-0.45307549834251404,1.5243566036224365,-0.5142999887466431
1772785723687433700,2.418433837890625,-1.160857081413269,2.447420358657837,-0.45671916007995605
1772785723697449700,2.42844970703125,-1.9263657331466675,3.3518595695495605,-0.2463427484035492
1772785723707465700,2.4384658203125,-2.5657217502593994,3.418274164199829,0.21733003854751587
1772785723717481700,2.448481689453125,-2.8434910774230957,3.038923740386963,0.9112308025360107
1772785723727497500,2.45849755859375,-2.6771271228790283,2.688270330429077,1.5388203859329224
1772785723737513700,2.468513671875,-2.17680287361145,2.6967434883117676,1.8584407567977905
1772785723747528700,2.47852880859375,-1.5508147478103638,2.698514461517334,1.9375008344650269
1772785723757544700,2.488544677734375,-0.9443509578704834,2.291954755783081,2.061246156692505
1772785723767560700,2.498560791015625,-0.3521532416343689,1.4288008213043213,2.327719211578369
1772785723777576700,2.50857666015625,0.1659756600856781,0.7034878730773926,2.7081387042999268
1772785723787592700,2.5185927734375,0.5893031358718872,0.3256966769695282,3.1251041889190674
1772785723797608700,2.528608642578125,0.8999643325805664,0.33879169821739197,3.4343631267547607
1772785723807624700,2.538624755859375,1.062949538230896,0.511063814163208,3.5019936561584473
1772785723817640700,2.548640625,1.147444248199463,0.6554468274116516,3.2313339710235596
1772785723827656700,2.55865673828125,1.2166872024536133,0.6277374029159546,2.6162004470825195
1772785723837672700,2.568672607421875,1.2791393995285034,0.48179590702056885,1.83212149143219
1772785723847688700,2.578688720703125,1.2725768089294434,0.32737672328948975,0.9400440454483032
1772785723857704700,2.58870458984375,1.3071770668029785,0.2188744843006134,0.23531144857406616
1772785723867720700,2.598720703125,1.3810878992080688,0.04881039261817932,-0.11227364838123322
1772785723877735700,2.608735595703125,1.4903340339660645,-0.20966483652591705,-0.16190378367900848
1772785723887751700,2.618751708984375,1.560320496559143,-0.5741367936134338,0.002176308538764715
1772785723897767700,2.628767578125,1.6219583749771118,-1.094775676727295,0.18577010929584503
1772785723907783700,2.63878369140625,1.7046021223068237,-1.4852129220962524,0.2563561499118805
1772785723917799700,2.648799560546875,1.7383400201797485,-1.7022895812988281,0.2254437804222107
1772785723927815700,2.658815673828125,1.6627370119094849,-1.8795284032821655,0.15581369400024414
1772785723937831700,2.668831787109375,1.4955896139144897,-2.012873888015747,0.0881723165512085
1772785723947847700,2.67884765625,1.2860665321350098,-1.9843229055404663,0.005263523198664188
1772785723957863700,2.68886376953125,1.0604791641235352,-1.8184233903884888,-0.15785722434520721
1772785723967879700,2.698879638671875,0.8380577564239502,-1.5035443305969238,-0.3606031835079193
1772785723977895700,2.708895751953125,0.632685661315918,-0.9649962186813354,-0.5485203862190247
1772785723987911700,2.71891162109375,0.46000877022743225,-0.37984079122543335,-0.7505601048469543
1772785723997927700,2.728927734375,0.27338269352912903,0.19829338788986206,-0.8907627463340759
1772785724007942700,2.738942626953125,0.04325352981686592,0.6536027789115906,-0.883854329586029
1772785724017958700,2.748958740234375,-0.146839439868927,0.8254531025886536,-0.7468493580818176
1772785724027974700,2.758974609375,-0.24917858839035034,0.7572920918464661,-0.5480032563209534
1772785724037991000,2.768990966796875,-0.2927825152873993,0.5610384345054626,-0.35708069801330566
1772785724048006700,2.779006591796875,-0.29572585225105286,0.29680293798446655,-0.2546302378177643
1772785724058022700,2.789022705078125,-0.15360096096992493,0.07664500921964645,-0.2540706992149353
1772785724068038700,2.79903857421875,0.07017398625612259,0.03954826295375824,-0.29910513758659363
1772785724078054700,2.8090546875,0.28608816862106323,0.1771087944507599,-0.22732976078987122
1772785724088070700,2.819070556640625,0.4969557821750641,0.1715877652168274,-0.0036202846094965935
1772785724098086700,2.829086669921875,0.5775718092918396,-0.2701326608657837,0.18750733137130737
1772785724108102700,2.8391025390625,0.4607580602169037,-0.9207505583763123,0.10489950329065323
1772785724118118400,2.849118408203125,0.2354346662759781,-1.3932722806930542,-0.38757461309432983
1772785724128134400,2.859134521484375,0.14963971078395844,-1.394432544708252,-1.2532707452774048
1772785724138149400,2.8691494140625,0.1701364666223526,-1.2744230031967163,-2.0778284072875977
1772785724148165400,2.879165283203125,0.1507689654827118,-1.0767371654510498,-2.517425537109375
1772785724158181400,2.889181396484375,0.06008753925561905,-1.3662161827087402,-2.3936760425567627
1772785724168197400,2.899197265625,0.1673790067434311,-2.4316959381103516,-1.7949600219726562
1772785724178213600,2.909213623046875,-0.0236990787088871,-1.732670545578003,-1.3770774602890015
1772785724188229600,2.919229736328125,-0.7161793112754822,0.7940447926521301,-2.282857894897461
1772785724198245600,2.92924560546875,-1.5912582874298096,3.128427028656006,-2.7559614181518555
1772785724208261400,2.939261474609375,-2.3647594451904297,2.564004898071289,-2.071478843688965
1772785724218277400,2.94927734375,-2.5480878353118896,0.8996451497077942,-1.0229198932647705
1772785724228293400,2.95929345703125,-1.8894551992416382,0.07509845495223999,-0.37105652689933777
1772785724238309400,2.969309326171875,-0.9306221604347229,0.13269490003585815,-0.3221238851547241
1772785724248325600,2.97932568359375,-0.12873463332653046,0.3036659359931946,-0.3427504897117615
1772785724258341600,2.989341552734375,0.4309827387332916,0.27097615599632263,-0.24443429708480835
1772785724268357600,2.999357666015625,0.627941370010376,0.4746702313423157,-0.3348444998264313
1772785724278372600,3.00937255859375,0.08684594184160233,1.2830058336257935,-0.6002194285392761
1772785724288388600,3.019388671875,-0.703011155128479,1.9219123125076294,-0.5783914923667908
1772785724298404400,3.029404296875,-1.34083890914917,2.1776719093322754,-0.3156176209449768
1772785724308420400,3.03942041015625,-1.8852810859680176,2.096363067626953,0.031731415539979935
1772785724318436400,3.049436279296875,-2.2694056034088135,1.5466499328613281,0.2481529414653778
1772785724328452600,3.05945263671875,-2.272516965866089,1.1728368997573853,0.21551083028316498
1772785724338468600,3.069468505859375,-1.870676875114441,1.0329447984695435,0.09866410493850708
1772785724348484600,3.079484619140625,-1.1704800128936768,1.17374849319458,0.31544438004493713
1772785724358500600,3.08950048828125,-0.4242019057273865,1.1960630416870117,0.9941091537475586
1772785724368516400,3.099516357421875,0.25217103958129883,1.093611240386963,1.9646096229553223
1772785724378532400,3.109532470703125,0.7998021841049194,0.9625306725502014,2.788635015487671
1772785724388548400,3.11954833984375,1.2818938493728638,0.8064236640930176,3.37077260017395
1772785724398564600,3.129564697265625,1.821427583694458,0.5251328945159912,3.686829090118408
1772785724408579600,3.13957958984375,2.309704303741455,0.20640450716018677,3.7365007400512695
1772785724418595600,3.149595703125,2.6103737354278564,-0.08270133286714554,3.4396612644195557
1772785724428611600,3.159611572265625,2.5767998695373535,-0.06506135314702988,2.9635915756225586
1772785724438627600,3.169627685546875,2.3211398124694824,0.39301225543022156,2.3930649757385254
1772785724448643300,3.179643310546875,1.9776161909103394,0.6065893173217773,1.6552097797393799
1772785724458659300,3.189659423828125,1.6835933923721313,0.564092755317688,0.8367289304733276
1772785724468675300,3.19967529296875,1.5008797645568848,0.4351990520954132,-0.01978694647550583
1772785724478691600,3.209691650390625,1.3073519468307495,0.21622808277606964,-0.8537643551826477
1772785724488707600,3.21970751953125,1.1412818431854248,-0.06225477531552315,-1.5523227453231812
1772785724498723600,3.2297236328125,0.8853757977485657,-0.5996047854423523,-1.9252358675003052
1772785724508739600,3.239739501953125,0.5062137842178345,-1.4414091110229492,-1.8368949890136719
1772785724518755300,3.24975537109375,0.2303135246038437,-2.1812400817871094,-1.4715635776519775
1772785724528771300,3.259771240234375,0.025528503581881523,-2.5188941955566406,-1.025899887084961
1772785724538786300,3.269786376953125,-0.08533356338739395,-2.6504218578338623,-0.6263346672058105
1772785724548802300,3.27980224609375,-0.16816644370555878,-2.7416772842407227,-0.34479179978370667
1772785724558818600,3.289818603515625,-0.222727432847023,-2.751077890396118,-0.17496708035469055
1772785724568834600,3.29983447265625,-0.19254402816295624,-2.534630537033081,-0.1526697874069214
1772785724578850600,3.3098505859375,-0.10082235932350159,-2.0856542587280273,-0.2894907593727112
1772785724588866600,3.319866455078125,0.0012928079813718796,-1.4206894636154175,-0.5015316009521484
1772785724598882600,3.329882568359375,0.07605892419815063,-0.6078066229820251,-0.7007062435150146
1772785724608898300,3.339898193359375,0.04976601153612137,0.24275995790958405,-0.7371010780334473
1772785724618914600,3.34991455078125,-0.00870528630912304,0.9919569492340088,-0.5395453572273254
1772785724628930600,3.3599306640625,-0.016743402928113937,1.3864191770553589,-0.24963447451591492
1772785724638946600,3.369946533203125,0.04565419256687164,1.3777098655700684,0.0673740953207016
1772785724648962600,3.379962646484375,0.1179438978433609,1.1102958917617798,0.34071677923202515
1772785724658978600,3.389978515625,0.16563819348812103,0.7131237983703613,0.5092073082923889
1772785724668993500,3.39999365234375,0.1466168314218521,0.3308791220188141,0.5250852704048157
1772785724679009500,3.410009521484375,0.13565100729465485,0.15710224211215973,0.40762579441070557
1772785724689025300,3.420025390625,0.1883685290813446,0.24253126978874207,0.21815013885498047
1772785724699041500,3.43004150390625,0.3036133646965027,0.48301658034324646,0.007903682067990303
1772785724709057500,3.4400576171875,0.5224825739860535,0.725092351436615,-0.2072143852710724
1772785724719073500,3.450073486328125,0.7424740791320801,0.6166258454322815,-0.3385588526725769
1772785724729089500,3.460089599609375,0.7256673574447632,-0.05767108127474785,-0.38012218475341797
1772785724739105500,3.47010546875,0.3719979524612427,-0.9810236692428589,-0.6239849328994751
1772785724749121500,3.48012158203125,-0.11624499410390854,-1.4694788455963135,-1.2233678102493286
1772785724759137300,3.49013720703125,-0.3889092803001404,-0.7998417019844055,-2.0933260917663574
1772785724769153500,3.500153564453125,-0.4816063642501831,0.6849273443222046,-2.8483269214630127
1772785724779169500,3.51016943359375,-0.4009844958782196,1.4670811891555786,-3.056333303451538
1772785724789185500,3.520185546875,-0.43493154644966125,1.1977342367172241,-2.5503573417663574
1772785724799200500,3.530200439453125,-0.5257019400596619,0.3299916982650757,-1.7356595993041992
1772785724809216500,3.540216552734375,-1.066677451133728,1.5453301668167114,-2.412276029586792
1772785724819232500,3.550232421875,-1.291080117225647,2.7893645763397217,-2.595794200897217
1772785724829248500,3.56024853515625,-1.9931331872940063,1.5663963556289673,-1.6449142694473267
1772785724839264500,3.570264404296875,-1.947724461555481,0.33803507685661316,0.040989719331264496
1772785724849280500,3.580280517578125,-1.4607850313186646,-0.07363644987344742,1.0658007860183716
1772785724859296500,3.590296630859375,-0.898867666721344,-0.032038409262895584,1.1047531366348267
1772785724869312500,3.6003125,-0.2253204584121704,0.007834726944565773,0.5487674474716187
1772785724879328500,3.61032861328125,0.6686925888061523,-0.34401145577430725,-0.009867916814982891
1772785724889344500,3.620344482421875,1.7109456062316895,0.07858109474182129,-0.4556995630264282
1772785724899360500,3.630360595703125,1.752234697341919,1.7538292407989502,-0.8835651874542236
1772785724909376300,3.640376220703125,0.4747423231601715,3.1913602352142334,-0.41198989748954773
1772785724919392500,3.650392578125,-0.8707109093666077,3.0001325607299805,0.5734968781471252
1772785724929407500,3.660407470703125,-1.566938877105713,2.4447526931762695,1.5725798606872559
1772785724939423500,3.670423583984375,-2.0511229038238525,2.100642204284668,2.1475331783294678
1772785724949439500,3.680439453125,-2.362929582595825,1.5663886070251465,2.3991620540618896
1772785724959455500,3.69045556640625,-2.260039806365967,0.8675339221954346,2.332226276397705
1772785724969471500,3.700471435546875,-1.73045015335083,0.24545089900493622,2.0199313163757324
1772785724979487500,3.710487548828125,-1.0095857381820679,-0.08958808332681656,1.8445225954055786
1772785724989503500,3.72050341796875,-0.33299848437309265,-0.27722904086112976,1.9305615425109863
1772785724999519500,3.73051953125,0.2182505577802658,-0.2512839734554291,2.1171305179595947
1772785725009535500,3.740535400390625,0.5229910016059875,0.029230980202555656,2.3639471530914307
1772785725019551500,3.750551513671875,0.6628847122192383,0.3066796362400055,2.667775869369507
1772785725029567500,3.7605673828125,0.6420672535896301,0.4460946023464203,2.9062774181365967
1772785725039583500,3.77058349609375,0.5668877959251404,0.7955796122550964,2.9357006549835205
1772785725049599500,3.780599609375,0.46154266595840454,1.1061745882034302,2.503265619277954
1772785725059614500,3.790614501953125,0.3819940388202667,1.2955482006072998,1.580098271369934
1772785725069630500,3.80063037109375,0.3730124533176422,1.519936442375183,0.4651058614253998
1772785725079646500,3.810646484375,0.3184259235858917,1.712053894996643,-0.6185924410820007
1772785725089662500,3.820662353515625,0.22662568092346191,1.8845332860946655,-1.4394311904907227
1772785725099678700,3.8306787109375,0.11159788072109222,2.0451390743255615,-1.7029719352722168
1772785725109694700,3.84069482421875,0.03333935886621475,1.6379621028900146,-1.4415371417999268
1772785725119710700,3.850710693359375,0.05028665065765381,0.8820427656173706,-0.8177899122238159
1772785725129726700,3.860726806640625,0.11962883919477463,-0.12070105224847794,-0.12255480885505676
1772785725139742700,3.87074267578125,0.20005178451538086,-1.192156434059143,0.42600950598716736
1772785725149758500,3.880758544921875,0.32204297184944153,-2.1607506275177,0.7339776754379272
1772785725159774700,3.890774658203125,0.42701226472854614,-2.910355567932129,0.8541368842124939
1772785725169790700,3.900790771484375,0.5020267367362976,-3.138261556625366,1.0419522523880005
1772785725179806700,3.910806640625,0.4156508147716522,-2.904202699661255,1.2025490999221802
1772785725189821700,3.92082177734375,0.31104010343551636,-2.5557608604431152,1.134716510772705
1772785725199837700,3.930837646484375,0.21042852103710175,-2.1878809928894043,0.8991720676422119
1772785725209853700,3.940853759765625,0.08805755525827408,-1.823054552078247,0.5833031535148621
1772785725219869700,3.95086962890625,0.05381090193986893,-1.4007585048675537,0.21738800406455994
1772785725229885700,3.9608857421875,0.13358105719089508,-0.9956232905387878,-0.2042340785264969
1772785725239901700,3.970901611328125,0.27522313594818115,-0.7011341452598572,-0.6106724143028259
1772785725249917700,3.980917724609375,0.4029909372329712,-0.5489662885665894,-0.8739442825317383
1772785725259933700,3.99093359375,0.47302940487861633,-0.5069437026977539,-0.9305253028869629
1772785725269949700,4.00094970703125,0.48409995436668396,-0.44817283749580383,-0.8858272433280945
1772785725279965700,4.010965576171875,0.4979505240917206,-0.2767547369003296,-0.8012532591819763
1772785725289981700,4.020981689453125,0.5326531529426575,-0.06597675383090973,-0.7710365056991577
1772785725299997700,4.030997802734375,0.5913739800453186,0.1350727379322052,-0.7583643794059753
1772785725310013700,4.041013671875,0.6932250261306763,0.22971147298812866,-0.718015193939209
1772785725320028700,4.051028564453125,0.796798586845398,0.20621013641357422,-0.6545685529708862
1772785725330044700,4.061044677734375,0.7264724969863892,0.01966802217066288,-0.6451370120048523
1772785725340060700,4.071060791015625,0.4423430860042572,-0.18096761405467987,-0.706805408000946
1772785725350076700,4.08107666015625,-0.1861407309770584,-0.4783925414085388,-0.9513260722160339
1772785725360092700,4.0910927734375,-1.0314639806747437,-0.8004075884819031,-1.2852734327316284
1772785725370108700,4.101108642578125,-1.468025803565979,-0.9182202816009521,-1.7437289953231812
1772785725380125000,4.111125,-1.5797733068466187,-0.6161531209945679,-2.125901460647583
1772785725390140700,4.121140625,-1.3954105377197266,0.11919690668582916,-2.194009780883789
1772785725400156700,4.13115673828125,-0.924371063709259,0.15688090026378632,-2.4948203563690186
1772785725410172700,4.141172607421875,-0.8686030507087708,1.3825443983078003,-3.0852575302124023
1772785725420188700,4.151188720703125,-1.3358948230743408,2.5942611694335938,-3.111886501312256
1772785725430204700,4.16120458984375,-1.8083888292312622,2.426581382751465,-1.9490026235580444
1772785725440219600,4.1712197265625,-1.9611361026763916,1.4127601385116577,-0.22476065158843994
1772785725450235600,4.181235595703125,-1.5637391805648804,0.44741442799568176,1.1689547300338745
1772785725460252000,4.191251953125,-0.874943196773529,-0.3113872706890106,1.6037828922271729
1772785725470267600,4.201267578125,-0.10649051517248154,-0.5769211649894714,1.3445719480514526
1772785725480283600,4.21128369140625,0.3127291202545166,-0.2203499674797058,0.5900685787200928
1772785725490299600,4.221299560546875,0.2671583890914917,1.0100334882736206,-0.27017301321029663
1772785725500315600,4.231315673828125,0.049419961869716644,2.151191234588623,-0.6641653180122375
1772785725510331600,4.24133154296875,-0.2537825107574463,2.3354947566986084,-0.5520955324172974
1772785725520347600,4.25134765625,-0.3909528851509094,1.4555652141571045,-0.21053311228752136
1772785725530364000,4.261364013671875,-0.2947362959384918,0.7648341059684753,0.3365604281425476
1772785725540379600,4.271379638671875,-0.1913563758134842,0.3402995765209198,0.7722274661064148
1772785725550395600,4.281395751953125,-0.17508290708065033,0.09038127958774567,1.0452065467834473
1772785725560411600,4.29141162109375,-0.22280701994895935,-0.04018578305840492,1.2618296146392822
1772785725570426600,4.301426513671875,-0.3142160177230835,-0.17375163733959198,1.3726814985275269
1772785725580442600,4.311442626953125,-0.40526896715164185,-0.16488410532474518,1.302011251449585
1772785725590458600,4.321458740234375,-0.44707104563713074,-0.00989137776196003,1.1586817502975464
1772785725600474600,4.331474609375,-0.4288451671600342,0.11430060863494873,0.9801660776138306
1772785725610491000,4.341490966796875,-0.4830273389816284,0.1680065542459488,0.813894510269165
1772785725620507000,4.3515068359375,-0.594770610332489,0.12952600419521332,0.656926155090332
1772785725630522600,4.361522705078125,-0.5649562478065491,0.09694255143404007,0.5064071416854858
1772785725640538600,4.37153857421875,-0.5355696082115173,0.2579982876777649,0.3844567835330963
1772785725650554600,4.3815546875,-0.48768219351768494,0.3485667407512665,0.23797787725925446
1772785725660570600,4.391570556640625,-0.4751717448234558,0.39919209480285645,0.13201361894607544
1772785725670586600,4.401586669921875,-0.5251506567001343,0.3103125989437103,0.12478185445070267
1772785725680603000,4.411602783203125,-0.6334574222564697,-0.06414730846881866,0.20069952309131622
1772785725690617900,4.421617919921875,-0.8102729916572571,-0.4530978798866272,0.3713538646697998
1772785725700633900,4.4316337890625,-0.924372673034668,-0.7388647198677063,0.5127933025360107
1772785725710649900,4.44164990234375,-0.9566531777381897,-0.7495429515838623,0.5645264983177185
1772785725720665600,4.45166552734375,-0.9330497980117798,-0.6950740814208984,0.5492942929267883
1772785725730681600,4.461681640625,-0.8690486550331116,-0.7340583801269531,0.4730304479598999
1772785725740697600,4.471697509765625,-0.776448667049408,-0.8546654582023621,0.3796120584011078
1772785725750713600,4.481713623046875,-0.7061007618904114,-0.9329312443733215,0.2699129581451416
1772785725760729900,4.491729736328125,-0.6433731913566589,-0.6936928033828735,0.1299651563167572
1772785725770745900,4.501745849609375,-0.5784565210342407,-0.5087804794311523,-0.022636370733380318
1772785725780761600,4.51176171875,-0.5366005897521973,-0.4508667290210724,-0.07559064775705338
1772785725790777600,4.521777587890625,-0.4492756426334381,-0.5500191450119019,-0.1055033877491951
1772785725800793600,4.531793701171875,-0.31667977571487427,-0.6257767677307129,-0.07102210819721222
1772785725810809600,4.5418095703125,-0.14902152121067047,-0.6698571443557739,-0.021350158378481865
1772785725820824600,4.551824462890625,0.037706006318330765,-0.6216821670532227,0.03138336166739464
1772785725830840600,4.561840576171875,0.13739308714866638,-0.32275205850601196,0.24493084847927094
1772785725840856800,4.57185693359375,0.15947362780570984,-0.4858347177505493,0.32905158400535583
1772785725850872800,4.581872802734375,-0.026758572086691856,-0.9243284463882446,0.30649885535240173
1772785725860888800,4.591888916015625,-0.08170277625322342,-1.161531686782837,0.3236139416694641
1772785725870904600,4.601904541015625,0.0745343416929245,-1.2197210788726807,0.3825434148311615
1772785725880920600,4.611920654296875,0.18472769856452942,-1.0753862857818604,0.4182415008544922
1772785725890936600,4.6219365234375,0.2205013632774353,-0.6712872982025146,0.45216846466064453
1772785725900952600,4.63195263671875,0.21052409708499908,-0.2057129442691803,0.5082783102989197
1772785725910968800,4.64196875,0.1559596061706543,-0.12966609001159668,0.5226650834083557
1772785725920984800,4.65198486328125,0.13055410981178284,-0.10381532460451126,0.5574118494987488
1772785725931000800,4.662000732421875,0.1374414712190628,-0.382003515958786,0.4832669496536255
1772785725941015800,4.672015869140625,0.12834517657756805,-0.6499662399291992,0.44221779704093933
1772785725951031800,4.68203173828125,0.11095157265663147,-1.0184903144836426,0.34075668454170227
1772785725961047600,4.692047607421875,0.12982405722141266,-1.101175308227539,0.28047895431518555
1772785725971063600,4.7020634765625,0.2536758482456207,-0.6484153866767883,0.25165918469429016
1772785725981079600,4.71207958984375,0.5454650521278381,-0.05290721729397774,0.22098089754581451
1772785725991095800,4.722095703125,0.9131589531898499,0.4009857773780823,0.15531054139137268
1772785726001111800,4.73211181640625,1.1235127449035645,0.3715711534023285,0.10149658471345901
1772785726011127800,4.7421279296875,1.095887541770935,-0.09308966249227524,0.09945382922887802
1772785726021143600,4.7521435546875,0.9814658164978027,-0.6398810744285583,0.1437634974718094
1772785726031159600,4.76215966796875,0.8189648389816284,-0.7100639939308167,0.26942095160484314
1772785726041175600,4.772175537109375,0.6381462812423706,-0.5919082760810852,0.2710894048213959
1772785726051191800,4.78219189453125,0.4324192702770233,-0.5321913361549377,0.06237829849123955
1772785726061206500,4.79220654296875,0.3263128101825714,-0.4333973824977875,-0.23127701878547668
1772785726071222800,4.802222900390625,0.34373676776885986,-0.26144978404045105,-0.5150672793388367
1772785726081238800,4.81223876953125,0.36020493507385254,-0.13451047241687775,-0.6868579387664795
1772785726091254800,4.8222548828125,0.35052841901779175,-0.23519256711006165,-0.7190538048744202
1772785726101270300,4.832270263671875,0.3208858370780945,-0.4262163043022156,-0.6605367064476013
1772785726111286300,4.842286376953125,0.2488170564174652,-0.5908764600753784,-0.5130494236946106
1772785726121302000,4.852302001953125,0.1250692754983902,-0.7404470443725586,-0.2823442816734314
1772785726131318300,4.862318359375,0.019358579069375992,-0.8174378871917725,-0.06305006146430969
1772785726141334300,4.872334228515625,0.013786712661385536,-0.861537754535675,0.05615169554948807
1772785726151350300,4.882350341796875,0.1946943998336792,-0.8951012492179871,-0.06862630695104599
1772785726161366300,4.8923662109375,0.3782426714897156,-0.7187397480010986,-0.33161666989326477
1772785726171382300,4.90238232421875,0.41006478667259216,-0.23285479843616486,-0.5841041207313538
1772785726181397200,4.912397216796875,0.28464215993881226,0.08898237347602844,-0.7591403722763062
1772785726191413200,4.922413330078125,0.09063369035720825,0.10922735184431076,-0.8419584035873413
1772785726201429200,4.93242919921875,-0.07221966981887817,-0.017584390938282013,-0.8504509329795837
1772785726211445200,4.9424453125,-0.15679505467414856,-0.0314975306391716,-0.7703357934951782
1772785726221461200,4.952461181640625,-0.1674889773130417,0.08118800073862076,-0.6051540374755859
1772785726231477200,4.962477294921875,-0.429002970457077,0.2253452092409134,-0.4595321714878082
1772785726241493200,4.9724931640625,-0.8531321287155151,0.061135753989219666,-0.28064948320388794
1772785726251509200,4.98250927734375,-1.108137607574463,-0.057199329137802124,-0.05143371969461441
1772785726261525200,4.992525146484375,-1.0869598388671875,-0.011545025743544102,0.2542894184589386
1772785726271541000,5.002541015625,-0.9613410830497742,0.10505211353302002,0.5147672295570374
1772785726281557200,5.01255712890625,-0.9342780113220215,0.05347467213869095,0.611773669719696
1772785726291573200,5.0225732421875,-1.030203938484192,-0.029823921620845795,0.626742422580719
1772785726301588200,5.032588134765625,-1.1654242277145386,-0.029773589223623276,0.5983762741088867
1772785726311604200,5.042604248046875,-1.224098563194275,-0.005314410664141178,0.5274853706359863
1772785726321620200,5.0526201171875,-1.1607118844985962,0.022120144218206406,0.42952683568000793
1772785726331636200,5.06263623046875,-1.0136662721633911,0.08297385275363922,0.33582961559295654
1772785726341652200,5.07265234375,-0.8349498510360718,0.13574224710464478,0.2462235689163208
1772785726351668200,5.082668212890625,-0.6844967007637024,0.09448283910751343,0.18910187482833862
1772785726361684200,5.092684326171875,-0.5889456868171692,-0.023309575393795967,0.16976839303970337
1772785726371700200,5.1027001953125,-0.5277143120765686,-0.19263413548469543,0.19175054132938385
1772785726381716200,5.11271630859375,-0.4476431906223297,-0.3515116572380066,0.2112044095993042
1772785726391732200,5.122732177734375,-0.31839749217033386,-0.3823046386241913,0.23871497809886932
1772785726401748200,5.132748291015625,-0.08738821744918823,-0.22168831527233124,0.26718658208847046
1772785726411764200,5.14276416015625,0.16208578646183014,-0.08227750658988953,0.23540078103542328
1772785726421779200,5.152779296875,0.26912009716033936,0.017419524490833282,0.14521363377571106
1772785726431795200,5.162795166015625,0.29655447602272034,0.20429830253124237,0.0828249379992485
1772785726441811200,5.172811279296875,0.29445990920066833,0.4221020042896271,0.04264955222606659
1772785726451827200,5.1828271484375,0.2612837255001068,0.5331259965896606,0.0003042581956833601
1772785726461843200,5.19284326171875,0.19172994792461395,0.5355795621871948,-0.025537192821502686
1772785726471859200,5.202859130859375,0.11250107735395432,0.4475248157978058,-0.02312314510345459
1772785726481875200,5.212875244140625,0.09512501955032349,0.3005870282649994,-0.02360437996685505
1772785726491891200,5.22289111328125,0.1390918493270874,0.1711156666278839,-0.07072336971759796
1772785726501907500,5.232907470703125,0.19929739832878113,0.19005553424358368,-0.15390188992023468
1772785726511923200,5.242923095703125,0.23935683071613312,0.4028828740119934,-0.2841914892196655
1772785726521939200,5.252939208984375,0.25417548418045044,0.6206697821617126,-0.43474504351615906
1772785726531955200,5.262955078125,0.23130126297473907,0.6367701292037964,-0.5128875970840454
1772785726541970200,5.27297021484375,0.21593402326107025,0.6042559146881104,-0.4523472785949707
1772785726551986200,5.282986083984375,0.22292272746562958,0.4205452501773834,-0.24413707852363586
1772785726562002200,5.293002197265625,0.2408689707517624,0.07796710729598999,-0.0033316565677523613
1772785726572018200,5.30301806640625,0.2536397874355316,-0.06457556784152985,0.23384205996990204
1772785726582034400,5.313034423828125,0.22574850916862488,-0.07649880647659302,0.41466429829597473
1772785726592050400,5.323050537109375,0.17017553746700287,-0.1207108125090599,0.496820330619812
1772785726602066200,5.333066162109375,0.11964631080627441,-0.17528563737869263,0.47166386246681213
1772785726612082200,5.343082275390625,0.09383631497621536,-0.2157541662454605,0.34048181772232056
1772785726622098200,5.35309814453125,0.08940374851226807,-0.20483733713626862,0.12719908356666565
1772785726632114200,5.3631142578125,0.08968666195869446,-0.15736059844493866,-0.1323513239622116
1772785726642130200,5.373130126953125,0.08744215220212936,-0.13726012408733368,-0.3806053698062897
