time,seconds_elapsed,z,y,x
1772619266059340000,0.071340087890625,0.30718145059943197,-0.13862857235893605,-0.2738692558452487
1772619266069371100,0.08137109375,0.3238239578425884,-0.14940715600475668,-0.2696136442273855
1772619266079402200,0.09140234375,0.28166473202705383,-0.14145985026210545,-0.2215507473260164
1772619266089433000,0.10143310546875,0.24297639719247816,-0.08306728252619504,-0.2182677070673555
1772619266099464200,0.111464111328125,0.18312836995124815,-0.05269932453036308,-0.16857815881222485
1772619266109495000,0.1214951171875,0.14662030176520346,-0.019897855777293444,-0.13764474895335732
1772619266119526100,0.131526123046875,0.11521101802289485,-0.021031828243285415,-0.11973024901300668
1772619266129557200,0.14155712890625,0.05443067836761474,0.009513970537483691,-0.11448935268484055
1772619266139588000,0.151588134765625,0.006693360158801079,0.011053747325390577,-0.11242430991381407
1772619266149619200,0.161619140625,0.0069482117027044295,0.011573387285321951,-0.11795008759796619
1772619266159650000,0.171650146484375,0.057555532389879226,-0.004298720107227563,-0.08547923903875053
1772619266169681200,0.18168115234375,0.1450678116261959,-0.0403919238820672,-0.010850625968724489
1772619266179712000,0.1917119140625,0.23032442089021204,-0.07440642168670893,0.03481748475059867
1772619266189743000,0.2017431640625,0.3011281419098377,-0.09135039609447121,0.056829044746235007
1772619266199774000,0.21177392578125,0.33627544313669205,-0.10307269033119082,0.08914093988407402
1772619266209805000,0.22180517578125,0.31633857052326203,-0.10691694466918707,0.09254530496746301
1772619266219836200,0.231836181640625,0.3252349936842918,-0.07887962157800793,0.11208053797744214
1772619266229867300,0.2418671875,0.3446785298228264,-0.06024228725582361,0.10795732056759297
1772619266239898000,0.251898193359375,0.3243073574453592,-0.058631052666902536,0.05650810569617897
1772619266249929200,0.26192919921875,0.341331557482481,-0.08654986394494771,0.014503558985702693
1772619266259960000,0.2719599609375,0.31915187437832354,-0.139697370634228,-0.019740327128022907
1772619266269991200,0.2819912109375,0.19918810887038707,-0.1509229673951864,-0.09771909087616949
1772619266280022300,0.292022216796875,0.1466325767248869,-0.1337938456788659,-0.12893866073265672
1772619266290053000,0.30205322265625,0.0750239690631628,-0.1267222998574376,-0.11945954231284558
1772619266300083200,0.312083251953125,0.026935937720537186,-0.11727613385915756,-0.10701463289000093
1772619266310114000,0.322114013671875,0.007281389179825782,-0.10209405455738306,-0.11072506824787705
1772619266320145200,0.332145263671875,-0.04235971682369709,-0.13661241023093462,-0.137914962463174
1772619266330176000,0.342176025390625,-0.0291921922147274,-0.17247341268509625,-0.1659769450715743
1772619266340207000,0.35220703125,-0.013453940334916113,-0.1916110977448523,-0.18130844278139993
1772619266350238200,0.36223828125,-0.022617489999532697,-0.20300416002720592,-0.1428221333249472
1772619266360269000,0.37226904296875,-0.04663490992486476,-0.2123331293866038,-0.12795728501249104
1772619266370300400,0.382300537109375,-0.09021569297611713,-0.18424056897684932,-0.09850271553453058
1772619266380331300,0.392331298828125,-0.095758714056015,-0.16529928327202795,-0.08064056683592498
1772619266390362400,0.4023623046875,-0.09286766878962516,-0.19177695583105087,-0.0630620939169079
1772619266400393200,0.412393310546875,-0.03444879756867886,-0.17771116720810531,-0.037924912714026864
1772619266410424600,0.422424560546875,-0.0593996989518404,-0.1829403000332415,-0.01148987372033298
1772619266420455400,0.432455322265625,-0.09130290369093418,-0.14669965061172843,-0.005259710626490414
1772619266430486500,0.442486572265625,-0.08280746254622935,-0.11612564864978193,0.023170959163829684
1772619266440517400,0.452517333984375,-0.08137596843838692,-0.104609106118232,0.1071318660615012
1772619266450548500,0.462548583984375,-0.041325113078951835,-0.14217413601130247,0.16853868531836197
1772619266460579300,0.472579345703125,0.00644493835568428,-0.184536775444448,0.15826211464423684
1772619266470610400,0.4826103515625,0.04024959280192852,-0.2325073178872466,0.17436430446561424
1772619266480641300,0.492641357421875,0.04838847559392452,-0.2549133570931852,0.16856350923236457
1772619266490672400,0.50267236328125,0.0528945548415184,-0.263445184725523,0.15723982239179313
1772619266500703200,0.512703125,0.054258828932046886,-0.24553631080836055,0.1529900194602087
1772619266510734300,0.522734375,0.08664309518635273,-0.1815272183649242,0.22035693443156779
1772619266520765200,0.53276513671875,0.20321312660276888,-0.17931421849057078,0.2880063196061179
1772619266530796300,0.54279638671875,0.35571547214388843,-0.20050284473076463,0.3646696168415248
1772619266540827400,0.552827392578125,0.5453694444715976,-0.2265402261763811,0.40165673724878576
1772619266550858200,0.562858154296875,0.6949854209214449,-0.30316783104389905,0.39328561660349365
1772619266560889600,0.5728896484375,0.7626713021814823,-0.3910276085436344,0.34310565448291597
1772619266570920400,0.58292041015625,0.7739204259485006,-0.46598713406845926,0.3222664992675185
1772619266580951600,0.59295166015625,0.6784539728373289,-0.5344019141249359,0.2962721167134121
1772619266590982400,0.602982421875,0.500491022825241,-0.5575808373995125,0.25268731507416814
1772619266601013500,0.613013427734375,0.36495384061038494,-0.5514752140007912,0.238927340997383
1772619266611044400,0.62304443359375,0.21373568966090678,-0.5504414870388805,0.2520456561697647
1772619266621075500,0.633075439453125,0.06239069746136665,-0.5545696728847921,0.24445615088883785
1772619266631106300,0.643106201171875,-0.05761398457884788,-0.5532547908939421,0.2010320562366396
1772619266641137400,0.653137451171875,-0.13896657214164734,-0.5388891425415874,0.19490319809280335
1772619266651168300,0.663168212890625,-0.24797230578362942,-0.5442703971885144,0.18832732683382927
1772619266661198300,0.6731982421875,-0.3182411892741918,-0.4923134154580533,0.2121019875118509
1772619266671229400,0.6832294921875,-0.37958851516246794,-0.4844397594735026,0.2120218714803457
1772619266681260300,0.69326025390625,-0.3846399533331394,-0.5187535324856639,0.17235877332948146
1772619266691291400,0.70329150390625,-0.3251671891450882,-0.5598354844585061,0.13472864231094717
1772619266701322200,0.713322265625,-0.25915245596766473,-0.6354470441512763,0.08344729481972754
1772619266711353300,0.723353271484375,-0.23616554813385007,-0.6690051764905453,0.014198255896195769
1772619266721384200,0.73338427734375,-0.19682371782660482,-0.6770430831260978,-0.007737170123308897
1772619266731415300,0.743415283203125,-0.1338864923983812,-0.6862395121470093,0.020597711142338812
1772619266741446100,0.753446044921875,-0.06001753858923912,-0.7018933006137609,0.0571057793283835
1772619266751477500,0.7634775390625,0.027252748584747313,-0.7324060739077627,0.06380447324942796
1772619266761508400,0.77350830078125,0.09918751946091652,-0.7714135576941072,0.09723130735922604
1772619266771539500,0.78353955078125,0.14314415008723735,-0.8645844472140073,0.09567107230518013
1772619266781570600,0.793570556640625,0.1503349383741617,-0.9144107005260884,0.08721216377858072
1772619266791601400,0.803601318359375,0.17293197010755537,-0.9574256663881242,0.11519074241984635
1772619266801632500,0.813632568359375,0.24448855532109737,-1.0056209574975072,0.13697912465147674
1772619266811663400,0.823663330078125,0.3494575807929039,-1.0370851862974464,0.1729164437448606
1772619266821694500,0.833694580078125,0.4429045107752084,-1.0704627013728023,0.1729159322882071
1772619266831725300,0.843725341796875,0.5464665920585393,-1.0954663558565079,0.18501104189269243
1772619266841756400,0.85375634765625,0.5746849708050489,-1.1451239746034145,0.1628267922112718
1772619266851787300,0.863787353515625,0.5692705445408821,-1.1589642839074135,0.15846132701076565
1772619266861818400,0.873818359375,0.5420674803167581,-1.145732754151523,0.14480824737455694
1772619266871849200,0.88384912109375,0.5385211860120296,-1.136206508654356,0.1547904930109158
1772619266881880300,0.89388037109375,0.5770382559329271,-1.1371144172795116,0.17974698388464747
1772619266891911200,0.9039111328125,0.6568482902288436,-1.1530696729108691,0.20470614163950085
1772619266901942300,0.9139423828125,0.7254062781482935,-1.1743860171839595,0.19323917387071995
1772619266911973400,0.923973388671875,0.7537403922289609,-1.1659037277817725,0.17705003641825168
1772619266922004500,0.93400439453125,0.8080559197843075,-1.2021651277303695,0.1250109293622896
1772619266932035300,0.944035400390625,0.8466600834667682,-1.2309146907441317,0.08856113070212304
1772619266942066400,0.95406640625,0.8394646190047264,-1.2672842272423206,0.0338246377883479
1772619266952097500,0.96409765625,0.7185767243891954,-1.250451311993599,-0.011144969272799789
1772619266962128400,0.97412841796875,0.4834089551210403,-1.2033853171750903,-0.012673311351239681
1772619266972159500,0.984159423828125,0.16295710406005381,-1.135251399886608,0.010277538788504898
1772619266982190300,0.9941904296875,-0.11257891595363616,-1.061255604827404,0.03582286240085959
1772619266992221400,1.004221435546875,-0.29981589026749134,-1.0180629443109035,0.06370620050672442
1772619267002252300,1.014252197265625,-0.3946662573069334,-0.9725526545017957,0.055846974906325335
1772619267012283400,1.024283447265625,-0.41128421463072296,-0.9286720117211341,0.09921451706569641
1772619267022314200,1.034314208984375,-0.33402561838328837,-0.939133199980855,0.1314465153677389
1772619267032344300,1.04434423828125,-0.24832711057066917,-0.9456177396945655,0.1714658065451309
1772619267042375400,1.05437548828125,-0.1426408767402172,-0.9623733519233763,0.1761327389102429
1772619267052406300,1.06440625,-0.011332125875353812,-0.9758937816232442,0.18767784994915127
1772619267062437400,1.074437255859375,0.07333119367063046,-0.9942132821679115,0.24399342874791471
1772619267072468200,1.08446826171875,0.11828034246563911,-0.9751515849538147,0.2913231890691444
1772619267082499300,1.094499267578125,0.16533084745407103,-0.9647976564608514,0.29891221942603585
1772619267092530200,1.1045302734375,0.20188918452262877,-0.9559363046132028,0.36823516383599486
1772619267102561500,1.1145615234375,0.18807927035689354,-0.9433945106871425,0.49638654664848
1772619267112592400,1.12459228515625,0.18976853861808776,-0.9101530430816114,0.5772953359665349
1772619267122623500,1.13462353515625,0.18838906695842741,-0.9161753721110523,0.6573400923337787
1772619267132654300,1.144654296875,0.1479816532462835,-0.892028626717627,0.6593931524060667
1772619267142685400,1.154685546875,0.07570552158653736,-0.8740636386990547,0.679609499548003
1772619267152716300,1.16471630859375,-0.09635200377404689,-0.8825019428290426,0.6918804406434297
1772619267162747400,1.174747314453125,-0.357159825733304,-0.8755923095710575,0.6794613963142037
1772619267172778200,1.1847783203125,-0.6091852063000202,-0.8762190631672739,0.6296395269162952
1772619267182809300,1.194809326171875,-0.7910843267172575,-0.8805497858479618,0.5536762311764061
1772619267192840400,1.20484033203125,-0.8769166900426149,-0.8597280932240188,0.45089543646387753
1772619267202871300,1.214871337890625,-0.9926239671498537,-0.8186343046829104,0.41714156235679983
1772619267212902400,1.22490234375,-1.1061568228274583,-0.6947128875903785,0.3412378147844225
1772619267222933200,1.234933349609375,-1.2561024696230887,-0.6024684652656317,0.26408099841102955
1772619267232964400,1.24496435546875,-1.4240221645265816,-0.5253368563987314,0.2034683800054714
1772619267242995200,1.2549951171875,-1.564445365217328,-0.3991938177339732,0.194278216328565
1772619267253026300,1.2650263671875,-1.6067963142126798,-0.20492022278159855,0.2196306659836322
1772619267263057400,1.275057373046875,-1.5535112987488506,0.04808189386278391,0.3400114513272419
1772619267273088500,1.285088623046875,-1.3660013527125119,0.22432737243250012,0.4620585624478757
1772619267283119400,1.295119384765625,-1.1679068842977285,0.31951968477740883,0.5223337655926122
1772619267293150500,1.305150390625,-0.9715297411948441,0.38046295990943907,0.559593200135231
1772619267303181300,1.315181396484375,-0.8335287992149591,0.38328152446150776,0.5474607176624238
1772619267313212400,1.32521240234375,-0.7464367912173271,0.3596563187241554,0.5134231677757576
1772619267323243300,1.3352431640625,-0.6635632776975632,0.334413302526623,0.4280938586017117
1772619267333274400,1.3452744140625,-0.5468617288559675,0.31044249822199343,0.28820984282158313
1772619267343305500,1.355305419921875,-0.39435412261784075,0.2625537888437509,0.15698588416334242
1772619267353336300,1.36533642578125,-0.22653262739181518,0.20231033254414796,-0.019445581965148447
1772619267363367400,1.375367431640625,-0.06077917061150074,0.1861786974325776,-0.1739616784814745
1772619267373398500,1.3853984375,0.12141980953514575,0.1818891835451126,-0.2751777811605483
1772619267383428600,1.3954287109375,0.3010416326701641,0.1965466544508934,-0.3390503512101248
1772619267393459500,1.40545947265625,0.46658466157019135,0.23282851266562937,-0.39775877996217457
1772619267403490600,1.415490478515625,0.6339969914734364,0.28128143179789183,-0.39445213963221754
1772619267413521400,1.425521484375,0.7665800000578165,0.35496129277572036,-0.3720338619992137
1772619267423552500,1.435552490234375,0.8219798157185315,0.44974254010170694,-0.3281356835618615
1772619267433583600,1.44558349609375,0.8133639630645513,0.5855880576133727,-0.22850069432808084
1772619267443614500,1.455614501953125,0.7455646845579147,0.7706991258144378,-0.06227757420940324
1772619267453645600,1.4656455078125,0.6432990728259086,0.9309154067337513,0.10290876847375184
1772619267463676400,1.475676513671875,0.5578875652611255,1.0286398679047823,0.207392823440209
1772619267473707500,1.48570751953125,0.5313239679843187,1.0655252449706196,0.24712876763157546
1772619267483738400,1.49573828125,0.49987844388484953,1.0262059187561272,0.22165552287474274
1772619267493769500,1.50576953125,0.4633452412575483,1.0208242257177829,0.2175312460189685
1772619267503800300,1.51580029296875,0.35602936039865013,1.0384586666077376,0.2386514466654509
1772619267513831400,1.52583154296875,0.19047347201704978,1.0787895079523324,0.2976729964872822
1772619267523862500,1.535862548828125,0.07352408589422703,1.1284379204794763,0.3763147541888058
1772619267533893600,1.5458935546875,0.006681669721007347,1.1479507224619387,0.4615105001110583
1772619267543924500,1.555924560546875,0.030967969715595244,1.1377853022783995,0.58907151581496
1772619267553955600,1.56595556640625,0.15279519100785255,1.0728995731309057,0.6421110320851207
1772619267563986400,1.575986328125,0.3403898927181959,0.921622677731514,0.593610912810266
1772619267574017500,1.586017578125,0.5726315454065799,0.7292065472140907,0.4838713850010186
1772619267584048400,1.59604833984375,0.7717278843402862,0.556991493204236,0.3159118330111727
1772619267594079500,1.60607958984375,0.9012579350948333,0.36325551225990055,0.15141645000055431
1772619267604110600,1.616110595703125,0.9611498014777898,0.21517069090008734,0.0729419751573354
1772619267614141400,1.626141357421875,0.9193611625403165,0.09876169526427983,-0.12065072485879062
1772619267624172500,1.636172607421875,0.8654799347490072,-0.03843523685634136,-0.3091648064363748
1772619267634203400,1.646203369140625,0.8078414002507924,-0.10134119036346674,-0.35168296522479503
1772619267644234500,1.656234375,0.7703297079801559,-0.09380787224918603,-0.30426896068621423
1772619267654265300,1.666265380859375,0.6897434286147356,-0.043609424623847,-0.2683295957662165
1772619267664296400,1.67629638671875,0.545116931015253,0.002707213132083416,-0.25380612650364637
1772619267674327300,1.686327392578125,0.4428104027509689,0.020402444298565386,-0.24603761139400301
1772619267684358700,1.696358642578125,0.39059038617014885,0.02223959659785032,-0.2335368801306933
1772619267694389500,1.706389404296875,0.36459552869200706,-0.04398351863324642,-0.257897962394543
1772619267704420600,1.716420654296875,0.37764497987926005,-0.14187895245701074,-0.3178688853630796
1772619267714451500,1.726451416015625,0.3820511058837175,-0.2368962004959583,-0.32968134210128336
1772619267724481500,1.7364814453125,0.3089104663491249,-0.2654106395795941,-0.3250735925775021
1772619267734512600,1.7465126953125,0.19682254878282546,-0.2620297649696469,-0.3143462641948834
1772619267744543500,1.75654345703125,0.06946282780468463,-0.2694178293943405,-0.33384920237045734
1772619267754574600,1.76657470703125,-0.006283610314130782,-0.29779899748712774,-0.3689204792190343
1772619267764605400,1.77660546875,-0.09984101493358612,-0.36203035437911746,-0.45325569932181387
1772619267774636500,1.786636474609375,-0.15822013866603374,-0.3902311974689364,-0.5167717110186815
1772619267784667400,1.79666748046875,-0.12421148608028888,-0.42430707007199525,-0.5580929881727322
1772619267794698500,1.806698486328125,-0.06447334895431996,-0.47574353505969047,-0.5525112059850246
1772619267804729300,1.816729248046875,-0.042479543811082834,-0.4992759479470551,-0.5199549441646785
1772619267814760400,1.826760498046875,-0.0214671509206295,-0.515071629102528,-0.4954531747885048
1772619267824791600,1.83679150390625,-0.0033656770408153533,-0.5729667687103152,-0.4613511813635006
1772619267834822400,1.846822509765625,-0.007006079369783401,-0.6293982655063272,-0.45209388900082553
1772619267844853500,1.856853515625,0.031759996876120564,-0.6602604367598891,-0.458941599471122
1772619267854884400,1.86688427734375,0.12462123592495918,-0.7015503323949873,-0.4820118382068351
1772619267864915700,1.876915771484375,0.2380909632384777,-0.7422804021902382,-0.4770312733152881
1772619267874946600,1.886946533203125,0.3099287034809589,-0.8001279032640158,-0.4854388535134494
1772619267884977700,1.896977783203125,0.344481545946002,-0.8079678031094372,-0.4757418545592576
1772619267895008500,1.907008544921875,0.3459825981587171,-0.7735245584987104,-0.4652416129307821
1772619267905039600,1.91703955078125,0.3022135990589857,-0.7755259614489972,-0.46927967280782756
1772619267915070500,1.927070556640625,0.2556125914037227,-0.7686848633825778,-0.4506763503530994
1772619267925101600,1.9371015625,0.18841712400913238,-0.7512848157703876,-0.434913110162504
1772619267935132400,1.94713232421875,0.11597674169838428,-0.7428025263682008,-0.41553694017175585
1772619267945163500,1.95716357421875,0.08173018870353699,-0.7113333291321993,-0.3931655338877812
1772619267955194400,1.9671943359375,0.08782382940351963,-0.6724087013237178,-0.33195027341395617
1772619267965225500,1.9772255859375,0.04350596424937248,-0.6211364869870245,-0.24466405801847577
1772619267975256300,1.98725634765625,-0.008072247296571732,-0.5556082221522927,-0.19761574498713017
1772619267985287400,1.997287353515625,-0.052118309772014614,-0.4820205695025623,-0.17320501489527523
1772619267995318500,2.007318603515625,-0.07997253138124942,-0.48675037450343367,-0.18544176146015523
1772619268005349400,2.017349365234375,-0.15085574737787247,-0.4472225201047957,-0.1993559031853452
1772619268015380500,2.02738037109375,-0.2509960375189781,-0.387915614002943,-0.22836481125503777
1772619268025411600,2.03741162109375,-0.314128493258357,-0.34846827749460935,-0.22565409099161624
1772619268035442700,2.047442626953125,-0.3735948277056217,-0.31910482036620375,-0.18891451560463754
1772619268045473500,2.0574736328125,-0.3968617215245962,-0.2695528539508581,-0.10171638035140931
1772619268055503600,2.067503662109375,-0.41698505662083624,-0.2627785375103354,-0.01690806284416467
1772619268065534500,2.077534423828125,-0.34807226391434665,-0.2573034671001136,0.04777246258743107
1772619268075565600,2.087565673828125,-0.1890735420912504,-0.3190247408673167,0.1246321226451546
1772619268085596700,2.0975966796875,-0.040806057640910144,-0.39678514915704727,0.18849406170286237
1772619268095627500,2.10762744140625,0.08621230255365371,-0.5010036485224962,0.2539138246618211
1772619268105658600,2.11765869140625,0.1282575466006994,-0.6016580256655812,0.3246952607844025
1772619268115689500,2.127689453125,0.0690115769058466,-0.6349877560764551,0.40258346017226576
1772619268125720600,2.137720458984375,0.02065291192829609,-0.6423071391791105,0.4916451608076691
1772619268135751400,2.14775146484375,0.002806289592385292,-0.6760761377900838,0.5613252846248448
1772619268145782500,2.157782470703125,-0.0057172086030244824,-0.6937368821650743,0.5643588801670819
1772619268155813400,2.1678134765625,-0.02415185995995998,-0.7026555171579122,0.4346487966705113
1772619268165844500,2.177844482421875,-0.12527999209463594,-0.7098825458019972,0.26422756727486846
1772619268175875300,2.187875244140625,-0.4445949480801821,-0.7138593404784799,0.11960201952345668
1772619268185906400,2.197906494140625,-1.008619408661127,-0.5490975250840187,0.014144224154017865
1772619268195937300,2.207937255859375,-1.7095301279783248,-0.22203443918973206,0.0020080153541639444
1772619268205968400,2.217968505859375,-2.298354683294892,0.19003931838348506,0.08434804305173456
1772619268215999500,2.22799951171875,-2.6749077762842175,0.5668558846145868,0.2230366019695997
1772619268226030600,2.238030517578125,-2.788106869962811,0.8660936827331781,0.3891143222682178
1772619268236061700,2.248061767578125,-2.6502456287145613,1.1291890311077237,0.5305449099032208
1772619268246092500,2.258092529296875,-2.284733569699526,1.3121218784868716,0.5914507756343111
1772619268256123600,2.26812353515625,-1.7528098822563885,1.323760586093366,0.5183361473238095
1772619268266154500,2.278154541015625,-1.135876253786683,1.2188514741152525,0.36251280413381753
1772619268276185600,2.288185546875,-0.6240431682139634,1.0565841058850287,0.1960680406210944
1772619268286216400,2.298216552734375,-0.16994272516369818,1.0184043050944804,0.1011904202485457
1772619268296247600,2.30824755859375,0.20106617770195007,0.9757716165482997,-0.019482370311580597
1772619268306278400,2.3182783203125,0.5326350505828857,0.906637290045619,-0.06437482048328966
1772619268316309500,2.3283095703125,0.8360445814281702,0.8425617082372308,-0.03858765093907714
1772619268326340400,2.33834033203125,1.1257651941388844,0.8152756419047713,0.06446238916888833
1772619268336371500,2.348371337890625,1.343971891734004,0.814864138494432,0.1923705743426457
1772619268346402300,2.35840234375,1.482235868564248,0.7915396692693233,0.3436485657205805
1772619268356433400,2.368433349609375,1.5449030448794363,0.7505258140966296,0.42956473487187175
1772619268366464300,2.37846435546875,1.5484966854572295,0.7304621002331375,0.4998550995418802
1772619268376495900,2.388495849609375,1.44403677855134,0.6943301718831062,0.5292905624605715
1772619268386526700,2.398526611328125,1.2462035914212464,0.6459601087287068,0.4979518597364425
1772619268396556800,2.408556884765625,0.9836533097088337,0.621757395364344,0.4394309163805097
1772619268406588000,2.418587890625,0.7247305708438158,0.6193251997813582,0.39644159641638393
1772619268416618800,2.42861865234375,0.5174386504948139,0.6087810094133019,0.3720846788709983
1772619268426649900,2.43864990234375,0.34338556740283965,0.5927314996272325,0.3373930489897728
1772619268436680700,2.4486806640625,0.21071020435988902,0.5777896588221192,0.2670860985111445
1772619268446712000,2.458712158203125,0.09871113412082194,0.5144578811183571,0.20169643842950463
1772619268456743000,2.468742919921875,-0.061224576291441915,0.4705713931187987,0.11085925255417824
1772619268466774000,2.47877392578125,-0.2637614110678434,0.437261828713119,0.043222617263346905
1772619268476804900,2.488804931640625,-0.49795595138967036,0.44558337459564207,0.05333787816222757
1772619268486836000,2.4988359375,-0.7296411392390728,0.5197141942113638,0.11646985897757112
1772619268496866800,2.50886669921875,-0.8789140013396739,0.6334340968936681,0.20322635141052303
1772619268506898000,2.51889794921875,-0.9500070606946944,0.7305576695621013,0.2799314419610426
1772619268516929000,2.528928955078125,-0.881418677636981,0.7645736286714673,0.28813896954245866
1772619268526959900,2.5389599609375,-0.6713713210999965,0.7532537777557968,0.3034779199063778
1772619268536991000,2.548990966796875,-0.36276948230862616,0.6629986295521259,0.26846359740942716
1772619268547021800,2.559021728515625,-0.018156418937444685,0.5340931404367089,0.19945143598169088
1772619268557053000,2.569052978515625,0.30559096653759477,0.40341333512514826,0.12404540879838168
1772619268567083800,2.579083740234375,0.5728203459769488,0.2581675365835428,0.012071911391988396
1772619268577115000,2.589114990234375,0.811281311571598,0.16532909388840197,-0.06130220810491591
1772619268587145700,2.599145751953125,0.9842769945651292,0.05600158094614744,-0.10890011784303932
1772619268597176800,2.6091767578125,1.0377876354783773,-0.0011406944677233696,-0.1103852053016424
1772619268607208000,2.6192080078125,0.9993459688812494,-0.026252339370548723,-0.0924331132972613
1772619268617239000,2.629239013671875,0.8638117092758416,-0.010749942073225974,-0.0334837519288063
1772619268627270000,2.639269775390625,0.6992752270698547,0.013101473635435103,0.028798443656787274
1772619268637301000,2.649301025390625,0.5559948833823204,0.03482201479524374,0.0453733655564487
1772619268647331800,2.659331787109375,0.4605921431571245,-0.009888064546883105,0.030592816260270772
1772619268657363000,2.669363037109375,0.3992413101375103,-0.07078530858010053,0.008528320500999689
1772619268667394000,2.67939404296875,0.40557343576848504,-0.1422898713454604,-0.013694507625140248
1772619268677425000,2.6894248046875,0.4342214381039142,-0.2332303714647889,-0.06403104854691773
1772619268687456000,2.6994560546875,0.45588732646703717,-0.3185413412645459,-0.11855156062245369
1772619268697486800,2.70948681640625,0.4552992974460125,-0.39289340241551396,-0.11153890538141131
1772619268707518000,2.71951806640625,0.41103228569626804,-0.45716158418655395,-0.10793211306110023
1772619268717547800,2.7295478515625,0.35204116754531856,-0.49309945126920934,-0.07915949796531349
1772619268727579000,2.739578857421875,0.2952250553458929,-0.5446165802776813,-0.02210449897609651
1772619268737610000,2.74960986328125,0.22414953164756296,-0.5733104675814509,0.05195442444719374
1772619268747640800,2.759640869140625,0.1470060862123966,-0.6116337684959173,0.09332257295027374
1772619268757672000,2.769671875,0.08169161025881767,-0.6430164564922451,0.15439710977915674
1772619268767702800,2.779702880859375,0.0032867665857076642,-0.6481999966099858,0.24833573226854203
1772619268777734000,2.78973388671875,-0.03175590522289276,-0.6493322155103087,0.3520919844171032
1772619268787765000,2.799764892578125,-0.09209551537334919,-0.6954784651353955,0.42164439020138234
1772619268797796000,2.809796142578125,-0.11711480581760406,-0.7716029427863657,0.41928580784387887
1772619268807827000,2.819826904296875,-0.10833820964395999,-0.8512256378166377,0.39408531561382115
1772619268817858000,2.829858154296875,-0.07180149988532065,-0.9330179319709538,0.37121297407038506
1772619268827889000,2.839888916015625,-0.025890228059887884,-0.9836053789138793,0.3528514975475147
1772619268837920000,2.849919921875,-0.05861000987887382,-1.0101292287021875,0.3700946740975603
1772619268847950800,2.859950927734375,-0.13320552439689634,-0.9850016555778681,0.4222036680519581
1772619268857982000,2.86998193359375,-0.2200783366858959,-0.926798034542799,0.47933290132116524
1772619268868012800,2.8800126953125,-0.2812216644346714,-0.8791054322585463,0.5452758113713935
1772619268878044000,2.8900439453125,-0.2972416558653116,-0.865184605064243,0.5877751193288714
1772619268888074800,2.90007470703125,-0.3355097194612026,-0.8618589677728712,0.6000493483599275
1772619268898105900,2.91010595703125,-0.4065910883784294,-0.8385453122027218,0.6527576599143445
1772619268908137000,2.920136962890625,-0.4659370113164186,-0.7904730629511177,0.684666344546154
1772619268918167800,2.930167724609375,-0.5294622657656669,-0.7799225889727472,0.7202086364399641
1772619268928199000,2.940198974609375,-0.5953127482920885,-0.7847163991205394,0.7815027708362787
1772619268938229800,2.950229736328125,-0.6577730038583278,-0.7637228570610284,0.8089571064077318
1772619268948261000,2.96026123046875,-0.6819587660878896,-0.7515949046328664,0.8672647723391652
1772619268958292000,2.9702919921875,-0.6912813057065009,-0.7820560938701033,0.909013371527195
1772619268968323000,2.980322998046875,-0.6837357126325369,-0.8149623381718992,0.9213676069919019
1772619268978354000,2.99035400390625,-0.6028302843153477,-0.8397194705486297,0.8684311857700348
1772619268988385000,3.000385009765625,-0.514124411380291,-0.8513865274667739,0.8336305060237645
1772619268998416000,3.010415771484375,-0.4303659317195415,-0.8302443707168102,0.763453757796064
1772619269008447000,3.020447021484375,-0.4272603669196367,-0.7839148734793067,0.6461446715153754
1772619269018477800,3.030477783203125,-0.5489706838339566,-0.6745224786072969,0.5274125301616266
1772619269028509000,3.040509033203125,-0.7600842082977295,-0.504370202346146,0.5185808062672614
1772619269038539000,3.0505390625,-0.9669108492225408,-0.24352628616020083,0.591818805229105
1772619269048569900,3.06056982421875,-1.0902245096802712,-0.011982844869047403,0.7202966800495981
1772619269058601000,3.07060107421875,-1.1058920344114302,0.16279884475842119,0.9299741803608834
1772619269068631800,3.0806318359375,-1.067021913269162,0.3230878986530006,1.0872094727080315
1772619269078663000,3.090662841796875,-0.8737281231343745,0.4071408312156796,1.1243548889495432
1772619269088693800,3.10069384765625,-0.5677215615332126,0.3717100368723273,1.0790203940987586
1772619269098724900,3.110724853515625,-0.2785924849748611,0.3413789037555456,0.9163746940754354
1772619269108755700,3.120755615234375,-0.09359656758606433,0.3042895285502076,0.6816099526502192
1772619269118786800,3.130786865234375,-0.012957681250572204,0.2613666248857975,0.5048998157108202
1772619269128818000,3.14081787109375,-0.010358312407135964,0.2733198052689433,0.34058673046454785
1772619269138849000,3.15084912109375,-0.016880992174148558,0.3436898110464215,0.22893497582580893
1772619269148880100,3.160880126953125,0.01707622248530388,0.44333442662507294,0.1579329557551071
1772619269158911000,3.170910888671875,0.12631751844882963,0.5620905699089169,0.17490443922430277
1772619269168942000,3.180942138671875,0.3518260634899139,0.6677338413804769,0.18296609206162393
1772619269178973000,3.190972900390625,0.6288000073522328,0.7760819878965616,0.21631098350901157
1772619269189004000,3.201004150390625,0.8675976575553417,0.8582453073203563,0.21472196075189856
1772619269199035000,3.211034912109375,1.118880695322156,0.9194503021284938,0.19635843840241432
1772619269209066000,3.22106591796875,1.3147095568925142,0.9719830379202962,0.17065397870559246
1772619269219096800,3.231096923828125,1.4232014957934618,0.9550427167743444,0.154347644614242
1772619269229128000,3.2411279296875,1.4523445881694554,0.9118702222630382,0.06932122737690806
1772619269239158800,3.25115869140625,1.4606471370905636,0.884195741134882,-0.056609958635456856
1772619269249190000,3.26118994140625,1.5022276862353086,0.8207508584454655,-0.157517726017721
1772619269259220700,3.271220703125,1.480327989116311,0.7708455485478043,-0.2388025455739349
1772619269269251800,3.281251953125,1.3350275377780199,0.7595353422433138,-0.23928985416684298
1772619269279282700,3.29128271484375,1.0534744494318962,0.7802619039297103,-0.21823292801491914
1772619269289313800,3.301313720703125,0.6417331386834383,0.867546804150939,-0.1712498622395098
1772619269299345000,3.311344970703125,0.1984580410301685,0.9621694999143481,-0.0722655372004956
1772619269309376000,3.3213759765625,-0.19327683899998663,1.0496250805273653,-0.003130406980216503
1772619269319407000,3.331406982421875,-0.5610673643410206,1.055930902673304,0.05783654128834605
1772619269329438000,3.34143798828125,-0.7816472208082675,1.082479594641924,0.1676752186231315
1772619269339469000,3.351468994140625,-0.9052911361336707,1.0992305306956172,0.2628719879474491
1772619269349500000,3.3615,-0.9356108710736035,1.0571864556923507,0.3173827458139509
1772619269359530000,3.371530029296875,-0.8499281453520059,0.9274570829734206,0.26668606634289027
1772619269369560800,3.381560791015625,-0.6561562163114547,0.7206517770975828,0.15531864507086574
1772619269379592000,3.391592041015625,-0.3737169927805662,0.5087801277428865,0.027065920775756237
1772619269389623000,3.401623046875,-0.05748889689445495,0.29095629198551176,-0.0797030667901039
1772619269399654000,3.41165380859375,0.19414836113750933,0.07670037784278393,-0.17549597537666559
1772619269409685000,3.42168505859375,0.37640462442934514,-0.049532677192986006,-0.2517502168871462
1772619269419715800,3.4317158203125,0.4583008173495531,-0.17532149559259413,-0.29007337167114017
1772619269429747200,3.441747314453125,0.48582127695977684,-0.25946108352541924,-0.32815110032670197
1772619269439778000,3.451778076171875,0.4423620744615793,-0.3184492790669203,-0.3741113989256322
1772619269449809200,3.46180908203125,0.38653321973383425,-0.3525461944580078,-0.4048864033523947
1772619269459840000,3.471840087890625,0.2888619500547647,-0.38019817149341106,-0.4157547841735184
1772619269469871000,3.48187109375,0.20143851814568042,-0.36782062821835276,-0.44736886977292595
1772619269479902000,3.49190185546875,0.13714754002094268,-0.3743295717209577,-0.4143453557670116
1772619269489933000,3.50193310546875,0.11283902819454669,-0.37176001349389554,-0.3743083097372204
1772619269499964000,3.5119638671875,0.10792670623362063,-0.3705167354345321,-0.3610612901512533
1772619269509995000,3.5219951171875,0.11061550692617893,-0.3277899388641119,-0.3344264542691409
1772619269520025900,3.53202587890625,0.055631286329030985,-0.2573193953216076,-0.2506532154306769
1772619269530057000,3.542056884765625,-0.00208440505862236,-0.2116194281592965,-0.2045262550279498
1772619269540088000,3.552088134765625,-0.01152092644572258,-0.1647615231335163,-0.15089235306121407
1772619269550119000,3.562118896484375,0.007601122653484344,-0.16735913841128347,-0.11987564883306621
1772619269560150000,3.57214990234375,0.0655126288741827,-0.15484569379687307,-0.09201762783154845
1772619269570180900,3.582180908203125,0.13613807071745396,-0.18735928551927208,-0.11200981082879007
1772619269580212000,3.5922119140625,0.20179799910783766,-0.22157252076640724,-0.1081762970805168
1772619269590243000,3.6022431640625,0.2262690080195665,-0.2856719218418002,-0.14208550787977872
1772619269600274200,3.612274169921875,0.23447627987265585,-0.34045258269086476,-0.16261004418805242
1772619269610305000,3.622304931640625,0.21659166361391544,-0.37064635316357014,-0.17435228523425758
1772619269620336000,3.632336181640625,0.1998661542624235,-0.38057752619981766,-0.20338504910357294
1772619269630367000,3.642366943359375,0.23482407039701939,-0.40730362056195735,-0.21471922080554068
1772619269640398000,3.652398193359375,0.304531228351593,-0.48460137977600093,-0.18099552264101804
1772619269650429000,3.662428955078125,0.3376233506143093,-0.5129346170738339,-0.1284248659916222
1772619269660460000,3.6724599609375,0.3404483449071646,-0.5251723134867846,-0.099903704906255
1772619269670491000,3.682490966796875,0.3660106561869383,-0.5704295053176581,-0.07310768711306154
1772619269680522000,3.69252197265625,0.4034714950531721,-0.6406745695412158,-0.045717722014710305
1772619269690552000,3.702552001953125,0.42142157776355743,-0.6891217895850539,-0.08006853910163045
1772619269700583000,3.7125830078125,0.3582148877441883,-0.713640729291737,-0.10148965892344712
1772619269710614000,3.722614013671875,0.2851689407557249,-0.7268091306835412,-0.1465299200680107
1772619269720644900,3.732644775390625,0.20600363410413264,-0.6700228291004896,-0.16654877187646924
1772619269730676000,3.742676025390625,0.15977438237071037,-0.6337267962299287,-0.15966040060222148
1772619269740706800,3.752706787109375,0.10709726967215537,-0.5887415532082318,-0.17428309245556592
1772619269750738000,3.762738037109375,0.01802723959982395,-0.5513007342167199,-0.19988719705045221
1772619269760768800,3.772768798828125,-0.08533727328479289,-0.4960363815039396,-0.18294117681607602
1772619269770799900,3.7827998046875,-0.1945423288911581,-0.4463315626144409,-0.18691746003590523
1772619269780831000,3.7928310546875,-0.3124824796169996,-0.3882295022577047,-0.1973421156775206
1772619269790862000,3.802862060546875,-0.3429138582378626,-0.35630277051255105,-0.1688721733227372
1772619269800893200,3.81289306640625,-0.32756898958981034,-0.3221718067213893,-0.15643274379260838
1772619269810924000,3.822924072265625,-0.28415011910200116,-0.3039271249786019,-0.09679777478016913
1772619269820955100,3.832955078125,-0.26693711849451063,-0.32284137654602524,-0.060459656333550806
1772619269830986000,3.842986083984375,-0.21542320435643195,-0.31750586073696613,-0.05608611742444336
1772619269841017000,3.85301708984375,-0.13085282379090785,-0.34839287417083975,-0.05289952327758073
1772619269851048000,3.8630478515625,-0.04990472537577152,-0.3744716105401516,-0.036502953619509934
1772619269861079000,3.8730791015625,-0.04244681058526039,-0.40326925047934054,-0.05069434138350189
1772619269871110000,3.88310986328125,-0.11094342370629309,-0.3929435251675546,-0.045913902173936365
1772619269881141000,3.89314111328125,-0.2790612715303898,-0.3813821205809712,-0.03755290106385946
1772619269891171800,3.903171875,-0.4256266282379627,-0.3640120297156274,-0.01710398727506399
1772619269901203000,3.913202880859375,-0.5381611205279827,-0.3295917275890708,0.04280614541694522
1772619269911233800,3.92323388671875,-0.577692920449376,-0.27292335329726336,0.07142272970080375
1772619269921265000,3.933264892578125,-0.5842863273650407,-0.24723610046356914,0.11819463694356382
1772619269931296000,3.9432958984375,-0.5966904663860797,-0.21416969716399906,0.1353513042539358
1772619269941327000,3.9533271484375,-0.6299111834645271,-0.15442951421141624,0.06671418668366969
1772619269951358000,3.96335791015625,-0.7036340068012475,-0.11757029450014232,0.00018178630769252776
1772619269961389000,3.97338916015625,-0.8163584687054157,-0.042077977272868154,-0.04656637473329901
1772619269971420200,3.983420166015625,-0.9728343940526246,0.041875002046674485,-0.06853270734772086
1772619269981451000,3.993450927734375,-1.0629928038835526,0.16211963032260537,-0.08084010799601674
1772619269991482000,4.003482177734375,-1.0707459022283554,0.2661062206283212,-0.08604337572753429
1772619270001513000,4.013512939453125,-1.0411790314823388,0.36198885332494973,-0.07744951570965349
1772619270011544000,4.0235439453125,-0.9356441888213157,0.5377709521666169,-0.023620310366526245
1772619270021574100,4.03357421875,-0.8479197281390428,0.6515756105229258,0.007781228460744023
1772619270031605000,4.04360498046875,-0.7866098116517066,0.7505164617463946,-0.008500555711239576
1772619270041636000,4.053635986328125,-0.7040536935180425,0.8232796462707221,-0.038233430673927066
1772619270051667000,4.0636669921875,-0.628383827766776,0.8665962254278361,-0.06519377218335866
1772619270061698000,4.073697998046875,-0.5108598566263913,0.9083509620957076,-0.12963409565091133
1772619270071729000,4.08372900390625,-0.31726620676219464,0.9159130679130554,-0.1524322029143572
1772619270081760000,4.093760009765625,-0.11265431927740573,0.887404327917844,-0.1878624127358198
1772619270091790800,4.103790771484375,0.07760404868423938,0.8689663155600428,-0.20734204310104248
1772619270101822000,4.113822021484375,0.23506372437179088,0.8874557658441364,-0.22302929544597863
1772619270111852800,4.123852783203125,0.34882279002070427,0.9222519155457616,-0.2006141961507499
1772619270121884200,4.13388427734375,0.4017360495626926,0.9147175745181739,-0.16039119909480212
1772619270131915000,4.1439150390625,0.35362405282258985,0.9246141146324575,-0.16380604903958737
1772619270141946000,4.153946044921875,0.3200251500815153,0.913411021964252,-0.19100246432721613
1772619270151977000,4.16397705078125,0.34849428871870036,0.8896453848429023,-0.17709383902736006
1772619270162008000,4.174008056640625,0.4288374069780111,0.8305261102676391,-0.14576755739338695
1772619270172039000,4.184038818359375,0.5737941594451665,0.7685302573427557,-0.08678571852743625
1772619270182070000,4.194070068359375,0.7311591425865888,0.677302026323229,-0.06575140606611966
1772619270192101000,4.20410107421875,0.8402548925995826,0.5416672289527953,-0.0675683192949742
1772619270202132000,4.214132080078125,0.8821429002583027,0.4092880723774433,-0.09734057641997933
1772619270212163000,4.2241630859375,0.8862374760955571,0.2569075996503234,-0.14979096769057212
1772619270222194000,4.23419384765625,0.833439367365837,0.16643793191313744,-0.18736242732442915
1772619270232225000,4.24422509765625,0.7679284920573234,0.0938750922665,-0.1729367924131453
1772619270242256000,4.254255859375,0.6716694272637367,0.026049218013882637,-0.1506887202478945
1772619270252287000,4.264286865234375,0.4880892218917608,0.011907295414805412,-0.0934984409738332
1772619270262317800,4.27431787109375,0.2709305720448494,0.06906433000639081,0.015574220424517988
1772619270272349000,4.284348876953125,-0.007903320470452307,0.12269830503836274,0.10724288868792355
1772619270282380000,4.294380126953125,-0.33121757522523404,0.14523177001625298,0.175721746956557
1772619270292411100,4.3044111328125,-0.7212596798628568,0.16656579607650637,0.2337421203792095
1772619270302442000,4.31444189453125,-1.1169354064732788,0.21279563233181834,0.27969774280302223
1772619270312473000,4.32447314453125,-1.386475400942564,0.2490058866150677,0.2639388865265995
1772619270322504000,4.33450390625,-1.4782622887581587,0.2524586574174464,0.2402209610044956
1772619270332534000,4.344533935546875,-1.5151806913107633,0.21463117719590663,0.23632578019686043
1772619270342565000,4.354565185546875,-1.3873627051711082,0.1871054568886757,0.13273096568770706
1772619270352596000,4.364595947265625,-1.088096850001812,0.1028996718518436,0.03216346311047673
1772619270362627000,4.374626953125,-0.695291125869751,-0.035131665266305206,-0.02946304504536092
1772619270372658000,4.384657958984375,-0.350958633005619,-0.1316552262149751,-0.024338322442770004
1772619270382689000,4.39468896484375,-0.0535655859708786,-0.1700292344033718,0.00574190465286374
1772619270392720000,4.404719970703125,0.14380173721313474,-0.18673837714195252,0.041747576274722815
1772619270402751000,4.4147509765625,0.28743863925337787,-0.19200901102125645,0.12324987450651824
1772619270412782000,4.424781982421875,0.39173897168338295,-0.1790004763662815,0.17800693528428674
1772619270422813000,4.43481298828125,0.42512803106606006,-0.17413710811361668,0.20263656882382927
1772619270432844000,4.444843994140625,0.42918344393670554,-0.13962415926754473,0.2134907749891281
1772619270442875000,4.454875,0.42683600402772426,-0.12657193160131572,0.2238540558323264
1772619270452906000,4.464906005859375,0.4415858293920755,-0.13209814767688513,0.2005870889481157
1772619270462936800,4.474936767578125,0.46943829743564125,-0.14789046783149243,0.18445969162024556
1772619270472968000,4.484968017578125,0.5240419942826032,-0.2023113554574549,0.1426274327367544
1772619270482998800,4.494998779296875,0.5979384206205606,-0.27881825655475256,0.06819448836930096
1772619270493030000,4.50502978515625,0.7009948904693126,-0.3457379757478833,0.01264393912628293
1772619270503060700,4.515060791015625,0.7925853789299726,-0.4046104359552264,0.0021537439677864314
1772619270513091800,4.525091796875,0.8476040863186121,-0.4623179440364241,-0.03111431938372552
1772619270523123000,4.535123046875,0.8756284037977456,-0.47625250749513504,0.0031360330034047364
1772619270533154000,4.545154052734375,0.8135404886752367,-0.48258375634327527,0.03628609599843621
1772619270543185000,4.555184814453125,0.7621089921236037,-0.4962167065069079,0.06690963619053364
1772619270553216000,4.565216064453125,0.6903986776530743,-0.5114787191770971,0.10091200516596435
1772619270563246800,4.575246826171875,0.6047644672483206,-0.5210195777215063,0.12545206072591245
1772619270573278000,4.58527783203125,0.5532224960595369,-0.5303729508697986,0.18726349699459968
1772619270583309000,4.59530908203125,0.5416214901149272,-0.5349316370874643,0.2151797509893775
1772619270593340000,4.60533984375,0.5610229406774043,-0.5827861519351601,0.25747597412280737
1772619270603371000,4.61537109375,0.47570787922441954,-0.6342509662345052,0.3230146872863173
1772619270613401900,4.62540185546875,0.413544560778141,-0.6467499439321458,0.33184104088582095
1772619270623433000,4.635432861328125,0.3764624920964241,-0.709573333722353,0.3683452366143465
1772619270633463800,4.6454638671875,0.35877544423639773,-0.7742857521295547,0.38313904725089665
1772619270643495000,4.655494873046875,0.29294658901989457,-0.8275393495418131,0.3990260599516332
1772619270653525800,4.66552587890625,0.18230419408679008,-0.8352250817388296,0.42461620908640324
1772619270663555800,4.675555908203125,0.07389642633795737,-0.8265566221147775,0.42674489167816937
1772619270673587000,4.6855869140625,-0.00393266327381134,-0.8243596965923905,0.4061557657010853
1772619270683617800,4.69561767578125,-0.1741384232878685,-0.8190415703095495,0.4660954898137599
1772619270693649000,4.70564892578125,-0.353069926071167,-0.785152598580718,0.4524505569513887
1772619270703679700,4.7156796875,-0.45461657587885856,-0.7303805594295263,0.4322140438042581
1772619270713711000,4.725711181640625,-0.6012316169470548,-0.7292875034958124,0.48931613333821294
1772619270723742000,4.735741943359375,-0.6649900956302881,-0.6648724605999886,0.5067690071161836
1772619270733773000,4.74577294921875,-0.6431722315758467,-0.653514031239599,0.5315720244612544
1772619270743804000,4.755803955078125,-0.5806611226052045,-0.6777998928427695,0.6066903207443655
1772619270753835000,4.7658349609375,-0.513391420930624,-0.6946117653034627,0.7023804265435785
1772619270763865900,4.775865966796875,-0.4326420599579811,-0.6927117769010365,0.7579081794328987
1772619270773897000,4.78589697265625,-0.2827116107314825,-0.7708306432396173,0.7887769996229559
1772619270783927800,4.795927734375,-0.23291619094908236,-0.8726739379063249,0.779552002094686
1772619270793959000,4.805958984375,-0.20471359429359434,-0.9138473675549029,0.6892742767330259
1772619270803989800,4.81598974609375,-0.1717588346749544,-0.932797567218542,0.5652313521526754
1772619270814020900,4.826020751953125,-0.20626374634504316,-0.9381517877280712,0.44937589874640105
1772619270824052000,4.836052001953125,-0.3487999936670065,-0.834423994489014,0.3139655577816069
1772619270834082800,4.846082763671875,-0.5428939942687749,-0.6799599934861064,0.19588022643141448
1772619270844114000,4.856114013671875,-0.7939812172025442,-0.5045256851688027,0.10683949551880359
1772619270854144800,4.866144775390625,-1.098937977489829,-0.31954671891480685,0.09490575048848986
1772619270864175900,4.87617578125,-1.3467442790567874,-0.10017799180299043,0.11888422664292156
1772619270874207000,4.88620703125,-1.5038614249169826,0.17204378909617662,0.04684584926180541
1772619270884238000,4.896238037109375,-1.5582669688433408,0.25418635799288747,0.16476159619875252
1772619270894269000,4.90626904296875,-1.4245353747457266,0.4239166094496846,0.419261257924512
1772619270904300000,4.916300048828125,-1.2307885801464318,0.6384016561731696,0.5927719777680933
1772619270914331000,4.926330810546875,-1.0010627096712588,0.7899883481740951,0.6877891527418046
1772619270924362000,4.936362060546875,-0.7326584412336349,0.8154296634227037,0.6843309751119464
1772619270934392800,4.946392822265625,-0.46249359286427494,0.7978232795834541,0.5771127094086259
1772619270944424000,4.956423828125,-0.19521511358618734,0.7518576472222804,0.3415809291336685
1772619270954454000,4.9664541015625,0.053365679484605785,0.714627402241528,0.06242218857817351
1772619270964484900,4.97648486328125,0.2236994497925043,0.6979711587339639,-0.15912965472638607
1772619270974516000,4.986515869140625,0.259668588796258,0.7152247836127876,-0.3697542996946722
1772619270984546800,4.996546875,0.15045885701477527,0.7986100460469723,-0.5844562040392309
1772619270994578000,5.006577880859375,-0.051642508953809736,0.9555155949831008,-0.7212789690852165
1772619271004608800,5.01660888671875,-0.2584370011746883,1.121818210078776,-0.8079376271668821
1772619271014639900,5.026639892578125,-0.3626414720147848,1.2681339759394525,-0.8431945993132889
1772619271024670700,5.036670654296875,-0.27439854041635986,1.3733283345997334,-0.8351045240990818
1772619271034701800,5.046701904296875,-0.03244797914028168,1.4361504092156887,-0.8570676418431102
1772619271044733000,5.05673291015625,0.313902867808938,1.443283037574589,-0.8454001465335488
1772619271054763800,5.066763671875,0.6999772378593683,1.377543906468153,-0.7301975310128181
1772619271064795100,5.076795166015625,1.0807312896698713,1.3154337795138358,-0.6468257125820964
1772619271074826000,5.086825927734375,1.3803805911988019,1.2692872376278042,-0.523842306992039
1772619271084857000,5.096857177734375,1.5867273396521806,1.1833879465460777,-0.395415395173803
1772619271094888000,5.106887939453125,1.652977050629258,1.0900403852850198,-0.287377337520197
1772619271104919000,5.1169189453125,1.617926195514202,0.9943509370729327,-0.15107421243414282
1772619271114950000,5.126949951171875,1.4694728331029414,0.9323471931025386,-0.017044731368497015
1772619271124981000,5.13698095703125,1.2818582576483488,0.8864300760582089,0.04759966330379247
1772619271135011800,5.14701171875,1.0260562811523675,0.7656549941673875,0.04851809332296252
1772619271145043000,5.15704296875,0.6979664825588464,0.6669403529152274,0.030480770720541474
1772619271155073800,5.16707373046875,0.33236323812901974,0.6255556186035275,0.04971102943457663
1772619271165105000,5.17710498046875,0.06704466074705123,0.5970858954444527,0.07669109855778515
1772619271175135700,5.1871357421875,-0.07803601036071776,0.523697418628633,0.12938866952247918
1772619271185166800,5.197166748046875,-0.1386579445838928,0.4663049678459763,0.16803959495611487
1772619271195197700,5.20719775390625,-0.14377251111865041,0.3948027431681752,0.2014323076006025
1772619271205228800,5.217228759765625,-0.11974573884308337,0.2739098801165819,0.21211919437497853
1772619271215260000,5.227260009765625,-0.1374865627169609,0.14457184480279683,0.19583010367937384
1772619271225291000,5.237291015625,-0.16309095957279204,0.04845774143785238,0.19886004595980047
1772619271235322000,5.247322021484375,-0.16871522919535636,0.020146715971827506,0.21369623443335292
1772619271245353000,5.25735302734375,-0.10638473748862742,-0.055040919220447536,0.23563195271380244
1772619271255384000,5.267384033203125,0.00858428847193718,-0.13520195891112088,0.20825776970647275
1772619271265415000,5.277414794921875,0.19651567479074,-0.24835078370720146,0.11013729495517909
1772619271275445000,5.287445068359375,0.41456221338808535,-0.4419079009532928,0.026714184728637336
1772619271285476000,5.29747607421875,0.5086328282266855,-0.5481745650202036,-0.09078903588466346
1772619271295507000,5.3075068359375,0.5186877737730741,-0.6011486148387193,-0.1864783379662782
1772619271305538800,5.317538818359375,0.5229238039076328,-0.6152399762943387,-0.18818316912278532
1772619271315570000,5.32756982421875,0.4908294605106115,-0.6445812215909361,-0.2091081029254943
1772619271325600800,5.337600830078125,0.41771570898294447,-0.6334805663838983,-0.20474866560697555
1772619271335632000,5.3476318359375,0.3039730099469423,-0.5734963455423713,-0.18312442442849278
1772619271345662700,5.357662841796875,0.16803309215009213,-0.5087278130337596,-0.11263649135977029
1772619271355692800,5.36769287109375,0.00689852734208107,-0.43602059648036956,-0.07159779400676489
1772619271365724000,5.377723876953125,-0.1333294430375099,-0.36202363237738605,-0.027294761095568536
1772619271375754200,5.387754150390625,-0.2656885797381401,-0.3028957361042499,-0.02436754853725433
1772619271385785300,5.397785400390625,-0.34703999825716014,-0.2851753704965114,-0.00882416164241731
1772619271395816400,5.40781640625,-0.3727075234770775,-0.30127690273076296,-0.016906418876349926
1772619271405847300,5.417847412109375,-0.34156828884780405,-0.31394846051633357,-0.03154036277607083
1772619271415878400,5.42787841796875,-0.30464579464197156,-0.3269584564760327,-0.04253163932450115
1772619271425909200,5.4379091796875,-0.2384527822881937,-0.36538960167914625,-0.08650938580408692
1772619271435940400,5.4479404296875,-0.1757031883865595,-0.42321079926788807,-0.13673413691446185
1772619271445971200,5.45797119140625,-0.1432388426333666,-0.49397360375523564,-0.19289068922661243
1772619271456002600,5.46800244140625,-0.09226210411190987,-0.5351864886313676,-0.24953027581535278
1772619271466033400,5.478033447265625,-0.02877075193226337,-0.5568661132588982,-0.2683320799842477
1772619271476064500,5.488064453125,0.0029904139876365658,-0.5787777930766344,-0.24923764954432845
1772619271486095400,5.498095458984375,0.08324234683215617,-0.5794912020429969,-0.26731837289705873
1772619271496126500,5.50812646484375,0.14654197583198547,-0.5926096268132328,-0.25117665478289125
1772619271506157300,5.5181572265625,0.179475108140707,-0.5885889929950237,-0.21287425052598116
1772619271516188400,5.5281884765625,0.19398235692083834,-0.5692313815742731,-0.21259389921464025
1772619271526219300,5.53821923828125,0.23660101694166658,-0.5552642310202122,-0.22202194503434
1772619271536250400,5.54825048828125,0.3106920890688896,-0.6089370767578483,-0.26014365896210073
1772619271546281200,5.55828125,0.4196726882696151,-0.6271636383220554,-0.3013298750270158
1772619271556312300,5.568312255859375,0.518538720691204,-0.6491483833760022,-0.3262385447036475
1772619271566343400,5.578343505859375,0.576467762568593,-0.6551993539780377,-0.3395870519027114
1772619271576374300,5.588374267578125,0.5211433502316475,-0.6338482306525111,-0.358885042090714
1772619271586405400,5.5984052734375,0.472023637753725,-0.5593325033724308,-0.4100751311019063
1772619271596436200,5.608436279296875,0.4186684796631336,-0.5235758380755782,-0.4537144394073635
1772619271606467300,5.61846728515625,0.37666064501702784,-0.48334436545223,-0.48050424665547903
1772619271616498400,5.62849853515625,0.3415034069180488,-0.4079112310662865,-0.4680720505837351
1772619271626529500,5.638529541015625,0.31124680034220215,-0.34321751735955475,-0.38908853023983536
1772619271636560400,5.648560302734375,0.2381774724781513,-0.269109201836586,-0.3417179264515638
1772619271646591500,5.658591552734375,0.19255436994433403,-0.23091098860651255,-0.294399564307183
1772619271656622300,5.668622314453125,0.20834698235988616,-0.23244623534977435,-0.23683424117565155
1772619271666653400,5.6786533203125,0.24683482618629932,-0.25359073018729683,-0.18827786166891455
1772619271676683500,5.68868359375,0.30858605670034883,-0.29398966833204027,-0.12716463679745793
1772619271686714400,5.69871435546875,0.3265595202863216,-0.3502376252546906,-0.06163016141764819
1772619271696745500,5.708745361328125,0.31881928142309185,-0.374894219866395,-0.040112010962143535
1772619271706776300,5.7187763671875,0.29054829570651053,-0.39674247905910015,-0.021148001968860623
1772619271716807400,5.728807373046875,0.25076573589444157,-0.4779872223332524,0.04806326222755015
1772619271726838300,5.73883837890625,0.18416472726166247,-0.5094099500790238,0.07643683153577148
1772619271736869400,5.748869384765625,0.10014905796945095,-0.5261228922098875,0.1116360090803355
1772619271746900200,5.758900146484375,-0.008915127861499787,-0.529559296399355,0.13823277797438205
1772619271756931300,5.768931396484375,-0.17915128301382063,-0.5137240138858556,0.17987360593900084
1772619271766962200,5.778962158203125,-0.3591314180672169,-0.4838759881108999,0.16850253629274664
1772619271776993300,5.7889931640625,-0.5233236168801784,-0.4237319005325436,0.11430727411620319
1772619271787024400,5.7990244140625,-0.6882938143283128,-0.3956614058241248,0.07361249483004212
1772619271797055500,5.809055419921875,-0.952359761300683,-0.3305041662588715,0.06913673765547573
1772619271807086600,5.819086669921875,-1.1678022548794746,-0.23290800764262676,-0.032549101427197455
1772619271817117400,5.829117431640625,-1.3369044375658035,-0.1745315142586827,-0.12023249944671988
1772619271827148500,5.8391484375,-1.5069874479830263,-0.138174544981122,-0.11774397056661545
1772619271837179400,5.849179443359375,-1.495526142770052,0.0030649405285716057,-0.12822108704783022
1772619271847210500,5.85921044921875,-1.47327982417047,0.12665595662295817,-0.08289360645972192
1772619271857241300,5.869241455078125,-1.456058640256524,0.3043468116953969,-0.06816562760099769
1772619271867272400,5.8792724609375,-1.3686825546205044,0.4300619803369045,-0.0783211109124124
1772619271877303300,5.88930322265625,-1.191518646031618,0.49971740810424087,-0.07391681153886019
1772619271887334400,5.89933447265625,-0.955313934931159,0.5319333320543169,-0.05172485347501933
1772619271897365200,5.909365234375,-0.7211486207038164,0.5725654944330454,-0.0363393605556339
1772619271907396400,5.919396240234375,-0.5186100323617459,0.5744485317006707,-0.022250921709463
1772619271917427200,5.92942724609375,-0.3218102799326181,0.5902253620252013,-0.02480309041030705
1772619271927458300,5.939458251953125,-0.1498170519798994,0.6137725340902805,-0.02845788659080863
1772619271937489200,5.9494892578125,0.034866146197915074,0.6375500077798962,-0.029553134481608866
1772619271947520300,5.959520263671875,0.18696692520081995,0.6186918703138828,0.000030541268736124036
1772619271957551400,5.96955126953125,0.28155367286801336,0.6267360605597496,-0.023410905399546027
1772619271967582500,5.97958251953125,0.36150574598312374,0.65710694116503,0.012144392106309533
1772619271977613600,5.989613525390625,0.380489263394475,0.6847124487102031,0.05717902722768485
1772619271987644400,5.99964453125,0.38024668681025503,0.7258864628806709,0.10015424560122191
1772619271997674500,6.009674560546875,0.3873445361167192,0.7482306888967752,0.15169636292047797
1772619272007705300,6.019705322265625,0.378847925928235,0.7707198763415217,0.209311443477869
1772619272017736400,6.029736328125,0.3582417757511139,0.7647197591438889,0.2683372676160186
1772619272027767300,6.039767333984375,0.4082499615013599,0.7407610836684704,0.33463110999576745
1772619272037798400,6.04979833984375,0.4623305112570524,0.6744418145865202,0.3717874860227108
1772619272047829500,6.05982958984375,0.5240478395015001,0.612919424392283,0.35243849629983304
1772619272057860400,6.0698603515625,0.5876958435475826,0.5161471493795514,0.35565592397637663
1772619272067891500,6.079891357421875,0.6184820269554853,0.4259545450180769,0.28261231507547196
1772619272077922300,6.08992236328125,0.6033762277603149,0.41764468957334755,0.2589169667113572
1772619272087953400,6.099953369140625,0.5781102690786123,0.39575785193592306,0.23112105116061865
1772619272097984300,6.109984375,0.5143056131660938,0.42037411453723905,0.2533243343360722
1772619272108015400,6.120015380859375,0.4054740670472383,0.48410658199638124,0.31297099378630516
1772619272118046200,6.130046142578125,0.26531974642574785,0.5607087601616978,0.3838346282996237
1772619272128077300,6.140077392578125,0.10896715519726276,0.6453373006552457,0.44491658124998207
1772619272138108200,6.150108154296875,-0.06944178501665592,0.7146864389523864,0.49941272606924175
1772619272148139500,6.160139404296875,-0.27374679850935935,0.7895628162384033,0.5186909155782312
1772619272158170400,6.17017041015625,-0.44333062723279,0.8478808574333786,0.503425761102885
1772619272168201500,6.180201416015625,-0.5468120444953442,0.9144754363253712,0.48403424741253254
1772619272178232300,6.190232421875,-0.5424217005819082,0.9285799495235085,0.4729477668613195
1772619272188263400,6.200263427734375,-0.4106961856096983,0.9457152087196707,0.5396691139381379
1772619272198294500,6.21029443359375,-0.22593466149866578,0.9317565337330103,0.5331275833401828
1772619272208325400,6.220325439453125,-0.041838323298096655,0.8620546364754438,0.47382966426238415
1772619272218356500,6.2303564453125,0.13689619560837746,0.7004790499016642,0.3775796595580876
1772619272228387300,6.24038720703125,0.23924656301438807,0.5322676785752177,0.263808392014727
1772619272238418400,6.25041845703125,0.2854904277950525,0.4037897672221064,0.1295453944541514
1772619272248449300,6.26044921875,0.34208149906694885,0.25676439178735017,0.039122707663848996
1772619272258480400,6.27048046875,0.35271745937168597,0.150157243719697,-0.00482837000451982
1772619272268511200,6.28051123046875,0.34337270792126656,0.10192074381709099,-0.009476195810362697
1772619272278542300,6.290542236328125,0.3648550564110279,0.06936492038816214,0.0034104660306125876
1772619272288573200,6.3005732421875,0.430594479778409,0.043701486821472645,0.022452727891877293
1772619272298604300,6.310604248046875,0.4674135136097669,-0.017567805394530296,0.07845905807837844
1772619272308635400,6.320635498046875,0.4587789562553167,-0.04478694397062063,0.10407090758830308
1772619272318666500,6.33066650390625,0.3932470381587744,-0.07898907330185174,0.08246661321930587
1772619272328696300,6.3406962890625,0.3308212693840265,-0.13829291066378355,0.060543535224720835
1772619272338727400,6.3507275390625,0.273141233831644,-0.1978159437343478,0.009431772146746516
1772619272348758500,6.360758544921875,0.23885201073884962,-0.28740590602755545,-0.09034012307338415
1772619272358789400,6.370789306640625,0.25736031185388564,-0.39237347019463775,-0.2013140880484134
1772619272368820500,6.380820556640625,0.2578700149416923,-0.4921203771039843,-0.29175423743017015
1772619272378851800,6.390851806640625,0.2259691482901573,-0.5531617057830095,-0.3588686754778027
1772619272388883000,6.400883056640625,0.12404781995117664,-0.6176181036025286,-0.4101278842024505
1772619272398913800,6.410913818359375,0.021122867527604103,-0.6612348347499967,-0.458731244656071
1772619272408945000,6.42094482421875,-0.06253039819300174,-0.697150490000844,-0.4805100188091397
1772619272418975700,6.430975830078125,-0.09153495888113974,-0.7281155371069907,-0.4882284842319786
1772619272429006800,6.4410068359375,-0.05768120459616184,-0.7628700396239757,-0.47411534933596844
1772619272439037700,6.45103759765625,-0.0034732290685176846,-0.7916025053724646,-0.4181454056371003
1772619272449069000,6.461069091796875,0.06308920111954212,-0.8083914353489875,-0.360251581203565
1772619272459100000,6.471099853515625,0.11071896730065345,-0.7991264711365104,-0.29817382214888927
1772619272469131000,6.481131103515625,0.1102197856068611,-0.7629933737426996,-0.20070969241447745
1772619272479161900,6.491161865234375,0.05701835677325725,-0.7077858657836914,-0.11190079749636352
1772619272489193000,6.50119287109375,-0.05424713849425315,-0.6743316322103142,-0.09001206016279756
1772619272499224000,6.51122412109375,-0.1676420470058918,-0.684826430478692,-0.09053922584205866
1772619272509255000,6.5212548828125,-0.2424438977509737,-0.761239515812695,-0.1939218589052558
1772619272519286000,6.5312861328125,-0.24045886141359804,-0.8681766264870763,-0.29849837792813777
1772619272529316900,6.54131689453125,-0.21303134078383446,-0.9927306423947214,-0.36366007447279985
1772619272539348000,6.551347900390625,-0.22326456550657747,-1.0481491627559065,-0.3732410458318889
1772619272549378800,6.56137890625,-0.22611937041580676,-1.0485428382486104,-0.3600558394357562
1772619272559410000,6.571409912109375,-0.29556290899813176,-0.9802367792636155,-0.28920170340314505
1772619272569440800,6.581440673828125,-0.3755015381097793,-0.8786661640584469,-0.18846746595688163
1772619272579472000,6.591471923828125,-0.4057856172144413,-0.8067410377934575,-0.09613653439246117
1772619272589502700,6.601502685546875,-0.370130950987339,-0.7542267144411802,0.09544424127936363
1772619272599533800,6.611533935546875,-0.31577275333404536,-0.6417562272980809,0.2935560992203653
1772619272609565000,6.62156494140625,-0.2405307576060295,-0.6140484284222125,0.47545931129083036
1772619272619596000,6.631595947265625,-0.12465396915078163,-0.5908110529586672,0.642235900573805
1772619272629627000,6.641626953125,-0.028143559944629668,-0.6143477036297321,0.7642056721419096
1772619272639658000,6.651657958984375,0.009808861830830573,-0.7176596095442771,0.8464463676508516
1772619272649688800,6.661688720703125,0.0032698154509067535,-0.7898553694441914,0.8620088245723396
1772619272659719000,6.671718994140625,-0.06769289552271365,-0.8571852768734097,0.8755341496430337
1772619272669750000,6.68175,-0.2201227603495121,-0.9120391490891575,0.8903696805294603
1772619272679780900,6.69178076171875,-0.44302726037204265,-0.9127674633637071,0.910300561793521
1772619272689812000,6.70181201171875,-0.7278162618994712,-0.8535264621049166,0.9254561914797872
1772619272699842800,6.7118427734375,-0.9754904615193605,-0.7643599859207868,0.9140287885364144
1772619272709874000,6.7218740234375,-1.1047674142956734,-0.6271817585006356,0.8796079018879681
1772619272719905000,6.731905029296875,-1.183687806275487,-0.5248682159736752,0.8614375274904071
1772619272729936000,6.741935791015625,-1.418957866874337,-0.2680637844368815,0.8438383040443063
1772619272739967000,6.751967041015625,-1.5587714112341402,-0.059441784527897834,0.7120307368118316
1772619272749997800,6.761997802734375,-1.8308172510445118,0.23271423863619564,0.8871500608958304
1772619272760029000,6.77202880859375,-1.9717554155200718,0.5654144536346197,0.9349663626249879
1772619272770059800,6.782059814453125,-1.916528618338704,0.7495210209682583,1.0264274525523185
1772619272780091000,6.7920908203125,-1.704611960798502,0.9195610690265893,1.2125623108431696
1772619272790121700,6.802121826171875,-1.3847645053714512,1.1040414381086825,1.2424527144551276
1772619272800153000,6.812153076171875,-1.030287050589919,1.1787822063162923,1.1994764731682837
1772619272810184000,6.822183837890625,-0.5692635302782059,1.1800927043929696,1.1100785993810742
1772619272820215000,6.832215087890625,-0.0706716190725565,1.1264327181369065,0.968227192518115
1772619272830246000,6.842245849609375,0.3304682181626558,1.0178516396477817,0.7880565033286809
1772619272840277000,6.852277099609375,0.6829074451148509,0.8672294087648391,0.6472009756352752
1772619272850307800,6.862307861328125,0.9333066857844591,0.7550599503949285,0.49539267677292226
1772619272860339000,6.8723388671875,1.0819137774527072,0.6372390421345829,0.3678296152424067
1772619272870369800,6.882369873046875,1.1422820291757583,0.5178144980698823,0.15364033659510312
1772619272880401000,6.89240087890625,1.198383855625987,0.39706922679543494,-0.07285173959061503
1772619272890432000,6.902431884765625,1.2159160051852465,0.30784429842233657,-0.28064824846088887
1772619272900462800,6.912462890625,1.1272405273884534,0.3048699587866664,-0.467928550459817
1772619272910494000,6.922493896484375,0.968365139684081,0.36675241446495055,-0.5431682811655104
1772619272920524800,6.93252490234375,0.7215162849724293,0.520004701590538,-0.49726007807999845
1772619272930556000,6.942555908203125,0.44518706875443453,0.7380310741826891,-0.32379319737814366
1772619272940586800,6.952586669921875,0.1764952155470848,0.9525622981354593,-0.18150325296744704
1772619272950617900,6.962617919921875,-0.03766191439628601,1.1529966076746583,-0.1254983840856701
1772619272960649000,6.97264892578125,-0.10644202063381672,1.277954235947132,-0.17167999728508293
1772619272970680000,6.98268017578125,-0.09098959995806216,1.2568006810203194,-0.24926592579074203
1772619272980711000,6.9927109375,0.1012450365126133,1.0740817686527966,-0.3257566794708371
1772619272990742000,7.002741943359375,0.29977088208198543,0.8277592759028076,-0.37639074203446504
1772619273000772000,7.012772216796875,0.3341273251920938,0.6586787205263972,-0.45610264971815045
1772619273010803000,7.022802978515625,0.3503191660583019,0.5060983413130045,-0.52834458684735
1772619273020834000,7.032833984375,0.3366992215067148,0.3898603183299303,-0.5276769167188554
1772619273030865000,7.042864990234375,0.2742272755026817,0.31763796268403527,-0.5437779374964535
1772619273040896000,7.05289599609375,0.23284604832231998,0.3161822109177708,-0.6232498258791863
1772619273050926800,7.0629267578125,0.22153321166932582,0.3148217362195253,-0.7038203962188214
1772619273060958000,7.0729580078125,0.19379414087235927,0.31456951502412556,-0.691647654800862
1772619273070988800,7.08298876953125,0.1027519339442253,0.3622171091228723,-0.5617031780265271
1772619273081020000,7.09302001953125,-0.13863164109885692,0.4276964202493429,-0.439748823223263
1772619273091050800,7.10305078125,-0.44681379317343234,0.5467530077844858,-0.3554768410824239
1772619273101081900,7.113081787109375,-0.6309171456366777,0.6014268472582102,-0.3971400270093232
1772619273111113000,7.123113037109375,-0.5594792183667421,0.513883880622685,-0.5315611377410591
1772619273121143800,7.133143798828125,-0.40234804398119445,0.35150077705830335,-0.5009563022494316
1772619273131175000,7.1431748046875,-0.31354338684678074,0.27238983094245195,-0.5062940100155771
1772619273141206000,7.1532060546875,-0.24216800341904163,0.24100655842423438,-0.517218285742402
1772619273151237000,7.163237060546875,-0.22583529277741907,0.20203882212638855,-0.40287973970510066
1772619273161268000,7.17326806640625,-0.24347090271115301,0.20875117924660444,-0.2987591477561742
1772619273171299000,7.183299072265625,-0.25396833132803437,0.2564563487514853,-0.2550236125346273
1772619273181330000,7.193329833984375,-0.239293324765563,0.25115268938541413,-0.2642128811623901
1772619273191361000,7.203361083984375,-0.1877186203509569,0.2178890099480748,-0.24947759578004478
1772619273201391900,7.213391845703125,-0.10081892005503178,0.15138035577386616,-0.28419848828837274
1772619273211423000,7.223423095703125,-0.011107669469714164,0.06664835490584373,-0.3433426781091839
1772619273221453800,7.233453857421875,0.037063948503136636,0.0488338812738657,-0.2793228450760245
1772619273231485000,7.24348486328125,0.04449322172105312,0.08028349702656269,-0.1556537953093648
1772619273241515800,7.253515869140625,0.09064297847747803,0.11606705033034086,-0.07113529106155038
1772619273251547000,7.263546875,0.1802110211998224,0.1314499129012227,0.00047433951348066326
1772619273261577700,7.27357763671875,0.26949907793700695,0.08624357447475195,0.043224297763779757
1772619273271608800,7.28360888671875,0.4042722900420427,-0.001839198125898838,-0.03193820298723876
1772619273281640000,7.293639892578125,0.4963982005536556,-0.11349135462343692,-0.13667349276840687
1772619273291670800,7.3036708984375,0.5091489610552787,-0.18102175306081772,-0.11950937280394136
1772619273301702100,7.3137021484375,0.5156599503844976,-0.21429244676083326,-0.11352847176343202
1772619273311733000,7.32373291015625,0.4844646016538143,-0.21636779173016546,-0.10446633664667605
1772619273321764000,7.33376416015625,0.4546136532694101,-0.25470804377943274,-0.05945858953222632
1772619273331795000,7.343794921875,0.4134042755246162,-0.3036000849813223,-0.06801686678007245
1772619273341825000,7.353824951171875,0.41258828296661376,-0.34200229635089635,-0.10244294106028974
1772619273351855900,7.36385595703125,0.4604875137388706,-0.4097992367699742,-0.15243695215471087
1772619273361887000,7.373886962890625,0.5174947645962238,-0.5031614110782742,-0.16146423515379427
1772619273371918000,7.38391796875,0.47581367768645283,-0.5456561524584889,-0.15322342635728417
1772619273381949000,7.393948974609375,0.365660527575016,-0.5446747402057052,-0.10624803243167698
1772619273391980000,7.40397998046875,0.2768295669555664,-0.5245400069326162,-0.12441709165498614
1772619273402011000,7.414010986328125,0.21496727728247642,-0.5392269961938262,-0.09358750749677419
1772619273412042000,7.4240419921875,0.21606559391319752,-0.5832710128426551,-0.060158262234181165
1772619273422072800,7.43407275390625,0.2515495797485113,-0.6194479493781924,-0.051225087259337304
1772619273432104000,7.44410400390625,0.3131897511035204,-0.638578181783855,-0.0596853109601885
1772619273442134800,7.454134765625,0.36159342426657676,-0.6714122376322745,-0.09782046889141201
1772619273452166000,7.464165771484375,0.37290450735390185,-0.6931009223490953,-0.128284434607625
1772619273462196700,7.47419677734375,0.4312772013455629,-0.6731824621751904,-0.11234773754626512
1772619273472227800,7.484227783203125,0.5189917251557111,-0.6933160264045,-0.09264766936339437
1772619273482258700,7.4942587890625,0.551868158841133,-0.7677578116655349,-0.10224413055256008
1772619273492289800,7.504289794921875,0.5284130489736795,-0.8400488486334681,-0.2739455359518528
1772619273502320600,7.514320556640625,0.4489484671145677,-0.9082514472439884,-0.3252557442113757
1772619273512351700,7.524351806640625,0.3757289171248674,-0.7938347944691777,-0.254018454080075
1772619273522382800,7.5343828125,0.20893734946846962,-0.6958309318348765,-0.1949209529452026
1772619273532414000,7.5444140625,-0.01918926911652088,-0.6288543678879738,-0.20711751363016664
1772619273542445000,7.554445068359375,-0.2955956422239542,-0.5124836584359407,-0.32801731787919997
1772619273552476000,7.564475830078125,-0.4957528883874416,-0.37941988059729337,-0.30703941178023814
1772619273562507000,7.574507080078125,-0.6011228958755731,-0.27982787198871373,-0.17524243900701403
1772619273572537900,7.584537841796875,-0.6197282276242971,-0.18178484638780354,-0.021207623201608655
1772619273582569000,7.59456884765625,-0.6422779130846261,-0.0830015238136053,0.09322057388052343
1772619273592599800,7.604599853515625,-0.6297907719552517,0.01710837118923664,0.1452897838138044
1772619273602631000,7.614630859375,-0.5618962163805962,0.06860124253928661,0.05350274986773729
1772619273612661800,7.624661865234375,-0.4901894090414047,-0.05206657958477735,-0.03429638348594308
1772619273622692900,7.63469287109375,-0.41107612483799455,-0.16877338912338016,-0.25058131923824545
1772619273632723700,7.6447236328125,-0.37603696016073224,-0.33550562780797477,-0.46192485306560993
1772619273642754800,7.6547548828125,-0.47492988058924673,-0.4677817624002695,-0.5350315903306007
1772619273652785700,7.66478564453125,-0.6879425166726112,-0.46710459379106756,-0.5296195021539927
1772619273662816800,7.674816650390625,-0.9576771569311618,-0.36190614347755906,-0.5142809171162546
1772619273672848000,7.684847900390625,-1.2183259889364242,-0.17217735234797,-0.5129376858137548
1772619273682877700,7.694877685546875,-1.4174766884058714,0.05622223795950412,-0.4813227964967489
1772619273692908800,7.70490869140625,-1.5202964268893002,0.26504502113759515,-0.4189554799109697
1772619273702939600,7.714939697265625,-1.441840145289898,0.4182727583438158,-0.3562424186274409
1772619273712971000,7.724970947265625,-1.238016777834296,0.5030272633045911,-0.34133331104815007
1772619273723001900,7.735001953125,-0.9187631966471671,0.5001239430785179,-0.2587932672664523
1772619273733033000,7.745032958984375,-0.605004121223092,0.5239563618257641,-0.11379866700693965
1772619273743063800,7.755063720703125,-0.3894938231050968,0.5424249154523014,0.03862783681899309
1772619273753095000,7.765094970703125,-0.24008885905742644,0.6076908760890364,0.147359721955657
1772619273763126000,7.7751259765625,-0.16922142515182495,0.6550988162130117,0.16545286639854312
1772619273773156900,7.785156982421875,-0.12963818730413912,0.6431035502538085,0.10234466831758618
1772619273783188000,7.79518798828125,-0.16777824060618876,0.6118643623813986,-0.051453123861551285
1772619273793218800,7.80521875,-0.16108254235982894,0.5561974202170967,-0.2525844757542014
1772619273803250000,7.81525,-0.08065116129517555,0.5462488576546312,-0.37806159785613414
1772619273813280800,7.82528076171875,0.04851648588776588,0.5849360234454274,-0.3937880131676793
1772619273823312000,7.835311767578125,0.17382102790176868,0.6592287556245923,-0.2935010080322623
1772619273833342700,7.8453427734375,0.24508184503912925,0.7626108041658997,-0.06680661420747637
1772619273843373800,7.855373779296875,0.2678285143762827,0.919162717358768,0.17001549813896416
1772619273853404700,7.86540478515625,0.2711521058410406,1.08861327509135,0.4262437372229993
1772619273863436000,7.87543603515625,0.3400976317733526,1.2551885696485638,0.5968940261341631
1772619273873467000,7.885466796875,0.445846409446001,1.3236024729222058,0.7247326166704297
1772619273883498000,7.895498046875,0.571667084288597,1.325327397018671,0.7819519028432667
1772619273893528800,7.90552880859375,0.679336016368866,1.289448274385929,0.7469072582732885
1772619273903560000,7.915559814453125,0.7649754874706268,1.2506725535288452,0.6756120274096727
1772619273913590800,7.9255908203125,0.8152432009398937,1.1415592678591608,0.5763854180473834
1772619273923622000,7.935621826171875,0.7404378430634737,1.0373264477074147,0.5185589597616345
1772619273933653000,7.945653076171875,0.5151338806837796,0.927890798215568,0.42755854614861305
1772619273943683800,7.955683837890625,0.2500280692696571,0.8758017145380377,0.27184556799791754
1772619273953715000,7.96571484375,0.0516004233777523,0.8004588887840509,0.21391016944497823
1772619273963745800,7.975745849609375,-0.07045534597337245,0.7271832246929407,0.2387816489163786
1772619273973777000,7.98577685546875,-0.06541326015293598,0.713228641359508,0.23207776736356317
1772619273983807700,7.995807861328125,0.06355915671885014,0.6420519953742623,0.22606603279337287
1772619273993838800,8.0058388671875,0.2709580445736646,0.5424301761493087,0.2698964066915214
1772619274003869700,8.01586962890625,0.435652347689867,0.5121443434789776,0.30920659975148734
1772619274013900800,8.02590087890625,0.5305266801267862,0.5147860901594161,0.3474785358048975
1772619274023932000,8.035931884765626,0.5053092367619276,0.5455120678126811,0.4385924197297543
1772619274033961700,8.045961669921875,0.5045160405576229,0.5972413782671093,0.5114339301872998
1772619274043992800,8.055992919921875,0.37232933781445027,0.5729518634021282,0.5250190226212144
1772619274054024000,8.06602392578125,0.06665770725607871,0.503301696331799,0.41143348690830167
1772619274064055000,8.076054931640625,-0.41330666036903857,0.37424656961262226,0.18983137472122907
1772619274074086000,8.0860859375,-0.5535042356103659,0.21319734500050544,0.01718582033962011
1772619274084117000,8.096116943359375,-0.604786094558239,0.23277707473933695,-0.31298224583268164
1772619274094147800,8.10614794921875,-0.5212906497478484,0.09845043735802173,-0.35474779615551233
1772619274104179000,8.116178955078125,-0.4089519722908735,0.06733984430134296,-0.28614838024713096
