time,seconds_elapsed,z,y,x
1772619266059340000,0.071340087890625,0.003130015218630433,-0.0015132352709770203,-0.001286665559746325
1772619266069371100,0.08137109375,-0.0144985131919384,-0.015510277822613716,-0.010449271649122238
1772619266079402200,0.09140234375,-0.030806798487901688,-0.030953040346503258,-0.020421087741851807
1772619266089433000,0.10143310546875,-0.03774859383702278,-0.03766287490725517,-0.022763870656490326
1772619266099464200,0.111464111328125,-0.04093243554234505,-0.04570993036031723,-0.019359037280082703
1772619266109495000,0.1214951171875,-0.03850310295820236,-0.06009393185377121,-0.01495177298784256
1772619266119526100,0.131526123046875,-0.04070068150758743,-0.07487402111291885,-0.010276664979755878
1772619266129557200,0.14155712890625,-0.0377885177731514,-0.07504553347826004,0.0012777255615219474
1772619266139588000,0.151588134765625,-0.03254454582929611,-0.06664051115512848,0.014990413561463356
1772619266149619200,0.161619140625,-0.02788640931248665,-0.05243467912077904,0.022200122475624084
1772619266159650000,0.171650146484375,-0.0224292129278183,-0.045908406376838684,0.028611160814762115
1772619266169681200,0.18168115234375,-0.013934528455138206,-0.044170960783958435,0.02563214860856533
1772619266179712000,0.1917119140625,-0.000129026360809803,-0.060031868517398834,0.020775148645043373
1772619266189743000,0.2017431640625,0.013539914041757584,-0.08334784209728241,0.020241983234882355
1772619266199774000,0.21177392578125,0.02358507178723812,-0.11444021016359329,0.023333316668868065
1772619266209805000,0.22180517578125,0.03878692910075188,-0.15375378727912903,0.038672856986522675
1772619266219836200,0.231836181640625,0.0521167516708374,-0.19768500328063965,0.05750518664717674
1772619266229867300,0.2418671875,0.06358779221773148,-0.24817240238189697,0.07820300757884979
1772619266239898000,0.251898193359375,0.06786198914051056,-0.2972036302089691,0.0890878289937973
1772619266249929200,0.26192919921875,0.06720365583896637,-0.3470495045185089,0.0907464474439621
1772619266259960000,0.2719599609375,0.0622897632420063,-0.3853031098842621,0.08727879822254181
1772619266269991200,0.2819912109375,0.05166774243116379,-0.3914182782173157,0.07670631259679794
1772619266280022300,0.292022216796875,0.03961058333516121,-0.3637831211090088,0.06430178135633469
1772619266290053000,0.30205322265625,0.03710135444998741,-0.30406439304351807,0.036864832043647766
1772619266300083200,0.312083251953125,0.040752608329057693,-0.2231389880180359,0.0005944488802924752
1772619266310114000,0.322114013671875,0.04462883621454239,-0.13508902490139008,-0.03639739006757736
1772619266320145200,0.332145263671875,0.0465480200946331,-0.05549014359712601,-0.06986718624830246
1772619266330176000,0.342176025390625,0.04495145380496979,0.004196090158075094,-0.09769163280725479
1772619266340207000,0.35220703125,0.040597934275865555,0.04506148397922516,-0.1255563646554947
1772619266350238200,0.36223828125,0.035716358572244644,0.05964895337820053,-0.13708172738552094
1772619266360269000,0.37226904296875,0.029691455885767937,0.06139088049530983,-0.13006751239299774
1772619266370300400,0.382300537109375,0.027531366795301437,0.04560099542140961,-0.11089835315942764
1772619266380331300,0.392331298828125,0.028046321123838425,0.02562255971133709,-0.09169191122055054
1772619266390362400,0.4023623046875,0.028090529143810272,0.004425395745784044,-0.075509212911129
1772619266400393200,0.412393310546875,0.026599792763590813,-0.02093595452606678,-0.06156621873378754
1772619266410424600,0.422424560546875,0.0287494957447052,-0.0469646230340004,-0.05424811691045761
1772619266420455400,0.432455322265625,0.028846319764852524,-0.051020730286836624,-0.04761563986539841
1772619266430486500,0.442486572265625,0.03804114833474159,-0.0249387938529253,-0.04115507751703262
1772619266440517400,0.452517333984375,0.04715166985988617,0.0061926026828587055,-0.04495901241898537
1772619266450548500,0.462548583984375,0.05937851220369339,0.04056309163570404,-0.049031518399715424
1772619266460579300,0.472579345703125,0.06775146722793579,0.07091233879327774,-0.06186067312955856
1772619266470610400,0.4826103515625,0.0664270743727684,0.09766005724668503,-0.07827932387590408
1772619266480641300,0.492641357421875,0.060219183564186096,0.12365197390317917,-0.09072282910346985
1772619266490672400,0.50267236328125,0.04765358567237854,0.1528889536857605,-0.09665102511644363
1772619266500703200,0.512703125,0.0361357145011425,0.17702701687812805,-0.08918073028326035
1772619266510734300,0.522734375,0.031154273077845573,0.1974944770336151,-0.0717945471405983
1772619266520765200,0.53276513671875,0.027193676680326462,0.21070685982704163,-0.04009341448545456
1772619266530796300,0.54279638671875,0.02761152759194374,0.1975095570087433,-0.023088864982128143
1772619266540827400,0.552827392578125,0.026129212230443954,0.17613796889781952,-0.011671362444758415
1772619266550858200,0.562858154296875,0.021749377250671387,0.1514376699924469,-0.020768454298377037
1772619266560889600,0.5728896484375,0.011216394603252411,0.11789815872907639,-0.040728744119405746
1772619266570920400,0.58292041015625,-0.007664884906262159,0.07282628118991852,-0.06765197217464447
1772619266580951600,0.59295166015625,-0.025905407965183258,0.032138507813215256,-0.09002465754747391
1772619266590982400,0.602982421875,-0.04595474898815155,-0.0030572954565286636,-0.10168424248695374
1772619266601013500,0.613013427734375,-0.06460011750459671,-0.03477741777896881,-0.11231619119644165
1772619266611044400,0.62304443359375,-0.0749283954501152,-0.046472690999507904,-0.12470095604658127
1772619266621075500,0.633075439453125,-0.08936642110347748,-0.04428325593471527,-0.14022743701934814
1772619266631106300,0.643106201171875,-0.09990880638360977,-0.02894717827439308,-0.1522207111120224
1772619266641137400,0.653137451171875,-0.10910000652074814,-0.005871389992535114,-0.17118076980113983
1772619266651168300,0.663168212890625,-0.1065921038389206,0.02072826214134693,-0.18009144067764282
1772619266661198300,0.6731982421875,-0.09759767353534698,0.04535156488418579,-0.1833876073360443
1772619266671229400,0.6832294921875,-0.09006066620349884,0.06375294178724289,-0.1721794158220291
1772619266681260300,0.69326025390625,-0.07876110076904297,0.07066549360752106,-0.15559349954128265
1772619266691291400,0.70329150390625,-0.07721966505050659,0.06261209398508072,-0.14681865274906158
1772619266701322200,0.713322265625,-0.0769161507487297,0.04837113618850708,-0.13087238371372223
1772619266711353300,0.723353271484375,-0.07889141887426376,0.04330394044518471,-0.12382379919290543
1772619266721384200,0.73338427734375,-0.08296234905719757,0.03705868870019913,-0.11595407128334045
1772619266731415300,0.743415283203125,-0.08198577165603638,0.03757454454898834,-0.11248024553060532
1772619266741446100,0.753446044921875,-0.07239760458469391,0.045222166925668716,-0.11400022357702255
1772619266751477500,0.7634775390625,-0.06787422299385071,0.06058487668633461,-0.1139480248093605
1772619266761508400,0.77350830078125,-0.05974142625927925,0.07668107002973557,-0.11908364295959473
1772619266771539500,0.78353955078125,-0.05229656398296356,0.0873052179813385,-0.12414737790822983
1772619266781570600,0.793570556640625,-0.05007488280534744,0.10330824553966522,-0.11389870196580887
1772619266791601400,0.803601318359375,-0.047617848962545395,0.10496021062135696,-0.10179303586483002
1772619266801632500,0.813632568359375,-0.04765138402581215,0.09148688614368439,-0.0848998948931694
1772619266811663400,0.823663330078125,-0.04387395828962326,0.0674755647778511,-0.06870654225349426
1772619266821694500,0.833694580078125,-0.04370419681072235,0.0439266674220562,-0.05274635925889015
1772619266831725300,0.843725341796875,-0.04777750372886658,0.009931948035955429,-0.047530557960271835
1772619266841756400,0.85375634765625,-0.05030741170048714,-0.024707285687327385,-0.03956243395805359
1772619266851787300,0.863787353515625,-0.060223426669836044,-0.04635665565729141,-0.030454955995082855
1772619266861818400,0.873818359375,-0.06332612782716751,-0.048218049108982086,-0.02478174865245819
1772619266871849200,0.88384912109375,-0.07380832731723785,-0.0464816689491272,-0.01732010394334793
1772619266881880300,0.89388037109375,-0.07427681237459183,-0.04983534291386604,-0.012717226520180702
1772619266891911200,0.9039111328125,-0.07915759086608887,-0.057178743183612823,-0.01180243119597435
1772619266901942300,0.9139423828125,-0.0848771408200264,-0.06447601318359375,-0.019844477996230125
1772619266911973400,0.923973388671875,-0.08609607070684433,-0.07409428805112839,-0.026684541255235672
1772619266922004500,0.93400439453125,-0.1005382090806961,-0.09738559275865555,-0.03925629332661629
1772619266932035300,0.944035400390625,-0.11866021901369095,-0.13968084752559662,-0.054765213280916214
1772619266942066400,0.95406640625,-0.14063502848148346,-0.20023606717586517,-0.073792964220047
1772619266952097500,0.96409765625,-0.16720326244831085,-0.2653639614582062,-0.08715084940195084
1772619266962128400,0.97412841796875,-0.18521548807621002,-0.3180442750453949,-0.08566274493932724
1772619266972159500,0.984159423828125,-0.200626403093338,-0.33723607659339905,-0.06178777664899826
1772619266982190300,0.9941904296875,-0.208830788731575,-0.3346826732158661,-0.03189559280872345
1772619266992221400,1.004221435546875,-0.21086065471172333,-0.3028634786605835,-0.0026311809197068214
1772619267002252300,1.014252197265625,-0.21114686131477356,-0.2554074823856354,0.020546352490782738
1772619267012283400,1.024283447265625,-0.20281782746315002,-0.19335022568702698,0.034964170306921005
1772619267022314200,1.034314208984375,-0.19075149297714233,-0.12484336644411087,0.03601393848657608
1772619267032344300,1.04434423828125,-0.18055051565170288,-0.0695020779967308,0.03709198534488678
1772619267042375400,1.05437548828125,-0.1755485236644745,-0.04317086562514305,0.02714036963880062
1772619267052406300,1.06440625,-0.17165391147136688,-0.046906478703022,0.02719895914196968
1772619267062437400,1.074437255859375,-0.17193175852298737,-0.05247148126363754,0.025349024683237076
1772619267072468200,1.08446826171875,-0.17315654456615448,-0.058675047010183334,0.035936690866947174
1772619267082499300,1.094499267578125,-0.17533063888549805,-0.0660376027226448,0.04255940765142441
1772619267092530200,1.1045302734375,-0.1735343337059021,-0.06451507657766342,0.055601440370082855
1772619267102561500,1.1145615234375,-0.1626623272895813,-0.04937364161014557,0.066262386739254
1772619267112592400,1.12459228515625,-0.14996890723705292,-0.02844572253525257,0.06695134937763214
1772619267122623500,1.13462353515625,-0.13205847144126892,-0.0100612323731184,0.06634775549173355
1772619267132654300,1.144654296875,-0.11565952748060226,-0.006745063699781895,0.04847261682152748
1772619267142685400,1.154685546875,-0.09324068576097488,-0.04401141777634621,0.022203031927347183
1772619267152716300,1.16471630859375,-0.0656849592924118,-0.10011995583772659,0.016118241474032402
1772619267162747400,1.174747314453125,-0.04505820572376251,-0.1640661358833313,0.029385864734649658
1772619267172778200,1.1847783203125,-0.036887627094984055,-0.2215997278690338,0.055293358862400055
1772619267182809300,1.194809326171875,-0.03212548792362213,-0.2726759910583496,0.07273469865322113
1772619267192840400,1.20484033203125,-0.0349271334707737,-0.31724587082862854,0.07659149169921875
1772619267202871300,1.214871337890625,-0.047133490443229675,-0.3313215970993042,0.06779143959283829
1772619267212902400,1.22490234375,-0.06239872798323631,-0.3134981393814087,0.04049057140946388
1772619267222933200,1.234933349609375,-0.0889386385679245,-0.2714822590351105,0.013398179784417152
1772619267232964400,1.24496435546875,-0.11588423699140549,-0.19147904217243195,-0.006618404295295477
1772619267242995200,1.2549951171875,-0.1421215832233429,-0.08152762800455093,-0.013572663068771362
1772619267253026300,1.2650263671875,-0.15833145380020142,0.0590105839073658,-0.016704007983207703
1772619267263057400,1.275057373046875,-0.14133736491203308,0.21485956013202667,-0.021335389465093613
1772619267273088500,1.285088623046875,-0.10697540640830994,0.34894731640815735,-0.024612942710518837
1772619267283119400,1.295119384765625,-0.06129296123981476,0.4274546802043915,-0.022433094680309296
1772619267293150500,1.305150390625,-0.018013129010796547,0.4365139305591583,0.006111199036240578
1772619267303181300,1.315181396484375,0.02699935808777809,0.3885553777217865,0.0626709908246994
1772619267313212400,1.32521240234375,0.06331449002027512,0.3082166016101837,0.15541742742061615
1772619267323243300,1.3352431640625,0.0983983501791954,0.21382275223731995,0.2703379690647125
1772619267333274400,1.3452744140625,0.11661277711391449,0.1167294979095459,0.39295974373817444
1772619267343305500,1.355305419921875,0.12644758820533752,0.01319010742008686,0.5101298093795776
1772619267353336300,1.36533642578125,0.10680066049098969,-0.07914967834949493,0.605889081954956
1772619267363367400,1.375367431640625,0.07737559825181961,-0.14531263709068298,0.6755704879760742
1772619267373398500,1.3853984375,0.0348995104432106,-0.1800099015235901,0.7072136402130127
1772619267383428600,1.3954287109375,-0.01535007730126381,-0.194700688123703,0.7102131843566895
1772619267393459500,1.40545947265625,-0.07320059090852737,-0.18144160509109497,0.6759209632873535
1772619267403490600,1.415490478515625,-0.13412632048130035,-0.15069524943828583,0.6090081930160522
1772619267413521400,1.425521484375,-0.19442561268806458,-0.09905282407999039,0.5182788372039795
1772619267423552500,1.435552490234375,-0.24926155805587769,-0.03317991644144058,0.4148236811161041
1772619267433583600,1.44558349609375,-0.2860051989555359,0.04355321079492569,0.3066343665122986
1772619267443614500,1.455614501953125,-0.295520156621933,0.1320449411869049,0.2090316265821457
1772619267453645600,1.4656455078125,-0.2856898903846741,0.19812729954719543,0.1344039887189865
1772619267463676400,1.475676513671875,-0.2633100748062134,0.22937671840190887,0.07859715074300766
1772619267473707500,1.48570751953125,-0.23717808723449707,0.2228011041879654,0.03743506222963333
1772619267483738400,1.49573828125,-0.21075622737407684,0.17847174406051636,0.0037345942109823227
1772619267493769500,1.50576953125,-0.188367560505867,0.1194654181599617,-0.02510664239525795
1772619267503800300,1.51580029296875,-0.15444642305374146,0.06893427670001984,-0.03974587470293045
1772619267513831400,1.52583154296875,-0.11455759406089783,0.03284392133355141,-0.030505768954753876
1772619267523862500,1.535862548828125,-0.06287822127342224,0.01599693112075329,-0.006063585635274649
1772619267533893600,1.5458935546875,0.001075461506843567,0.01245892234146595,0.03210696950554848
1772619267543924500,1.555924560546875,0.07806839793920517,0.02086925320327282,0.0766424685716629
1772619267553955600,1.56595556640625,0.16306345164775848,0.030056359246373177,0.12043256312608719
1772619267563986400,1.575986328125,0.22867077589035034,0.01662450097501278,0.1636136919260025
1772619267574017500,1.586017578125,0.2846682667732239,-0.011013785377144814,0.1893041431903839
1772619267584048400,1.59604833984375,0.3155650794506073,-0.03455037996172905,0.1985904574394226
1772619267594079500,1.60607958984375,0.32822975516319275,-0.07533242553472519,0.1912316083908081
1772619267604110600,1.616110595703125,0.32827118039131165,-0.09699531644582748,0.1679992526769638
1772619267614141400,1.626141357421875,0.30942055583000183,-0.08029302954673767,0.1344628632068634
1772619267624172500,1.636172607421875,0.27467700839042664,-0.04909750074148178,0.09623222053050995
1772619267634203400,1.646203369140625,0.23768223822116852,-0.026028135791420937,0.04098973423242569
1772619267644234500,1.656234375,0.21616126596927643,0.0010149823501706123,-0.019030969589948654
1772619267654265300,1.666265380859375,0.20285186171531677,0.033313531428575516,-0.06689649820327759
1772619267664296400,1.67629638671875,0.19905412197113037,0.07305285334587097,-0.10611052066087723
1772619267674327300,1.686327392578125,0.19918248057365417,0.10505659133195877,-0.13122226297855377
1772619267684358700,1.696358642578125,0.20374348759651184,0.12658995389938354,-0.14840547740459442
1772619267694389500,1.706389404296875,0.20298555493354797,0.13160201907157898,-0.15775556862354279
1772619267704420600,1.716420654296875,0.19013522565364838,0.1221991553902626,-0.17710638046264648
1772619267714451500,1.726451416015625,0.1787230521440506,0.10032927244901657,-0.20130012929439545
1772619267724481500,1.7364814453125,0.1658780872821808,0.07020341604948044,-0.2137441337108612
1772619267734512600,1.7465126953125,0.15852856636047363,0.04447142034769058,-0.21680942177772522
1772619267744543500,1.75654345703125,0.16013562679290771,0.026478856801986694,-0.21343974769115448
1772619267754574600,1.76657470703125,0.1554516702890396,0.013352934271097183,-0.21389755606651306
1772619267764605400,1.77660546875,0.14736011624336243,0.0276696365326643,-0.2042214274406433
1772619267774636500,1.786636474609375,0.13783612847328186,0.057317011058330536,-0.20104826986789703
1772619267784667400,1.79666748046875,0.12416024506092072,0.09038587659597397,-0.19892217218875885
1772619267794698500,1.806698486328125,0.11491641402244568,0.11094281077384949,-0.19715464115142822
1772619267804729300,1.816729248046875,0.11228027939796448,0.1284015029668808,-0.19200976192951202
1772619267814760400,1.826760498046875,0.11222462356090546,0.13178132474422455,-0.17331276834011078
1772619267824791600,1.83679150390625,0.1130237802863121,0.12646937370300293,-0.15382249653339386
1772619267834822400,1.846822509765625,0.10926872491836548,0.11986206471920013,-0.123008131980896
1772619267844853500,1.856853515625,0.10558225214481354,0.11828252673149109,-0.09928546100854874
1772619267854884400,1.86688427734375,0.10504109412431717,0.11735867708921432,-0.07760945707559586
1772619267864915700,1.876915771484375,0.10032043606042862,0.10094527155160904,-0.07000673562288284
1772619267874946600,1.886946533203125,0.09253468364477158,0.08264429122209549,-0.0691145807504654
1772619267884977700,1.896977783203125,0.08681502193212509,0.07091590762138367,-0.07494039833545685
1772619267895008500,1.907008544921875,0.08128949254751205,0.07625208050012589,-0.08192133903503418
1772619267905039600,1.91703955078125,0.0725625604391098,0.08911368250846863,-0.08565660566091537
1772619267915070500,1.927070556640625,0.07180596143007278,0.10778456926345825,-0.0806029886007309
1772619267925101600,1.9371015625,0.06845385581254959,0.12704819440841675,-0.07070284336805344
1772619267935132400,1.94713232421875,0.059263020753860474,0.14330466091632843,-0.06081905588507652
1772619267945163500,1.95716357421875,0.055247001349925995,0.1487639844417572,-0.05092090740799904
1772619267955194400,1.9671943359375,0.04864955320954323,0.1365872025489807,-0.040852028876543045
1772619267965225500,1.9772255859375,0.05322684347629547,0.12171604484319687,-0.028742359951138496
1772619267975256300,1.98725634765625,0.06501506268978119,0.10507075488567352,-0.01599700376391411
1772619267985287400,1.997287353515625,0.07028704881668091,0.08198904246091843,0.0004657077370211482
1772619267995318500,2.007318603515625,0.07908827066421509,0.06504494696855545,0.01647130586206913
1772619268005349400,2.017349365234375,0.08421415090560913,0.05942325294017792,0.039055127650499344
1772619268015380500,2.02738037109375,0.0883130207657814,0.06854351609945297,0.07176487147808075
1772619268025411600,2.03741162109375,0.09103438258171082,0.08140141516923904,0.10369338095188141
1772619268035442700,2.047442626953125,0.09656497091054916,0.0984424501657486,0.14734207093715668
1772619268045473500,2.0574736328125,0.11376691609621048,0.11381848901510239,0.1859491914510727
1772619268055503600,2.067503662109375,0.13592147827148438,0.1447170227766037,0.22835230827331543
1772619268065534500,2.077534423828125,0.1586846560239792,0.17105019092559814,0.2520211935043335
1772619268075565600,2.087565673828125,0.18260276317596436,0.18541660904884338,0.256807416677475
1772619268085596700,2.0975966796875,0.20655781030654907,0.18132594227790833,0.24236738681793213
1772619268095627500,2.10762744140625,0.21793749928474426,0.1667776256799698,0.20710155367851257
1772619268105658600,2.11765869140625,0.23234277963638306,0.14388254284858704,0.1632329821586609
1772619268115689500,2.127689453125,0.24774092435836792,0.1332312375307083,0.11675470322370529
1772619268125720600,2.137720458984375,0.26824548840522766,0.12191641330718994,0.07601578533649445
1772619268135751400,2.14775146484375,0.2907145619392395,0.09464617818593979,0.01906382106244564
1772619268145782500,2.157782470703125,0.3055272400379181,0.04738299548625946,-0.051253318786621094
1772619268155813400,2.1678134765625,0.3063781261444092,-0.026952488347887993,-0.13435885310173035
1772619268165844500,2.177844482421875,0.2861388325691223,-0.13139916956424713,-0.23203517496585846
1772619268175875300,2.187875244140625,0.24946922063827515,-0.2454194873571396,-0.3139103353023529
1772619268185906400,2.197906494140625,0.2115555703639984,-0.32698947191238403,-0.34448695182800293
1772619268195937300,2.207937255859375,0.18620198965072632,-0.375255823135376,-0.31027543544769287
1772619268205968400,2.217968505859375,0.1834329515695572,-0.376150518655777,-0.20784057676792145
1772619268215999500,2.22799951171875,0.20910848677158356,-0.3337836265563965,-0.0599919930100441
1772619268226030600,2.238030517578125,0.2576367259025574,-0.26780858635902405,0.11767677217721939
1772619268236061700,2.248061767578125,0.32480672001838684,-0.19027304649353027,0.2908349633216858
1772619268246092500,2.258092529296875,0.3979623019695282,-0.10466069728136063,0.4271920621395111
1772619268256123600,2.26812353515625,0.45942166447639465,-0.025827933102846146,0.5149661302566528
1772619268266154500,2.278154541015625,0.4911392629146576,0.0542370043694973,0.5495073795318604
1772619268276185600,2.288185546875,0.5000144839286804,0.14297673106193542,0.5447264313697815
1772619268286216400,2.298216552734375,0.501187264919281,0.24630916118621826,0.5156258344650269
1772619268296247600,2.30824755859375,0.4844011068344116,0.35788655281066895,0.4711073338985443
1772619268306278400,2.3182783203125,0.455152302980423,0.44938740134239197,0.42606452107429504
1772619268316309500,2.3283095703125,0.42474833130836487,0.5091080069541931,0.3771984577178955
1772619268326340400,2.33834033203125,0.4004739820957184,0.526831328868866,0.324273943901062
1772619268336371500,2.348371337890625,0.3745608925819397,0.4944300055503845,0.2714879810810089
1772619268346402300,2.35840234375,0.35725054144859314,0.4250943660736084,0.21149100363254547
1772619268356433400,2.368433349609375,0.34091416001319885,0.33794108033180237,0.14620068669319153
1772619268366464300,2.37846435546875,0.3302363455295563,0.2398729920387268,0.06637861579656601
1772619268376495900,2.388495849609375,0.3207605481147766,0.14683891832828522,-0.003797813318669796
1772619268386526700,2.398526611328125,0.30479028820991516,0.06938451528549194,-0.058364689350128174
1772619268396556800,2.408556884765625,0.2882608473300934,0.00016789045184850693,-0.0979030430316925
1772619268406588000,2.418587890625,0.26629143953323364,-0.05971357971429825,-0.12136820703744888
1772619268416618800,2.42861865234375,0.24827224016189575,-0.11861524730920792,-0.13142085075378418
1772619268426649900,2.43864990234375,0.22770801186561584,-0.18034835159778595,-0.1331246793270111
1772619268436680700,2.4486806640625,0.19946280121803284,-0.23889395594596863,-0.13770663738250732
1772619268446712000,2.458712158203125,0.16762591898441315,-0.2862091064453125,-0.1506100594997406
1772619268456743000,2.468742919921875,0.12784841656684875,-0.3114050030708313,-0.1731579750776291
1772619268466774000,2.47877392578125,0.08059005439281464,-0.3105913996696472,-0.19253472983837128
1772619268476804900,2.488804931640625,0.03674057498574257,-0.28055891394615173,-0.20921863615512848
1772619268486836000,2.4988359375,0.005304392427206039,-0.20987147092819214,-0.2099144011735916
1772619268496866800,2.50886669921875,-0.005249182693660259,-0.10772939026355743,-0.1928829550743103
1772619268506898000,2.51889794921875,-0.002499086782336235,0.016979893669486046,-0.16240479052066803
1772619268516929000,2.528928955078125,0.011339230462908745,0.13697421550750732,-0.12284328043460846
1772619268526959900,2.5389599609375,0.03130171447992325,0.2257474809885025,-0.08743397891521454
1772619268536991000,2.548990966796875,0.04050826281309128,0.2685175836086273,-0.05446777492761612
1772619268547021800,2.559021728515625,0.04489144682884216,0.2710338532924652,-0.030268747359514236
1772619268557053000,2.569052978515625,0.033045973628759384,0.25518935918807983,-0.01837267354130745
1772619268567083800,2.579083740234375,0.01608993113040924,0.23275046050548553,-0.020966913551092148
1772619268577115000,2.589114990234375,-0.012467412278056145,0.19550588726997375,-0.03464490920305252
1772619268587145700,2.599145751953125,-0.050025537610054016,0.14647231996059418,-0.06412045657634735
1772619268597176800,2.6091767578125,-0.08303302526473999,0.10315015912055969,-0.10119405388832092
1772619268607208000,2.6192080078125,-0.1096990704536438,0.07757660746574402,-0.13241097331047058
1772619268617239000,2.629239013671875,-0.1274205446243286,0.060062065720558167,-0.15054257214069366
1772619268627270000,2.639269775390625,-0.1326543092727661,0.05108178034424782,-0.15612654387950897
1772619268637301000,2.649301025390625,-0.13976255059242249,0.04355382174253464,-0.15036559104919434
1772619268647331800,2.659331787109375,-0.14446516335010529,0.039518069475889206,-0.1357477605342865
1772619268657363000,2.669363037109375,-0.1556546986103058,0.0285346582531929,-0.11844281852245331
1772619268667394000,2.67939404296875,-0.1663435399532318,0.00650583952665329,-0.10270004719495773
1772619268677425000,2.6894248046875,-0.18937347829341888,-0.032586969435214996,-0.0961068645119667
1772619268687456000,2.6994560546875,-0.2121865600347519,-0.07493259757757187,-0.08906392008066177
1772619268697486800,2.70948681640625,-0.23931165039539337,-0.11741933226585388,-0.0887368842959404
1772619268707518000,2.71951806640625,-0.2705962657928467,-0.1408616602420807,-0.10084895044565201
1772619268717547800,2.7295478515625,-0.2953777611255646,-0.14750145375728607,-0.11261399835348129
1772619268727579000,2.739578857421875,-0.3184230625629425,-0.12336231768131256,-0.13518859446048737
1772619268737610000,2.74960986328125,-0.33573469519615173,-0.09199134260416031,-0.14695444703102112
1772619268747640800,2.759640869140625,-0.351166695356369,-0.06359300762414932,-0.15611474215984344
1772619268757672000,2.769671875,-0.3599700629711151,-0.048517122864723206,-0.15132930874824524
1772619268767702800,2.779702880859375,-0.3569238781929016,-0.053977083414793015,-0.1386267989873886
1772619268777734000,2.78973388671875,-0.3447614908218384,-0.07573723793029785,-0.11212515830993652
1772619268787765000,2.799764892578125,-0.3302878141403198,-0.10177981853485107,-0.07557471096515656
1772619268797796000,2.809796142578125,-0.3199979066848755,-0.1316189467906952,-0.04123910516500473
1772619268807827000,2.819826904296875,-0.3187867999076843,-0.16342540085315704,-0.013060631230473518
1772619268817858000,2.829858154296875,-0.3299579620361328,-0.1864449679851532,0.0037753405049443245
1772619268827889000,2.839888916015625,-0.34234288334846497,-0.20223990082740784,0.004388369154185057
1772619268837920000,2.849919921875,-0.35312336683273315,-0.20917075872421265,-0.00532284751534462
1772619268847950800,2.859950927734375,-0.35725367069244385,-0.2019113004207611,-0.010554381646215916
1772619268857982000,2.86998193359375,-0.35333776473999023,-0.18639066815376282,-0.011228693649172783
1772619268868012800,2.8800126953125,-0.34453821182250977,-0.16783039271831512,-0.005749281961470842
1772619268878044000,2.8900439453125,-0.331033319234848,-0.1646130234003067,-0.0011308281682431698
1772619268888074800,2.90007470703125,-0.3241296708583832,-0.17579254508018494,0.011779406107962132
1772619268898105900,2.91010595703125,-0.3160160779953003,-0.18611949682235718,0.03485623002052307
1772619268908137000,2.920136962890625,-0.3067252039909363,-0.20003339648246765,0.05687316879630089
1772619268918167800,2.930167724609375,-0.2955130338668823,-0.20087122917175293,0.06958470493555069
1772619268928199000,2.940198974609375,-0.27939578890800476,-0.1937192678451538,0.08549843728542328
1772619268938229800,2.950229736328125,-0.2616085410118103,-0.16835825145244598,0.09348393231630325
1772619268948261000,2.96026123046875,-0.23876208066940308,-0.1397910863161087,0.0997549369931221
1772619268958292000,2.9702919921875,-0.217960387468338,-0.11091816425323486,0.10043777525424957
1772619268968323000,2.980322998046875,-0.20177707076072693,-0.08949759602546692,0.09464268386363983
1772619268978354000,2.99035400390625,-0.19148501753807068,-0.07563211768865585,0.06809363514184952
1772619268988385000,3.000385009765625,-0.18341562151908875,-0.07455553114414215,0.026152480393648148
1772619268998416000,3.010415771484375,-0.18265582621097565,-0.08281878381967545,-0.024832407012581825
1772619269008447000,3.020447021484375,-0.1923954337835312,-0.10671358555555344,-0.07397592067718506
1772619269018477800,3.030477783203125,-0.2074873000383377,-0.1224059909582138,-0.11380083113908768
1772619269028509000,3.040509033203125,-0.21420568227767944,-0.10981221497058868,-0.12886741757392883
1772619269038539000,3.0505390625,-0.20143716037273407,-0.0694860965013504,-0.10836640745401382
1772619269048569900,3.06056982421875,-0.16842809319496155,-0.01350446231663227,-0.07398331165313721
1772619269058601000,3.07060107421875,-0.10713784396648407,0.0486137680709362,-0.007835982367396355
1772619269068631800,3.0806318359375,-0.024800172075629234,0.11172796040773392,0.07403161376714706
1772619269078663000,3.090662841796875,0.05378811061382294,0.13675928115844727,0.15019670128822327
1772619269088693800,3.10069384765625,0.12280098348855972,0.11169533431529999,0.21672333776950836
1772619269098724900,3.110724853515625,0.17421597242355347,0.0526844784617424,0.2671513557434082
1772619269108755700,3.120755615234375,0.2066674828529358,-0.006661381106823683,0.3158617913722992
1772619269118786800,3.130786865234375,0.21609213948249817,-0.07349739968776703,0.3599424362182617
1772619269128818000,3.14081787109375,0.2173435091972351,-0.11204750835895538,0.4096634089946747
1772619269138849000,3.15084912109375,0.20405913889408112,-0.10474325716495514,0.4550279378890991
1772619269148880100,3.160880126953125,0.18957901000976562,-0.060881081968545914,0.4935852885246277
1772619269158911000,3.170910888671875,0.16831952333450317,0.0064321779645979404,0.5230544805526733
1772619269168942000,3.180942138671875,0.1467302143573761,0.07961054146289825,0.526965320110321
1772619269178973000,3.190972900390625,0.12624278664588928,0.15577055513858795,0.5153765678405762
1772619269189004000,3.201004150390625,0.10173206776380539,0.22154898941516876,0.4745020866394043
1772619269199035000,3.211034912109375,0.07470124959945679,0.267804354429245,0.42267751693725586
1772619269209066000,3.22106591796875,0.05129792541265488,0.28840363025665283,0.35908496379852295
1772619269219096800,3.231096923828125,0.02785119041800499,0.29600536823272705,0.28804299235343933
1772619269229128000,3.2411279296875,-0.008515909314155579,0.2899772822856903,0.21220415830612183
1772619269239158800,3.25115869140625,-0.050004761666059494,0.2877540588378906,0.11953892558813095
1772619269249190000,3.26118994140625,-0.09949368983507156,0.27887338399887085,0.015095536597073078
1772619269259220700,3.271220703125,-0.15171268582344055,0.2594754695892334,-0.11004773527383804
1772619269269251800,3.281251953125,-0.19608700275421143,0.22252069413661957,-0.22921156883239746
1772619269279282700,3.29128271484375,-0.23201917111873627,0.17364263534545898,-0.3292415142059326
1772619269289313800,3.301313720703125,-0.24770231544971466,0.12445683777332306,-0.3885335624217987
1772619269299345000,3.311344970703125,-0.24796251952648163,0.08573687821626663,-0.4069293737411499
1772619269309376000,3.3213759765625,-0.2317352145910263,0.06423430889844894,-0.3910849392414093
1772619269319407000,3.331406982421875,-0.1985226720571518,0.05104474350810051,-0.34771350026130676
1772619269329438000,3.34143798828125,-0.148675799369812,0.054359566420316696,-0.29676148295402527
1772619269339469000,3.351468994140625,-0.08181394636631012,0.08297416567802429,-0.2375010848045349
1772619269349500000,3.3615,-0.005687126889824867,0.13079428672790527,-0.17933981120586395
1772619269359530000,3.371530029296875,0.06472525000572205,0.1863345056772232,-0.13185298442840576
1772619269369560800,3.381560791015625,0.11898519098758698,0.2341693937778473,-0.09426739811897278
1772619269379592000,3.391592041015625,0.15652617812156677,0.257352739572525,-0.08494846522808075
1772619269389623000,3.401623046875,0.17557044327259064,0.2542419135570526,-0.08998636901378632
1772619269399654000,3.41165380859375,0.18504171073436737,0.2326071858406067,-0.10914301872253418
1772619269409685000,3.42168505859375,0.1905767172574997,0.2053298056125641,-0.14534012973308563
1772619269419715800,3.4317158203125,0.19785434007644653,0.18545064330101013,-0.18011674284934998
1772619269429747200,3.441747314453125,0.20450036227703094,0.16139987111091614,-0.21019533276557922
1772619269439778000,3.451778076171875,0.21209782361984253,0.13554322719573975,-0.23147505521774292
1772619269449809200,3.46180908203125,0.21749083697795868,0.10952319204807281,-0.24592284858226776
1772619269459840000,3.471840087890625,0.2236882895231247,0.08114933967590332,-0.23946601152420044
1772619269469871000,3.48187109375,0.22368736565113068,0.05737968534231186,-0.22890184819698334
1772619269479902000,3.49190185546875,0.2282959669828415,0.02646224945783615,-0.21378014981746674
1772619269489933000,3.50193310546875,0.2354453057050705,0.017056768760085106,-0.20717136561870575
1772619269499964000,3.5119638671875,0.23721525073051453,0.009673155844211578,-0.20753274857997894
1772619269509995000,3.5219951171875,0.24410048127174377,0.007270305883139372,-0.21242716908454895
1772619269520025900,3.53202587890625,0.25123295187950134,0.01967424526810646,-0.22131307423114777
1772619269530057000,3.542056884765625,0.268316388130188,0.040286801755428314,-0.2175954431295395
1772619269540088000,3.552088134765625,0.2807839810848236,0.05475495755672455,-0.20440985262393951
1772619269550119000,3.562118896484375,0.2957455515861511,0.07193580269813538,-0.19608284533023834
1772619269560150000,3.57214990234375,0.312456876039505,0.08078309148550034,-0.17999042570590973
1772619269570180900,3.582180908203125,0.32288071513175964,0.07048477232456207,-0.16885457932949066
1772619269580212000,3.5922119140625,0.32579928636550903,0.060807909816503525,-0.16258390247821808
1772619269590243000,3.6022431640625,0.32631734013557434,0.04041387885808945,-0.15238647162914276
1772619269600274200,3.612274169921875,0.3221452236175537,0.0233928170055151,-0.1432560831308365
1772619269610305000,3.622304931640625,0.31826069951057434,0.025903861969709396,-0.1314828097820282
1772619269620336000,3.632336181640625,0.3110634982585907,0.0487910658121109,-0.11885596811771393
1772619269630367000,3.642366943359375,0.3044109344482422,0.0805111825466156,-0.11301565170288086
1772619269640398000,3.652398193359375,0.2974984347820282,0.10645303875207901,-0.11796540021896362
1772619269650429000,3.662428955078125,0.2960912585258484,0.1329798549413681,-0.12411314249038696
1772619269660460000,3.6724599609375,0.2989480197429657,0.15989401936531067,-0.12380100786685944
1772619269670491000,3.682490966796875,0.30069562792778015,0.1694566011428833,-0.12777352333068848
1772619269680522000,3.69252197265625,0.30091214179992676,0.16447781026363373,-0.13144388794898987
1772619269690552000,3.702552001953125,0.299091100692749,0.14870475232601166,-0.1278238296508789
1772619269700583000,3.7125830078125,0.2892533838748932,0.12124037742614746,-0.12868696451187134
1772619269710614000,3.722614013671875,0.2833675444126129,0.10710898786783218,-0.12194179743528366
1772619269720644900,3.732644775390625,0.2773325741291046,0.11093462258577347,-0.11942671239376068
1772619269730676000,3.742676025390625,0.27977675199508667,0.12161609530448914,-0.11981625854969025
1772619269740706800,3.752706787109375,0.2806459963321686,0.140301913022995,-0.12405015528202057
1772619269750738000,3.762738037109375,0.28011584281921387,0.1489523947238922,-0.12703680992126465
1772619269760768800,3.772768798828125,0.2862884998321533,0.16236381232738495,-0.1243765726685524
1772619269770799900,3.7827998046875,0.2946317195892334,0.17361202836036682,-0.11229537427425385
1772619269780831000,3.7928310546875,0.3013801574707031,0.18391022086143494,-0.09133709222078323
1772619269790862000,3.802862060546875,0.3087269365787506,0.1965876966714859,-0.06795821338891983
1772619269800893200,3.81289306640625,0.3195236623287201,0.2127794474363327,-0.04923352971673012
1772619269810924000,3.822924072265625,0.3350120186805725,0.22838157415390015,-0.03815433010458946
1772619269820955100,3.832955078125,0.34320417046546936,0.24792888760566711,-0.026269707828760147
1772619269830986000,3.842986083984375,0.3435458242893219,0.2681005597114563,-0.023007266223430634
1772619269841017000,3.85301708984375,0.3436952233314514,0.28136470913887024,-0.040825407952070236
1772619269851048000,3.8630478515625,0.339758038520813,0.2932604253292084,-0.06584455072879791
1772619269861079000,3.8730791015625,0.33384475111961365,0.28579476475715637,-0.10043874382972717
1772619269871110000,3.88310986328125,0.3203515410423279,0.2808072865009308,-0.12469527870416641
1772619269881141000,3.89314111328125,0.30984777212142944,0.27849674224853516,-0.13089750707149506
1772619269891171800,3.903171875,0.3023111820220947,0.2766646444797516,-0.1319381296634674
1772619269901203000,3.913202880859375,0.3000280559062958,0.2726733684539795,-0.1284717619419098
1772619269911233800,3.92323388671875,0.29974332451820374,0.2689744234085083,-0.1286512166261673
1772619269921265000,3.933264892578125,0.3046126663684845,0.25468042492866516,-0.12631802260875702
1772619269931296000,3.9432958984375,0.3092401325702667,0.22505412995815277,-0.12528769671916962
1772619269941327000,3.9533271484375,0.3107972741127014,0.18649421632289886,-0.12263493239879608
1772619269951358000,3.96335791015625,0.3009336590766907,0.14073294401168823,-0.10722874104976654
1772619269961389000,3.97338916015625,0.29198411107063293,0.09329910576343536,-0.0889274999499321
1772619269971420200,3.983420166015625,0.2836620509624481,0.06826797127723694,-0.06080884858965874
1772619269981451000,3.993450927734375,0.27923908829689026,0.0633443221449852,-0.03538977727293968
1772619269991482000,4.003482177734375,0.2818661034107208,0.07898641377687454,-0.0059425849467515945
1772619270001513000,4.013512939453125,0.2907368242740631,0.10044403374195099,0.017811745405197144
1772619270011544000,4.0235439453125,0.3091859817504883,0.12495631724596024,0.031285181641578674
1772619270021574100,4.03357421875,0.33404234051704407,0.1363929957151413,0.05140962451696396
1772619270031605000,4.04360498046875,0.3585646152496338,0.14779722690582275,0.06726586818695068
1772619270041636000,4.053635986328125,0.3861355483531952,0.14737802743911743,0.09224232286214828
1772619270051667000,4.0636669921875,0.4039129912853241,0.14220432937145233,0.12166713923215866
1772619270061698000,4.073697998046875,0.4194384217262268,0.13379007577896118,0.15338006615638733
1772619270071729000,4.08372900390625,0.42843353748321533,0.1110755205154419,0.18423967063426971
1772619270081760000,4.093760009765625,0.42768147587776184,0.09235429763793945,0.1929580569267273
1772619270091790800,4.103790771484375,0.42107850313186646,0.07356508821249008,0.18815505504608154
1772619270101822000,4.113822021484375,0.4161122441291809,0.05451550334692001,0.17108047008514404
1772619270111852800,4.123852783203125,0.4143046736717224,0.034084025770425797,0.1527118980884552
1772619270121884200,4.13388427734375,0.4131701588630676,0.01942998357117176,0.1365606188774109
1772619270131915000,4.1439150390625,0.40846970677375793,0.024527058005332947,0.1299903690814972
1772619270141946000,4.153946044921875,0.40378016233444214,0.025881540030241013,0.1440206915140152
1772619270151977000,4.16397705078125,0.3938690721988678,0.027309635654091835,0.15636616945266724
1772619270162008000,4.174008056640625,0.3856891691684723,0.025991639122366905,0.16699270904064178
1772619270172039000,4.184038818359375,0.37338966131210327,0.003450334072113037,0.17727850377559662
1772619270182070000,4.194070068359375,0.3549440801143646,-0.030809901654720306,0.16860191524028778
1772619270192101000,4.20410107421875,0.3281792998313904,-0.08194170147180557,0.14961108565330505
1772619270202132000,4.214132080078125,0.28812456130981445,-0.11796495318412781,0.11580437421798706
1772619270212163000,4.2241630859375,0.23505067825317383,-0.14577606320381165,0.06141703575849533
1772619270222194000,4.23419384765625,0.1785208284854889,-0.15930867195129395,0.001367012970149517
1772619270232225000,4.24422509765625,0.11744049936532974,-0.1550413817167282,-0.06807620823383331
1772619270242256000,4.254255859375,0.056743327528238297,-0.15380114316940308,-0.14340424537658691
1772619270252287000,4.264286865234375,0.0041056107729673386,-0.1434657871723175,-0.2154020369052887
1772619270262317800,4.27431787109375,-0.03811214864253998,-0.13783186674118042,-0.27136385440826416
1772619270272349000,4.284348876953125,-0.06547598540782928,-0.1365741640329361,-0.30940696597099304
1772619270282380000,4.294380126953125,-0.08213858306407928,-0.15639154613018036,-0.31738847494125366
1772619270292411100,4.3044111328125,-0.09110040217638016,-0.18665850162506104,-0.28587812185287476
1772619270302442000,4.31444189453125,-0.08889610320329666,-0.20916569232940674,-0.21425531804561615
1772619270312473000,4.32447314453125,-0.08793430030345917,-0.21526354551315308,-0.1312541365623474
1772619270322504000,4.33450390625,-0.083295077085495,-0.19689598679542542,-0.051915913820266724
1772619270332534000,4.344533935546875,-0.07151990383863449,-0.11380696296691895,0.023343684151768684
1772619270342565000,4.354565185546875,-0.06691689789295197,-0.010005995631217957,0.0764298066496849
1772619270352596000,4.364595947265625,-0.0771825909614563,0.07963711023330688,0.09858084470033646
1772619270362627000,4.374626953125,-0.09427875280380249,0.13897712528705597,0.09224731475114822
1772619270372658000,4.384657958984375,-0.1169215589761734,0.17313100397586823,0.0790150985121727
1772619270382689000,4.39468896484375,-0.13707822561264038,0.18165338039398193,0.05927973985671997
1772619270392720000,4.404719970703125,-0.15451876819133759,0.16939027607440948,0.04222297668457031
1772619270402751000,4.4147509765625,-0.16675493121147156,0.14623676240444183,0.03655816614627838
1772619270412782000,4.424781982421875,-0.1713578850030899,0.11370537430047989,0.035974327474832535
1772619270422813000,4.43481298828125,-0.17249372601509094,0.07740356028079987,0.04504185914993286
1772619270432844000,4.444843994140625,-0.17147321999073029,0.04217388480901718,0.056213267147541046
1772619270442875000,4.454875,-0.1647985428571701,0.01683097332715988,0.07700643688440323
1772619270452906000,4.464906005859375,-0.1629951000213623,-0.005793921649456024,0.09970366954803467
1772619270462936800,4.474936767578125,-0.15826159715652466,-0.02744222618639469,0.11895512789487839
1772619270472968000,4.484968017578125,-0.16416116058826447,-0.043520014733076096,0.12987253069877625
1772619270482998800,4.494998779296875,-0.173311248421669,-0.043933335691690445,0.12378852814435959
1772619270493030000,4.50502978515625,-0.19413062930107117,-0.03705370053648949,0.10235102474689484
1772619270503060700,4.515060791015625,-0.21062065660953522,-0.033494386821985245,0.07710852473974228
1772619270513091800,4.525091796875,-0.2343381643295288,-0.03386553376913071,0.043404124677181244
1772619270523123000,4.535123046875,-0.25281915068626404,-0.03930983692407608,0.013544762507081032
1772619270533154000,4.545154052734375,-0.2645198702812195,-0.0453498549759388,-0.0010397196747362614
1772619270543185000,4.555184814453125,-0.2808951139450073,-0.05474388599395752,-0.009845728054642677
1772619270553216000,4.565216064453125,-0.2947345972061157,-0.07091803848743439,-0.004144912585616112
1772619270563246800,4.575246826171875,-0.3042607009410858,-0.08674706518650055,0.007957023568451405
1772619270573278000,4.58527783203125,-0.3094944357872009,-0.10631922632455826,0.02683180570602417
1772619270583309000,4.59530908203125,-0.32258227467536926,-0.1337449997663498,0.03632970526814461
1772619270593340000,4.60533984375,-0.31858932971954346,-0.15639285743236542,0.03779437020421028
1772619270603371000,4.61537109375,-0.3192833364009857,-0.158121258020401,0.04709466174244881
1772619270613401900,4.62540185546875,-0.31684669852256775,-0.1595098376274109,0.05272488668560982
1772619270623433000,4.635432861328125,-0.3208664655685425,-0.17260593175888062,0.052770424634218216
1772619270633463800,4.6454638671875,-0.3225944936275482,-0.18925116956233978,0.04577041044831276
1772619270643495000,4.655494873046875,-0.3279828727245331,-0.21491099894046783,0.04262601584196091
1772619270653525800,4.66552587890625,-0.3354777991771698,-0.24136784672737122,0.0365002304315567
1772619270663555800,4.675555908203125,-0.3427838981151581,-0.2637013792991638,0.035569459199905396
1772619270673587000,4.6855869140625,-0.35160037875175476,-0.2955157458782196,0.027444206178188324
1772619270683617800,4.69561767578125,-0.3490240275859833,-0.30464160442352295,0.029662352055311203
1772619270693649000,4.70564892578125,-0.35125869512557983,-0.3079005777835846,0.03826180845499039
1772619270703679700,4.7156796875,-0.35456582903862,-0.29169365763664246,0.04910886287689209
1772619270713711000,4.725711181640625,-0.34670743346214294,-0.23938164114952087,0.06698566675186157
1772619270723742000,4.735741943359375,-0.33723002672195435,-0.18476581573486328,0.09263910353183746
1772619270733773000,4.74577294921875,-0.32284337282180786,-0.13867811858654022,0.1166926696896553
1772619270743804000,4.755803955078125,-0.3028310537338257,-0.11033142358064651,0.13980251550674438
1772619270753835000,4.7658349609375,-0.27398526668548584,-0.08765798807144165,0.17016355693340302
1772619270763865900,4.775865966796875,-0.2506956458091736,-0.09226765483617783,0.20055049657821655
1772619270773897000,4.78589697265625,-0.23087769746780396,-0.1369801163673401,0.21908068656921387
1772619270783927800,4.795927734375,-0.21874940395355225,-0.19904881715774536,0.22950856387615204
1772619270793959000,4.805958984375,-0.21648569405078888,-0.26018980145454407,0.22693371772766113
1772619270803989800,4.81598974609375,-0.22860653698444366,-0.3133837580680847,0.19756890833377838
1772619270814020900,4.826020751953125,-0.2489200383424759,-0.35623612999916077,0.1443568468093872
1772619270824052000,4.836052001953125,-0.27266183495521545,-0.3799310624599457,0.08262476325035095
1772619270834082800,4.846082763671875,-0.29831743240356445,-0.3725484311580658,0.01976686343550682
1772619270844114000,4.856114013671875,-0.31817102432250977,-0.34715092182159424,-0.04039234668016434
1772619270854144800,4.866144775390625,-0.3283154368400574,-0.28408899903297424,-0.07295981794595718
1772619270864175900,4.87617578125,-0.3241260051727295,-0.18932919204235077,-0.0741979256272316
1772619270874207000,4.88620703125,-0.31695300340652466,-0.056509219110012054,-0.0465802326798439
1772619270884238000,4.896238037109375,-0.2956258952617645,0.045361485332250595,0.009004197083413601
1772619270894269000,4.90626904296875,-0.2514728903770447,0.10238872468471527,0.07428649067878723
1772619270904300000,4.916300048828125,-0.1867237240076065,0.13545560836791992,0.15693850815296173
1772619270914331000,4.926330810546875,-0.11333608627319336,0.140999898314476,0.25547048449516296
1772619270924362000,4.936362060546875,-0.04347497969865799,0.12115322053432465,0.3478392958641052
1772619270934392800,4.946392822265625,0.011984910815954208,0.06779170036315918,0.4337421655654907
1772619270944424000,4.956423828125,0.03991694375872612,-0.020698755979537964,0.5020588636398315
1772619270954454000,4.9664541015625,0.04488836228847504,-0.13893593847751617,0.5466127395629883
1772619270964484900,4.97648486328125,0.028633492067456245,-0.27147746086120605,0.5720685720443726
1772619270974516000,4.986515869140625,-0.0016441959887742996,-0.400038480758667,0.5907580256462097
1772619270984546800,4.996546875,-0.04612191393971443,-0.49117448925971985,0.606721818447113
1772619270994578000,5.006577880859375,-0.09207049757242203,-0.5416477918624878,0.6378991603851318
1772619271004608800,5.01660888671875,-0.13342593610286713,-0.542375385761261,0.6791827082633972
1772619271014639900,5.026639892578125,-0.17786192893981934,-0.4825567603111267,0.7189499139785767
1772619271024670700,5.036670654296875,-0.2153288722038269,-0.38108739256858826,0.7326167225837708
1772619271034701800,5.046701904296875,-0.25879785418510437,-0.24807323515415192,0.701085090637207
1772619271044733000,5.05673291015625,-0.30408811569213867,-0.09240961074829102,0.6289360523223877
1772619271054763800,5.066763671875,-0.3423287868499756,0.05532599985599518,0.5086145997047424
1772619271064795100,5.076795166015625,-0.3793043792247772,0.1881631463766098,0.3677738606929779
1772619271074826000,5.086825927734375,-0.41348302364349365,0.27843403816223145,0.20981895923614502
1772619271084857000,5.096857177734375,-0.43585917353630066,0.3147318661212921,0.05942786484956741
1772619271094888000,5.106887939453125,-0.4578315019607544,0.28857338428497314,-0.07598195970058441
1772619271104919000,5.1169189453125,-0.4735207259654999,0.2150360643863678,-0.18489913642406464
1772619271114950000,5.126949951171875,-0.4685993790626526,0.13652871549129486,-0.26109060645103455
1772619271124981000,5.13698095703125,-0.46178966760635376,0.056519366800785065,-0.3226570188999176
1772619271135011800,5.14701171875,-0.45965978503227234,-0.023941360414028168,-0.3626251816749573
1772619271145043000,5.15704296875,-0.4515499174594879,-0.08657411485910416,-0.37987393140792847
1772619271155073800,5.16707373046875,-0.4402780532836914,-0.11507512629032135,-0.3708493709564209
1772619271165105000,5.17710498046875,-0.4210430979728699,-0.1211942732334137,-0.34684017300605774
1772619271175135700,5.1871357421875,-0.3932879865169525,-0.11230811476707458,-0.3178704082965851
1772619271185166800,5.197166748046875,-0.36281394958496094,-0.09162760525941849,-0.2894608676433563
1772619271195197700,5.20719775390625,-0.32705897092819214,-0.054142389446496964,-0.25860321521759033
1772619271205228800,5.217228759765625,-0.2943519055843353,-0.02439567819237709,-0.23770616948604584
1772619271215260000,5.227260009765625,-0.2707451283931732,-0.0003467109054327011,-0.2073901891708374
1772619271225291000,5.237291015625,-0.2409009486436844,0.024253174662590027,-0.16748325526714325
1772619271235322000,5.247322021484375,-0.20644889771938324,0.03876030817627907,-0.12538503110408783
1772619271245353000,5.25735302734375,-0.171036034822464,0.034109897911548615,-0.08329643309116364
1772619271255384000,5.267384033203125,-0.14196433126926422,0.031229356303811073,-0.05263625085353851
1772619271265415000,5.277414794921875,-0.1287720948457718,0.021202020347118378,-0.04721724987030029
1772619271275445000,5.287445068359375,-0.1230546087026596,-0.006535345688462257,-0.0643201544880867
1772619271285476000,5.29747607421875,-0.13258153200149536,-0.024394504725933075,-0.08729471266269684
1772619271295507000,5.3075068359375,-0.14861832559108734,-0.028950156643986702,-0.11722733080387115
1772619271305538800,5.317538818359375,-0.1658407300710678,-0.031070830300450325,-0.15530627965927124
1772619271315570000,5.32756982421875,-0.17402148246765137,-0.02392389439046383,-0.18470963835716248
1772619271325600800,5.337600830078125,-0.17782554030418396,-0.014706427231431007,-0.2121167629957199
1772619271335632000,5.3476318359375,-0.1754535287618637,-0.015458067879080772,-0.22634924948215485
1772619271345662700,5.357662841796875,-0.15657970309257507,-0.010070493444800377,-0.22649866342544556
1772619271355692800,5.36769287109375,-0.12731710076332092,0.005573811009526253,-0.21047385036945343
1772619271365724000,5.377723876953125,-0.10098748654127121,0.01663604937493801,-0.18147602677345276
1772619271375754200,5.387754150390625,-0.0773448497056961,0.024033138528466225,-0.15080557763576508
1772619271385785300,5.397785400390625,-0.0471470020711422,0.030484646558761597,-0.11858826130628586
1772619271395816400,5.40781640625,-0.018253665417432785,0.032113462686538696,-0.09183914959430695
1772619271405847300,5.417847412109375,0.017721647396683693,0.04706311970949173,-0.06708506494760513
1772619271415878400,5.42787841796875,0.04139471426606178,0.05351141840219498,-0.04413563385605812
1772619271425909200,5.4379091796875,0.06051807478070259,0.05730455741286278,-0.02723095193505287
1772619271435940400,5.4479404296875,0.06774336844682693,0.06410202383995056,-0.013335946016013622
1772619271445971200,5.45797119140625,0.07729346305131912,0.07728920131921768,-0.00319116679020226
1772619271456002600,5.46800244140625,0.08659283816814423,0.09453995525836945,0.0049591222777962685
1772619271466033400,5.478033447265625,0.09884577244520187,0.11165475845336914,0.022777533158659935
1772619271476064500,5.488064453125,0.10723460465669632,0.12893709540367126,0.02686305157840252
1772619271486095400,5.498095458984375,0.11499851197004318,0.1236288771033287,0.03596813231706619
1772619271496126500,5.50812646484375,0.13169386982917786,0.11238551139831543,0.049582816660404205
1772619271506157300,5.5181572265625,0.14629705250263214,0.1123141422867775,0.06954853236675262
1772619271516188400,5.5281884765625,0.15678013861179352,0.1158134937286377,0.08900660276412964
1772619271526219300,5.53821923828125,0.16509532928466797,0.11926867812871933,0.0923728421330452
1772619271536250400,5.54825048828125,0.17091993987560272,0.11951345950365067,0.09114877134561539
1772619271546281200,5.55828125,0.17307762801647186,0.11779918521642685,0.0790521651506424
1772619271556312300,5.568312255859375,0.16826671361923218,0.09600354731082916,0.06255869567394257
1772619271566343400,5.578343505859375,0.17119352519512177,0.08368882536888123,0.058098699897527695
1772619271576374300,5.588374267578125,0.16920287907123566,0.08166313916444778,0.051237791776657104
1772619271586405400,5.5984052734375,0.1637311428785324,0.08157072961330414,0.04440918192267418
1772619271596436200,5.608436279296875,0.1578245460987091,0.09178489446640015,0.03716502711176872
1772619271606467300,5.61846728515625,0.15519599616527557,0.10584212839603424,0.02668309211730957
1772619271616498400,5.62849853515625,0.16065233945846558,0.11164187639951706,0.022429687902331352
1772619271626529500,5.638529541015625,0.17157450318336487,0.12416432052850723,0.0229045283049345
1772619271636560400,5.648560302734375,0.18411338329315186,0.14505809545516968,0.026403551921248436
1772619271646591500,5.658591552734375,0.19690588116645813,0.16995199024677277,0.026645367965102196
1772619271656622300,5.668622314453125,0.2089294195175171,0.1912011206150055,0.014875046908855438
1772619271666653400,5.6786533203125,0.22338691353797913,0.19798071682453156,-0.0031670709140598774
1772619271676683500,5.68868359375,0.23331502079963684,0.18768277764320374,-0.02225852571427822
1772619271686714400,5.69871435546875,0.2456957846879959,0.16412605345249176,-0.03776425123214722
1772619271696745500,5.708745361328125,0.25135430693626404,0.13997769355773926,-0.05992322415113449
1772619271706776300,5.7187763671875,0.25652697682380676,0.11856906861066818,-0.08294864743947983
1772619271716807400,5.728807373046875,0.261035680770874,0.10107818245887756,-0.11600595712661743
1772619271726838300,5.73883837890625,0.2670091390609741,0.08829580992460251,-0.15512964129447937
1772619271736869400,5.748869384765625,0.27422240376472473,0.07984480261802673,-0.19388756155967712
1772619271746900200,5.758900146484375,0.2814193367958069,0.06364506483078003,-0.22366169095039368
1772619271756931300,5.768931396484375,0.28781187534332275,0.0422830767929554,-0.25298383831977844
1772619271766962200,5.778962158203125,0.2906191349029541,0.016635771840810776,-0.27319055795669556
1772619271776993300,5.7889931640625,0.2954719364643097,-0.018802683800458908,-0.28235524892807007
1772619271787024400,5.7990244140625,0.3013668656349182,-0.047187186777591705,-0.2711438834667206
1772619271797055500,5.809055419921875,0.29175442457199097,-0.0817616730928421,-0.2506449818611145
1772619271807086600,5.819086669921875,0.2831580340862274,-0.0995878130197525,-0.2186625450849533
1772619271817117400,5.829117431640625,0.2824552357196808,-0.08758809417486191,-0.1835157424211502
1772619271827148500,5.8391484375,0.27057433128356934,-0.08363383263349533,-0.15508303046226501
1772619271837179400,5.849179443359375,0.28405457735061646,-0.041409265249967575,-0.12201317399740219
1772619271847210500,5.85921044921875,0.30743953585624695,0.04209175333380699,-0.07838314026594162
1772619271857241300,5.869241455078125,0.33080729842185974,0.1294323205947876,-0.034296177327632904
1772619271867272400,5.8792724609375,0.3496089577674866,0.18425989151000977,0.008451820351183414
1772619271877303300,5.88930322265625,0.36719998717308044,0.20593073964118958,0.049639131873846054
1772619271887334400,5.89933447265625,0.38380107283592224,0.1967441737651825,0.08999667316675186
1772619271897365200,5.909365234375,0.3992634415626526,0.16844192147254944,0.12286287546157837
1772619271907396400,5.919396240234375,0.40653494000434875,0.13862863183021545,0.15089689195156097
1772619271917427200,5.92942724609375,0.41034016013145447,0.11572271585464478,0.1741364747285843
1772619271927458300,5.939458251953125,0.417775958776474,0.08393815904855728,0.18488125503063202
1772619271937489200,5.9494892578125,0.4159715473651886,0.06275157630443573,0.18615032732486725
1772619271947520300,5.959520263671875,0.4155936539173126,0.042727261781692505,0.1802719235420227
1772619271957551400,5.96955126953125,0.4111514687538147,0.03200293332338333,0.16736063361167908
1772619271967582500,5.97958251953125,0.41469720005989075,0.025051284581422806,0.15380913019180298
1772619271977613600,5.989613525390625,0.4095652997493744,0.02587154693901539,0.14806558191776276
1772619271987644400,5.99964453125,0.41199517250061035,0.02275964431464672,0.1503859907388687
1772619271997674500,6.009674560546875,0.4148860275745392,0.01590213179588318,0.16008692979812622
1772619272007705300,6.019705322265625,0.4177026152610779,0.010777144692838192,0.17526720464229584
1772619272017736400,6.029736328125,0.4183136820793152,-0.005239252932369709,0.1915939301252365
1772619272027767300,6.039767333984375,0.4105324447154999,-0.027609804645180702,0.1959279477596283
1772619272037798400,6.04979833984375,0.4000471234321594,-0.048696260899305344,0.18891790509223938
1772619272047829500,6.05982958984375,0.3711435794830322,-0.06627658754587173,0.16310842335224152
1772619272057860400,6.0698603515625,0.33272141218185425,-0.08344508707523346,0.12602739036083221
1772619272067891500,6.079891357421875,0.29362618923187256,-0.09633158892393112,0.0795629620552063
1772619272077922300,6.08992236328125,0.24459324777126312,-0.10815126448869705,0.024054910987615585
1772619272087953400,6.099953369140625,0.1970883011817932,-0.1238122507929802,-0.025270827114582062
1772619272097984300,6.109984375,0.1513780802488327,-0.15070085227489471,-0.06953869014978409
1772619272108015400,6.120015380859375,0.1118096262216568,-0.17748266458511353,-0.10304632037878036
1772619272118046200,6.130046142578125,0.0829174816608429,-0.1994844228029251,-0.12746752798557281
1772619272128077300,6.140077392578125,0.05672183632850647,-0.20636789500713348,-0.14939652383327484
1772619272138108200,6.150108154296875,0.035425372421741486,-0.19500067830085754,-0.15868693590164185
1772619272148139500,6.160139404296875,0.018746525049209595,-0.16443344950675964,-0.1494753360748291
1772619272158170400,6.17017041015625,0.004261953290551901,-0.11524063348770142,-0.13290706276893616
1772619272168201500,6.180201416015625,0.0032813772559165955,-0.06003117188811302,-0.11421859264373779
1772619272178232300,6.190232421875,0.011682795360684395,-0.013353601098060608,-0.10579175502061844
1772619272188263400,6.200263427734375,0.03203200921416283,0.03523177653551102,-0.11342703551054001
1772619272198294500,6.21029443359375,0.045849595218896866,0.07107211649417877,-0.13009920716285706
1772619272208325400,6.220325439453125,0.05373654514551163,0.09293746948242188,-0.15146894752979279
1772619272218356500,6.2303564453125,0.052264824509620667,0.1108509972691536,-0.17090028524398804
1772619272228387300,6.24038720703125,0.03432044759392738,0.11691261827945709,-0.18719136714935303
1772619272238418400,6.25041845703125,0.009916420094668865,0.10968330502510071,-0.19630537927150726
1772619272248449300,6.26044921875,-0.01439025066792965,0.10484088212251663,-0.1989123523235321
1772619272258480400,6.27048046875,-0.03560103848576546,0.10706806927919388,-0.19651266932487488
1772619272268511200,6.28051123046875,-0.05366393178701401,0.11641097068786621,-0.1911756992340088
1772619272278542300,6.290542236328125,-0.06701607257127762,0.12175022810697556,-0.19659987092018127
1772619272288573200,6.3005732421875,-0.07150136679410934,0.11149360239505768,-0.20201382040977478
1772619272298604300,6.310604248046875,-0.07021678984165192,0.10317067056894302,-0.19904835522174835
1772619272308635400,6.320635498046875,-0.07085567712783813,0.08824578672647476,-0.190703883767128
1772619272318666500,6.33066650390625,-0.06876407563686371,0.06304721534252167,-0.16699065268039703
1772619272328696300,6.3406962890625,-0.07017900794744492,0.03844919055700302,-0.14270155131816864
1772619272338727400,6.3507275390625,-0.08055958896875381,0.011450488120317459,-0.1186477392911911
1772619272348758500,6.360758544921875,-0.09850770235061646,-0.016777686774730682,-0.10839509963989258
1772619272358789400,6.370789306640625,-0.12459820508956909,-0.04074552655220032,-0.10207241773605347
1772619272368820500,6.380820556640625,-0.15136031806468964,-0.05942147597670555,-0.10357283800840378
1772619272378851800,6.390851806640625,-0.18559661507606506,-0.0731847807765007,-0.09879588335752487
1772619272388883000,6.400883056640625,-0.21789729595184326,-0.06672900915145874,-0.0896921306848526
1772619272398913800,6.410913818359375,-0.2521704435348511,-0.04494974762201309,-0.07671340554952621
1772619272408945000,6.42094482421875,-0.28912100195884705,-0.027596857398748398,-0.0680200532078743
1772619272418975700,6.430975830078125,-0.3299337923526764,-0.013006875291466713,-0.05432639271020889
1772619272429006800,6.4410068359375,-0.36733388900756836,-0.016214653849601746,-0.04565833508968353
1772619272439037700,6.45103759765625,-0.4052604138851166,-0.032132040709257126,-0.03833827003836632
1772619272449069000,6.461069091796875,-0.442739337682724,-0.06843864917755127,-0.033688656985759735
1772619272459100000,6.471099853515625,-0.46843135356903076,-0.10269057750701904,-0.030200162902474403
1772619272469131000,6.481131103515625,-0.4794866740703583,-0.1371617317199707,-0.013771388679742813
1772619272479161900,6.491161865234375,-0.4862152636051178,-0.15934884548187256,0.010367398150265217
1772619272489193000,6.50119287109375,-0.4950265884399414,-0.18207627534866333,0.04562285915017128
1772619272499224000,6.51122412109375,-0.5116344094276428,-0.19985926151275635,0.08742459118366241
1772619272509255000,6.5212548828125,-0.5466080904006958,-0.22093871235847473,0.1181366965174675
1772619272519286000,6.5312861328125,-0.5974693894386292,-0.249164417386055,0.1336292177438736
1772619272529316900,6.54131689453125,-0.6458560824394226,-0.2633201777935028,0.13193438947200775
1772619272539348000,6.551347900390625,-0.6906944513320923,-0.2570602595806122,0.11752637475728989
1772619272549378800,6.56137890625,-0.7243024706840515,-0.2329367995262146,0.10641806572675705
1772619272559410000,6.571409912109375,-0.7479400634765625,-0.19429689645767212,0.10688797384500504
1772619272569440800,6.581440673828125,-0.764413058757782,-0.15551595389842987,0.11883651465177536
1772619272579472000,6.591471923828125,-0.7687070369720459,-0.12481127679347992,0.13360263407230377
1772619272589502700,6.601502685546875,-0.7637910842895508,-0.10171474516391754,0.15023674070835114
1772619272599533800,6.611533935546875,-0.7423352003097534,-0.09097860008478165,0.1713276356458664
1772619272609565000,6.62156494140625,-0.7168101668357849,-0.09339888393878937,0.18544131517410278
1772619272619596000,6.631595947265625,-0.687014639377594,-0.104133240878582,0.18968594074249268
1772619272629627000,6.641626953125,-0.6642124056816101,-0.10236942768096924,0.1698259562253952
1772619272639658000,6.651657958984375,-0.6399819254875183,-0.08609355241060257,0.12880723178386688
1772619272649688800,6.661688720703125,-0.6109412312507629,-0.07068397104740143,0.0746459886431694
1772619272659719000,6.671718994140625,-0.5864543318748474,-0.07639593631029129,0.032371267676353455
1772619272669750000,6.68175,-0.5678462982177734,-0.10794587433338165,0.012634048238396645
1772619272679780900,6.69178076171875,-0.5490919947624207,-0.1477801352739334,0.014348005875945091
1772619272689812000,6.70181201171875,-0.5235311985015869,-0.18300524353981018,0.019863946363329887
1772619272699842800,6.7118427734375,-0.5166341662406921,-0.23952597379684448,0.012995139695703983
1772619272709874000,6.7218740234375,-0.4961927533149719,-0.2926768362522125,0.0038602303247898817
1772619272719905000,6.731905029296875,-0.4742264151573181,-0.30661603808403015,-0.0026569520123302937
1772619272729936000,6.741935791015625,-0.47345516085624695,-0.32681185007095337,0.0013468442484736443
1772619272739967000,6.751967041015625,-0.4180854856967926,-0.2664375305175781,0.0465669259428978
1772619272749997800,6.761997802734375,-0.3641796410083771,-0.1691136658191681,0.125722736120224
1772619272760029000,6.77202880859375,-0.2918837070465088,-0.07540387660264969,0.23266887664794922
1772619272770059800,6.782059814453125,-0.2014419585466385,0.001236042007803917,0.3416544795036316
1772619272780091000,6.7920908203125,-0.09539088606834412,0.09446351230144501,0.4568563997745514
1772619272790121700,6.802121826171875,0.005735727027058601,0.19165824353694916,0.5523006319999695
1772619272800153000,6.812153076171875,0.09940263628959656,0.25993824005126953,0.6221586465835571
1772619272810184000,6.822183837890625,0.17427341639995575,0.2922205328941345,0.6692843437194824
1772619272820215000,6.832215087890625,0.22346779704093933,0.27241212129592896,0.7009890079498291
1772619272830246000,6.842245849609375,0.24573181569576263,0.2063438892364502,0.7120273113250732
1772619272840277000,6.852277099609375,0.2535426914691925,0.10368125140666962,0.7164598703384399
1772619272850307800,6.862307861328125,0.23797675967216492,-0.014409168623387814,0.713921308517456
1772619272860339000,6.8723388671875,0.20083244144916534,-0.13454373180866241,0.7058805823326111
1772619272870369800,6.882369873046875,0.1367115080356598,-0.24332666397094727,0.6766595840454102
1772619272880401000,6.89240087890625,0.04853219538927078,-0.33649271726608276,0.6279517412185669
1772619272890432000,6.902431884765625,-0.04033482447266579,-0.3951730728149414,0.560318648815155
1772619272900462800,6.912462890625,-0.13709628582000732,-0.4322563707828522,0.5027734041213989
1772619272910494000,6.922493896484375,-0.21587178111076355,-0.46354106068611145,0.4515075087547302
1772619272920524800,6.93252490234375,-0.2671297788619995,-0.46676626801490784,0.407513827085495
1772619272930556000,6.942555908203125,-0.28903213143348694,-0.39114099740982056,0.362452894449234
1772619272940586800,6.952586669921875,-0.2775738835334778,-0.232291117310524,0.31310179829597473
1772619272950617900,6.962617919921875,-0.25395697355270386,-0.009147780016064644,0.24530889093875885
1772619272960649000,6.97264892578125,-0.22680185735225677,0.21573521196842194,0.1611003428697586
1772619272970680000,6.98268017578125,-0.2163979411125183,0.3677905201911926,0.0691821426153183
1772619272980711000,6.9927109375,-0.21539708971977234,0.467669814825058,-0.02209373563528061
1772619272990742000,7.002741943359375,-0.21499523520469666,0.5311363935470581,-0.085023432970047
1772619273000772000,7.012772216796875,-0.23018258810043335,0.5178970694541931,-0.12337218225002289
1772619273010803000,7.022802978515625,-0.24838688969612122,0.44558581709861755,-0.14327238500118256
1772619273020834000,7.032833984375,-0.2718164622783661,0.3646937906742096,-0.15509118139743805
1772619273030865000,7.042864990234375,-0.2934993803501129,0.307504802942276,-0.16396190226078033
1772619273040896000,7.05289599609375,-0.3208566904067993,0.26374343037605286,-0.19785907864570618
1772619273050926800,7.0629267578125,-0.32850903272628784,0.2135351300239563,-0.22933417558670044
1772619273060958000,7.0729580078125,-0.33319178223609924,0.12787845730781555,-0.25279462337493896
1772619273070988800,7.08298876953125,-0.31958410143852234,0.03337804228067398,-0.25311607122421265
1772619273081020000,7.09302001953125,-0.28137585520744324,-0.02054668962955475,-0.20766286551952362
1772619273091050800,7.10305078125,-0.25011274218559265,-0.04915543273091316,-0.14366550743579865
1772619273101081900,7.113081787109375,-0.2195637822151184,-0.07374642044305801,-0.09798284620046616
1772619273111113000,7.123113037109375,-0.19907954335212708,-0.07805648446083069,-0.06682652980089188
1772619273121143800,7.133143798828125,-0.18948309123516083,-0.10345757007598877,-0.04538737237453461
1772619273131175000,7.1431748046875,-0.1849498599767685,-0.1311802864074707,-0.03337598219513893
1772619273141206000,7.1532060546875,-0.1747979372739792,-0.16249947249889374,-0.03072374127805233
1772619273151237000,7.163237060546875,-0.1558559387922287,-0.18491849303245544,-0.0227182786911726
1772619273161268000,7.17326806640625,-0.13271014392375946,-0.18333125114440918,-0.008140134625136852
1772619273171299000,7.183299072265625,-0.11303577572107315,-0.15569163858890533,-0.001124303205870092
1772619273181330000,7.193329833984375,-0.10139850527048111,-0.10624320060014725,-0.005767062306404114
1772619273191361000,7.203361083984375,-0.08942200243473053,-0.047206778079271317,-0.026045968756079674
1772619273201391900,7.213391845703125,-0.0781610757112503,0.02063206396996975,-0.05657706782221794
1772619273211423000,7.223423095703125,-0.06249129772186279,0.058937374502420425,-0.09202640503644943
1772619273221453800,7.233453857421875,-0.04120917245745659,0.09374964982271194,-0.11239951848983765
1772619273231485000,7.24348486328125,-0.0066533260978758335,0.12079005688428879,-0.12224682420492172
1772619273241515800,7.253515869140625,0.028080545365810394,0.1209258958697319,-0.12519417703151703
1772619273251547000,7.263546875,0.0598272867500782,0.1071549504995346,-0.124627985060215
1772619273261577700,7.27357763671875,0.07344488799571991,0.09413520991802216,-0.1367582380771637
1772619273271608800,7.28360888671875,0.0714765414595604,0.07578283548355103,-0.15931521356105804
1772619273281640000,7.293639892578125,0.08283451944589615,0.04412772133946419,-0.1807323694229126
1772619273291670800,7.3036708984375,0.09161069989204407,0.0277162566781044,-0.19302232563495636
1772619273301702100,7.3137021484375,0.10322456806898117,0.005196629092097282,-0.19840554893016815
1772619273311733000,7.32373291015625,0.11855478584766388,-0.010694453492760658,-0.19292129576206207
1772619273321764000,7.33376416015625,0.13450589776039124,-0.009293255396187305,-0.17859655618667603
1772619273331795000,7.343794921875,0.14092838764190674,-0.00871668104082346,-0.16835057735443115
1772619273341825000,7.353824951171875,0.14266076683998108,-0.0317961685359478,-0.17317995429039001
1772619273351855900,7.36385595703125,0.13660793006420135,-0.06421402841806412,-0.18432873487472534
1772619273361887000,7.373886962890625,0.1332862377166748,-0.1063145101070404,-0.1902899295091629
1772619273371918000,7.38391796875,0.13726527988910675,-0.13173145055770874,-0.16716809570789337
1772619273381949000,7.393948974609375,0.13474497199058533,-0.13768190145492554,-0.1239326149225235
1772619273391980000,7.40397998046875,0.13672930002212524,-0.1392766237258911,-0.07607828080654144
1772619273402011000,7.414010986328125,0.1410156637430191,-0.14151474833488464,-0.031796835362911224
1772619273412042000,7.4240419921875,0.14616355299949646,-0.12956087291240692,-0.0006711381138302386
1772619273422072800,7.43407275390625,0.1627505123615265,-0.09376239031553268,0.021139085292816162
1772619273432104000,7.44410400390625,0.18008743226528168,-0.013839864172041416,0.026510415598750114
1772619273442134800,7.454134765625,0.20276926457881927,0.09008356183767319,0.012316014617681503
1772619273452166000,7.464165771484375,0.22745782136917114,0.19025276601314545,-0.00494260061532259
1772619273462196700,7.47419677734375,0.24036359786987305,0.2403911054134369,-0.03884879872202873
1772619273472227800,7.484227783203125,0.2529403567314148,0.2554329037666321,-0.07472583651542664
1772619273482258700,7.4942587890625,0.252526193857193,0.2987228333950043,-0.11019683629274368
1772619273492289800,7.504289794921875,0.2537350058555603,0.34182289242744446,-0.13071516156196594
1772619273502320600,7.514320556640625,0.25155073404312134,0.3400018513202667,-0.14085371792316437
1772619273512351700,7.524351806640625,0.2559433579444885,0.33632826805114746,-0.12956857681274414
1772619273522382800,7.5343828125,0.27401435375213623,0.39654263854026794,-0.09457413852214813
1772619273532414000,7.5444140625,0.2974832057952881,0.5007877945899963,-0.04802102595567703
1772619273542445000,7.554445068359375,0.3384944796562195,0.5945053100585938,-0.001096054445952177
1772619273552476000,7.564475830078125,0.3934946060180664,0.6381398439407349,0.04736841842532158
1772619273562507000,7.574507080078125,0.4516385793685913,0.623587429523468,0.10383009165525436
1772619273572537900,7.584537841796875,0.523762583732605,0.5823619365692139,0.1677941530942917
1772619273582569000,7.59456884765625,0.5924931168556213,0.5431969165802002,0.23494581878185272
1772619273592599800,7.604599853515625,0.6503196358680725,0.519974946975708,0.28942397236824036
1772619273602631000,7.614630859375,0.7033687829971313,0.481110155582428,0.3198591470718384
1772619273612661800,7.624661865234375,0.7164739370346069,0.4256229102611542,0.3125511407852173
1772619273622692900,7.63469287109375,0.6966285705566406,0.3667609393596649,0.27906084060668945
1772619273632723700,7.6447236328125,0.6505268812179565,0.2709380090236664,0.23368270695209503
1772619273642754800,7.6547548828125,0.5915709137916565,0.18091733753681183,0.19124126434326172
1772619273652785700,7.66478564453125,0.5313422083854675,0.145113006234169,0.16580860316753387
1772619273662816800,7.674816650390625,0.47936105728149414,0.16114652156829834,0.15521754324436188
1772619273672848000,7.684847900390625,0.4516298174858093,0.21336844563484192,0.15111814439296722
1772619273682877700,7.694877685546875,0.4406886696815491,0.30331042408943176,0.15370504558086395
1772619273692908800,7.70490869140625,0.44920119643211365,0.42230498790740967,0.1417602300643921
1772619273702939600,7.714939697265625,0.4667372703552246,0.5280113816261292,0.11618038266897202
1772619273712971000,7.724970947265625,0.489534467458725,0.5923645496368408,0.07802394032478333
1772619273723001900,7.735001953125,0.5050144791603088,0.5940722823143005,0.03826813027262688
1772619273733033000,7.745032958984375,0.5155041217803955,0.5281198620796204,0.016956448554992676
1772619273743063800,7.755063720703125,0.5158416032791138,0.42183786630630493,0.01968931406736374
1772619273753095000,7.765094970703125,0.5049647688865662,0.3032110929489136,0.039152491837739944
1772619273763126000,7.7751259765625,0.47118479013442993,0.19035547971725464,0.07340086996555328
1772619273773156900,7.785156982421875,0.4125736653804779,0.09985674172639847,0.11119884997606277
1772619273783188000,7.79518798828125,0.3340264856815338,0.047987520694732666,0.14077089726924896
1772619273793218800,7.80521875,0.25669628381729126,0.011140557006001472,0.15702097117900848
1772619273803250000,7.81525,0.17668798565864563,-0.05204986408352852,0.14743758738040924
1772619273813280800,7.82528076171875,0.099354587495327,-0.1424599289894104,0.13418783247470856
1772619273823312000,7.835311767578125,0.050119798630476,-0.24574239552021027,0.1339055597782135
1772619273833342700,7.8453427734375,0.029690958559513092,-0.34452781081199646,0.1469491869211197
1772619273843373800,7.855373779296875,0.031870245933532715,-0.4384419322013855,0.15736232697963715
1772619273853404700,7.86540478515625,0.06212109327316284,-0.545102059841156,0.1676945984363556
1772619273863436000,7.87543603515625,0.11184163391590118,-0.6244155168533325,0.16548652946949005
1772619273873467000,7.885466796875,0.16507290303707123,-0.7015683650970459,0.14980477094650269
1772619273883498000,7.895498046875,0.20963093638420105,-0.7671197652816772,0.12107820063829422
1772619273893528800,7.90552880859375,0.24320407211780548,-0.7877094745635986,0.07559061050415039
1772619273903560000,7.915559814453125,0.26695623993873596,-0.7711759805679321,0.010258812457323074
1772619273913590800,7.9255908203125,0.2881145179271698,-0.6921306848526001,-0.043951693922281265
1772619273923622000,7.935621826171875,0.3100490868091583,-0.5472322106361389,-0.07827495783567429
1772619273933653000,7.945653076171875,0.3140779137611389,-0.3752385973930359,-0.10124924778938293
1772619273943683800,7.955683837890625,0.32451388239860535,-0.21834568679332733,-0.10158264636993408
1772619273953715000,7.96571484375,0.32703402638435364,-0.06962011754512787,-0.09432926028966904
1772619273963745800,7.975745849609375,0.3244091272354126,0.06083321198821068,-0.07617685198783875
1772619273973777000,7.98577685546875,0.3009490668773651,0.14140421152114868,-0.06886514276266098
1772619273983807700,7.995807861328125,0.2615087032318115,0.1466253399848938,-0.06688748300075531
1772619273993838800,8.0058388671875,0.22269074618816376,0.12109042704105377,-0.08694641292095184
1772619274003869700,8.01586962890625,0.20169943571090698,0.0764462947845459,-0.12293457239866257
1772619274013900800,8.02590087890625,0.20245923101902008,0.008141807280480862,-0.15541821718215942
1772619274023932000,8.035931884765626,0.2010343372821808,-0.09405217319726944,-0.16820105910301208
1772619274033961700,8.045961669921875,0.17913676798343658,-0.21708889305591583,-0.16247126460075378
1772619274043992800,8.055992919921875,0.1155746653676033,-0.2871319055557251,-0.07174541801214218
1772619274054024000,8.06602392578125,0.041105493903160095,-0.3864497244358063,-0.039822109043598175
1772619274064055000,8.076054931640625,-0.0289425291121006,-0.38500359654426575,-0.051875218749046326
1772619274074086000,8.0860859375,-0.0968046635389328,-0.28122207522392273,-0.09175286442041397
1772619274084117000,8.096116943359375,-0.1591579020023346,-0.1878799945116043,-0.13659928739070892
1772619274094147800,8.10614794921875,-0.22416645288467407,-0.11147896200418472,-0.18579213321208954
1772619274104179000,8.116178955078125,-0.26024171710014343,-0.04537283629179001,-0.23805180191993713
