time,seconds_elapsed,z,y,x
1772619564968821800,0.06582177734375,0.19126725274324416,0.0788558023110032,0.04960040866695344
1772619564978852900,0.075852783203125,0.3586065174102783,0.07632862192094325,0.0759582907712087
1772619564988883700,0.0858837890625,0.45831601491868496,0.05169599270671606,0.08907565609551965
1772619564998914800,0.095914794921875,0.5244336239486932,0.04317629390358925,0.10649824433308094
1772619565008947000,0.105947021484375,0.5251677834421395,0.04931026661396026,0.07236782853119075
1772619565018977800,0.115977783203125,0.4778355389028787,0.058251405699551104,0.0636548721782863
1772619565029009000,0.1260087890625,0.4356698833465576,0.10424626415520906,0.08780998354125767
1772619565039039700,0.136039794921875,0.5140326414436102,0.1754123887464404,0.03377283453587442
1772619565049070800,0.14607080078125,0.6880085676461458,0.23873481409996747,0.02095025090705603
1772619565059101700,0.156101806640625,0.8719944312095641,0.2812608274012804,0.10180917320139705
1772619565069132800,0.1661328125,1.063480295139551,0.32304449790269135,0.1924319491410628
1772619565079164000,0.176163818359375,1.2920944049805403,0.3947665028110146,0.21748700501844287
1772619565089194800,0.18619482421875,1.519940453058481,0.4761380873352289,0.18489311460144817
1772619565099225900,0.196225830078125,1.6976362765669821,0.5447223787397146,0.1428772427793592
1772619565109256700,0.206256591796875,1.901071521487832,0.6255600025177002,0.09065605715475976
1772619565119288600,0.21628857421875,2.0275310787558554,0.7514300694599747,0.0344227863445878
1772619565129320000,0.22631982421875,2.076706905335188,0.9056938717156648,-0.08713387437798083
1772619565139350800,0.236350830078125,2.079138516396284,1.1193787079721689,-0.19179222646541894
1772619565149382000,0.2463818359375,2.161071534195542,1.3231214114069938,-0.26494623693823816
1772619565159412700,0.256412841796875,2.3383996934354303,1.553359907579422,-0.2978255932331085
1772619565169443800,0.26644384765625,2.503032037231326,1.6980296597987412,-0.3086572222404182
1772619565179475000,0.276474853515625,2.5511633231937885,1.7594956436306237,-0.3342966904096305
1772619565189505800,0.286505859375,2.4642817430764437,1.7389456075549126,-0.35300102555342017
1772619565199537000,0.296536865234375,2.3411545451015234,1.7331635170221327,-0.3571076571546495
1772619565209567700,0.306567626953125,2.1827257321208715,1.573294734366238,-0.31734292526021596
1772619565219598800,0.316598876953125,1.9310446349471806,1.2756889213636518,-0.3136792151208967
1772619565229630700,0.326630615234375,1.4418775546908378,0.8227215739965439,-0.22269129566326737
1772619565239661600,0.33666162109375,0.3709223936259746,0.24146920749992132,-0.049731853026896713
1772619565249693000,0.34669287109375,-1.19828507142663,-0.3351031844869256,0.18845497180148957
1772619565259723800,0.356723876953125,-2.9179718517601487,-0.863980928362906,0.3902122005075216
1772619565269755000,0.3667548828125,-4.608702002200484,-1.3156751870542764,0.7562018869716673
1772619565279786000,0.376785888671875,-6.166282157823443,-1.6949109432563185,1.1107303412880747
1772619565289816800,0.38681689453125,-7.407792622992396,-2.0823414040908217,1.3991969353497027
1772619565299848000,0.396847900390625,-8.062802591878174,-2.5158736908867954,1.8726165575064717
1772619565309878800,0.406878662109375,-8.045860809427499,-2.913544390706718,2.383276069255173
1772619565319910000,0.416909912109375,-7.443718507376313,-3.1761876113995906,2.524260703220963
1772619565329940700,0.426940673828125,-6.583035159254074,-3.4258906864985823,2.0669366219490763
1772619565339972600,0.43697265625,-5.82696953894794,-3.9939124000221486,1.0506707901880143
1772619565350003700,0.447003662109375,-5.510575438845157,-4.7246612082421775,0.2966778114374727
1772619565360034800,0.457034912109375,-5.921029047870635,-5.015718037992715,0.10281835024394094
1772619565370065700,0.467065673828125,-6.5572688498347995,-4.382905580128729,-0.17241459516994653
1772619565380097000,0.477096923828125,-6.765469701722264,-3.3420766772583126,-0.369583034780994
1772619565390127900,0.4871279296875,-6.244184897193312,-2.3724267584607004,-0.2875521095652133
1772619565400159000,0.497158935546875,-5.17324785630703,-1.5856982888653874,-0.0027989100035279986
1772619565410189800,0.50718994140625,-3.924634281134605,-0.8103786636434495,0.2938668456699699
1772619565420221000,0.517220947265625,-2.6256758356034755,-0.05458733023405075,0.38110998910870403
1772619565430251800,0.527251708984375,-1.3338643392175435,0.588431756606698,0.3032709260921925
1772619565440283000,0.537282958984375,-0.2088292129188776,1.0328342508547008,0.20305399051830172
1772619565450313700,0.547313720703125,0.5924298863321542,1.3062373504929243,0.01649699782524258
1772619565460345900,0.557345947265625,1.0510130277544258,1.4197875956967472,-0.1535345563993789
1772619565470376700,0.567376708984375,1.3494576296687126,1.4910427137456834,-0.18193567130165172
1772619565480407800,0.57740771484375,1.6718272970497607,1.6268408849842846,-0.04357392405220307
1772619565490438700,0.587438720703125,2.0836323206841945,1.6627138701371849,0.18887074952814728
1772619565500469800,0.5974697265625,2.6698855642080304,1.757616990277171,0.46617337735556064
1772619565510500900,0.6075009765625,3.386782372686267,1.8565382600173352,0.7265272450022399
1772619565520532000,0.617531982421875,4.188804857525229,1.7749822588369248,0.9058506697125732
1772619565530562800,0.627562744140625,5.109834245538711,1.7430067195139824,0.8467173666119575
1772619565540594000,0.637593994140625,6.089698684358597,1.5938335183955727,0.6053724065462127
1772619565550624800,0.647624755859375,6.949529799565672,1.2303108796320854,0.36156631706394254
1772619565560657000,0.657656982421875,7.626077646520733,0.8982740969784557,0.10282204003836959
1772619565570687700,0.667687744140625,8.080238879847526,0.6193509187445044,-0.2709392120090313
1772619565580718800,0.67771875,8.193127007880806,0.3751258366651833,-0.49303179286047816
1772619565590749700,0.687749755859375,7.895699474054575,0.21541765139847993,-0.6456379641022533
1772619565600780800,0.69778076171875,7.295404845696687,0.24457374938651918,-0.7573900007776916
1772619565610811600,0.707811767578125,6.7072057288020845,0.4983358906179666,-0.7062935083340853
1772619565620842800,0.7178427734375,6.280536313512921,0.8545257022753358,-0.534087624011375
1772619565630873900,0.727873779296875,6.1065668170511715,1.2235802562028169,-0.23668942587748168
1772619565640905000,0.737905029296875,6.114958797821402,1.6472893603816627,0.1362045966150239
1772619565650935800,0.747935791015625,6.436394983744621,2.0105679612562057,0.29010979469139125
1772619565660967200,0.75796728515625,6.8264785894364115,2.2242298550285398,0.37005218666270373
1772619565670998000,0.767998046875,7.0229387346476315,2.3223209575548767,0.420265283867903
1772619565681030100,0.778030029296875,7.114484214922785,2.331415825897455,0.22304500447176395
1772619565691061000,0.78806103515625,7.0461606202811,2.303728485287726,-0.1695754992865026
1772619565701092000,0.798092041015625,6.668909608155489,2.278630430518836,-0.596198773878999
1772619565711123000,0.808123046875,5.920772442761063,2.158108592736721,-0.6694149263352155
1772619565721154000,0.818154052734375,4.842684361076355,1.8084473060652613,-0.5106852307118475
1772619565731185000,0.828184814453125,3.7942093273669477,1.4406047582760453,-0.1893367230720818
1772619565741216000,0.838216064453125,2.695334478241205,1.0852890991047024,0.3495307190943509
1772619565751247000,0.8482470703125,1.3918909962505102,0.5790957729846239,0.6583891629952937
1772619565761278200,0.8582783203125,0.27760873463451863,0.0067787003546953195,0.22733705737618728
1772619565771309000,0.86830908203125,-0.6445949578553438,-0.6665390786379576,0.0050440403155051165
1772619565781340200,0.878340087890625,-1.7633710237592457,-1.11049923594594,-0.07265340400692075
1772619565791372000,0.8883720703125,-3.618756314349174,-0.797070853780955,-0.5662881677292287
1772619565801403100,0.898403076171875,-6.216513630935549,-0.19938801535665987,-0.5736256344778463
1772619565811434000,0.90843408203125,-7.926484488418698,0.19780556847080588,-0.1676374804286286
1772619565821465000,0.918465087890625,-7.788122311910986,0.0030174481250345706,-0.3923791692830622
1772619565831496000,0.928495849609375,-7.1402505243420595,-0.6593127806462347,-0.3032830914540216
1772619565841527000,0.938527099609375,-7.62703626241982,-0.675492200422287,-0.039847807068005205
1772619565851558000,0.948557861328125,-9.74186042470336,0.09110548142269254,0.29974804919566955
1772619565861589000,0.958589111328125,-12.590036855703591,0.9433047135118394,1.1981002163790166
1772619565871619800,0.968619873046875,-14.154459424567222,1.475771640986204,2.0802003004088996
1772619565881651200,0.978651123046875,-13.672276796370744,1.5707454882748424,2.658769419170916
1772619565891682000,0.98868212890625,-11.28537581461668,1.2181813928339629,2.7696108438074587
1772619565901714200,0.998714111328125,-7.835551587083935,0.44597200858704744,2.3209980383880433
1772619565911745000,1.0087451171875,-4.309937666812539,-0.5197886476870626,1.6050772353351115
1772619565921776000,1.018776123046875,-1.3746090220600367,-1.3302572546362876,0.6543462442800402
1772619565931807000,1.028806884765625,0.6749217070579528,-2.0014744080878795,-0.171235029996559
1772619565941838000,1.038838134765625,1.9167676877915858,-2.480726097398996,-0.5941633590612561
1772619565951869000,1.048868896484375,2.474395140811801,-2.746783218188584,-0.7287511315967887
1772619565961900000,1.058900146484375,2.6000802065759894,-2.811010191166401,-0.6762468181818724
1772619565971931000,1.068930908203125,2.438206221577525,-2.738827875269949,-0.513695372313261
1772619565981962000,1.0789619140625,2.2280033822178837,-2.4873779565036296,-0.2906147120062262
1772619565991992800,1.088992919921875,2.1104080994069574,-2.1945871425673364,0.0030575609397143124
1772619566002024000,1.09902392578125,2.0221277584075925,-1.8752673642762003,0.37865167270377276
1772619566012055000,1.109054931640625,2.0005016175329686,-1.5067135994777083,0.6554871579434722
1772619566022087200,1.119087158203125,2.028570943197608,-1.1733148808211087,0.9335990928597748
1772619566032118000,1.129117919921875,2.046375479957461,-0.8954283521585166,1.150084665750712
1772619566042149000,1.139149169921875,1.9933897397011517,-0.6822903361298144,1.1852178653869778
1772619566052180000,1.149179931640625,1.9249778822541235,-0.5213319681389257,0.9556278962511568
1772619566062211000,1.159211181640625,1.892707013246417,-0.40386940832957624,0.6766701581604778
1772619566072242000,1.169241943359375,1.906549076116085,-0.36021223557386545,0.49777248458154494
1772619566082273000,1.17927294921875,1.9331132579147814,-0.3313800723105669,0.23965229427106677
1772619566092304000,1.189303955078125,1.9744564911723135,-0.2907596734348684,-0.011539119689539074
1772619566102335000,1.1993349609375,2.1015414868623017,-0.2590104902137071,-0.2995820815116167
1772619566112366000,1.209365966796875,2.318558682411909,-0.25470402519144114,-0.5777873207345604
1772619566122397000,1.21939697265625,2.5875854666620492,-0.2631507318235934,-0.773745215512067
1772619566132429000,1.229428955078125,2.879334370329976,-0.25812062870189545,-0.8813733771905302
1772619566142460200,1.239460205078125,3.1121365795105693,-0.24090835874676703,-0.8862166525032371
1772619566152491000,1.249490966796875,3.2578269069492816,-0.11020356512442231,-0.8410989422082901
1772619566162522000,1.259522216796875,3.3672166714727876,0.09111790251284838,-0.7878182375933974
1772619566172553000,1.269552978515625,3.4123113662183284,0.29463293467164037,-0.7527305575992912
1772619566182584000,1.279583984375,3.386490696263313,0.48125411517471073,-0.6443743008419871
1772619566192615000,1.289614990234375,3.1454192559093235,0.6475196131303906,-0.5740916080217808
1772619566202646000,1.29964599609375,2.667288533452153,0.7680334137365221,-0.5411879940684885
1772619566212677000,1.309677001953125,2.0935762070715427,0.7838625587701797,-0.5412905045948923
1772619566222708000,1.3197080078125,1.5018921706706285,0.6715716659776866,-0.562137404725328
1772619566232739000,1.329739013671875,0.5765975264281035,0.2436031507886946,-0.5146165057461708
1772619566242771200,1.339771240234375,-0.8755074077665805,-0.3272986482158303,-0.3342025093201548
1772619566252802000,1.349802001953125,-2.870197708672285,-0.6608855829209089,0.05229278955608606
1772619566262833200,1.359833251953125,-5.094190686205029,-0.7406152454569935,0.6283336319494992
1772619566272864000,1.369864013671875,-7.341649294999241,-0.9771050571091473,1.0429092893410474
1772619566282895000,1.37989501953125,-9.500561605334282,-1.5043857410520314,1.1398613779000937
1772619566292926000,1.389926025390625,-11.367316431200504,-1.905301121881604,1.0724618393007666
1772619566302957000,1.39995703125,-12.708284464943409,-1.7559955265551805,0.5600117908734827
1772619566312988200,1.40998828125,-13.16263449884057,-1.1950481353320181,0.20921149023473262
1772619566323019000,1.42001904296875,-12.939051368904114,-0.9007828649289905,0.3888884045578539
1772619566333050000,1.430050048828125,-12.641468936777114,-1.141559998511523,0.8349363279253244
1772619566343081000,1.4400810546875,-12.818607126402854,-1.4092774537287651,1.3233563892066478
1772619566353112000,1.450112060546875,-13.317695296692847,-1.2946131098031997,1.8934838428378105
1772619566363144200,1.460144287109375,-13.19741705840826,-0.8530494191776961,2.1944423272691664
1772619566373175000,1.470175048828125,-11.80315465685129,-0.5105799437064678,2.2673446280032397
1772619566383206100,1.4802060546875,-9.127966310060025,-0.3587444645762443,2.231947443668544
1772619566393237000,1.490237060546875,-5.983546002060175,-0.27677885968163607,2.109430048155039
1772619566403268000,1.50026806640625,-3.1626626516550775,-0.29468671068549157,1.8727648799359797
1772619566413299200,1.51029931640625,-1.182318856009841,-0.35100444490872323,1.7455014589391649
1772619566423330000,1.520330078125,-0.4053127390056848,-0.3104006318416446,1.5897743061326444
1772619566433361200,1.530361083984375,-0.5445850160956383,-0.07267152418550103,1.2016790977790952
1772619566443392000,1.54039208984375,-0.46545653432309625,0.2175108608180657,0.8430731648907065
1772619566453423000,1.550423095703125,0.18810966549515723,0.45620523330979046,0.6481579110339284
1772619566463454000,1.560453857421875,1.3072019577413796,0.7054368184395134,0.3710138713017106
1772619566473485000,1.570485107421875,2.7654280051648614,0.9038025050111115,0.013228607146441937
1772619566483517200,1.58051708984375,4.370885764250159,0.9200085205331444,-0.609265578059852
1772619566493548000,1.590548095703125,5.978507423371076,0.7139706918984651,-1.2725956315234304
1772619566503579100,1.6005791015625,7.407475812128186,0.4019228773716837,-1.7789181369811295
1772619566513610200,1.6106103515625,8.425001580822467,0.060313160534948104,-2.143914355428517
1772619566523641000,1.62064111328125,8.961779722559452,-0.20849004409238694,-2.2643884085461496
1772619566533672200,1.630672119140625,9.103358523026108,-0.030019363753870126,-2.2323419959440827
1772619566543703000,1.640703125,8.92446559868753,-0.37416641704849896,-2.50192378372848
1772619566553734100,1.650734130859375,8.259856026807427,-0.9414232106141746,-2.467853756344318
1772619566563765000,1.660764892578125,7.462669291561841,-1.0752474514313042,-2.426302141033113
1772619566573796000,1.670796142578125,6.464114765319228,-0.8256313239634037,-2.709493936496973
1772619566583827000,1.680826904296875,5.779591701701283,-0.5278434323921799,-3.030860564315319
1772619566593859000,1.690859130859375,5.4696109757721425,-0.19515856109336016,-3.131308020709455
1772619566603890000,1.700889892578125,5.469530311751365,0.18220204888656735,-3.0376389724090695
1772619566613921300,1.71092138671875,5.821797689267993,0.544901680829376,-2.844966236782074
1772619566623952100,1.7209521484375,6.2237295536637305,0.9062377693340182,-2.619225052028894
1772619566633983200,1.730983154296875,6.798005943667889,1.196664192226529,-2.4191386791445315
1772619566644014000,1.74101416015625,7.535420054996013,1.3809272652961313,-2.178643577373773
1772619566654045200,1.751045166015625,8.002914232626557,1.45683561597839,-1.9140910159282385
1772619566664075300,1.7610751953125,8.035641613230109,1.5218626532927155,-1.7381277153007686
1772619566674106400,1.7711064453125,7.704682981202006,1.6582254726767538,-1.7253572271853685
1772619566684137500,1.781137451171875,7.104739065977931,1.8842559957653282,-1.8106071144476532
1772619566694168300,1.791168212890625,6.3567655667126175,2.0780358158513903,-1.863818187892437
1772619566704199400,1.801199462890625,5.440079760861397,2.0186253032445904,-1.6993819511905313
1772619566714231300,1.811231201171875,4.558194634756446,1.769428424102068,-1.2717372611284254
1772619566724262100,1.82126220703125,3.591057575562596,1.345404262624681,-0.7440304607279599
1772619566734293200,1.831293212890625,2.3597271436244247,0.5413365356937051,-0.05867313824295997
1772619566744324000,1.841323974609375,1.0088064556658267,-0.38948476301580665,0.272742297641933
1772619566754355200,1.851355224609375,-0.323028423550725,-1.2715049136772751,0.13669628912210463
1772619566764386300,1.86138623046875,-1.535136853146553,-2.070608296199143,0.22795126201808452
1772619566774417200,1.871417236328125,-2.6724907782703635,-2.7466496549367903,0.9508489183463156
1772619566784448300,1.8814482421875,-3.1869284933835265,-2.74822640273422,1.2288564430400728
1772619566794479400,1.891479248046875,-2.1703011348336934,-2.156107189786434,-0.41382096656672657
1772619566804510500,1.901510498046875,0.13353519474267958,-2.0731603187695145,-3.017761136506498
1772619566814541300,1.911541259765625,2.119730639025569,-2.841610496613383,-3.8887361615404483
1772619566824572400,1.921572509765625,0.5374322217315435,-2.9171944376468657,-3.2157989062979815
1772619566834604300,1.931604248046875,-3.9977848575413226,-0.7667129787877202,-2.5333187466844915
1772619566844635100,1.94163525390625,-8.947432048255205,1.6054114357255398,-0.7529460269808769
1772619566854666200,1.951666259765625,-12.240175954806803,3.308812997820973,1.5611206047087907
1772619566864697300,1.961697265625,-12.72562839845419,4.308984896132349,3.3296278223127125
1772619566874728200,1.971728271484375,-11.132712725555896,4.378879685613513,3.34540991333425
1772619566884759300,1.98175927734375,-8.422687458661198,4.114551288312673,2.0498218210190533
1772619566894790100,1.9917900390625,-5.600741447460651,3.1101667407423257,0.93449852591753
1772619566904821200,2.0018212890625,-2.7448136716812845,1.7083077465765177,0.1710026825454086
1772619566914852000,2.01185205078125,-0.10941197635531424,-0.10779781915694475,0.1826377368900925
1772619566924883500,2.021883544921875,0.5569330410152673,-1.3416511937014757,-0.48902102284915744
1772619566934914300,2.031914306640625,0.09048808017671107,-1.3277823889553546,-1.7806104739822446
1772619566944945400,2.0419453125,-0.6818412771880626,-1.1672039967253804,-1.7538602680921553
1772619566954977300,2.051977294921875,-1.3385136263281106,-0.9998508496634662,-1.371678521566093
1772619566965008400,2.06200830078125,-1.5518033257871866,-0.7799538608938456,-0.9465319319300353
1772619566975039200,2.072039306640625,-1.2892092049330472,-0.5865474041648209,-0.5153066069021821
1772619566985070300,2.0820703125,-0.60491468937397,-0.4072926607765257,-0.30338878031820055
1772619566995101200,2.09210107421875,0.2818909419983625,-0.31138913142234087,-0.19853198304921388
1772619567005132300,2.10213232421875,0.9616291094273328,-0.3061461162023246,-0.09984116106405853
1772619567015163100,2.1121630859375,1.3593459864765405,-0.24038053548038005,-0.03310235139578581
1772619567025194200,2.1221943359375,1.6949895614504813,-0.1359898944184184,-0.019559198407456277
1772619567035225000,2.13222509765625,1.9894120682418346,-0.0824107183136046,-0.012344590853527187
1772619567045256400,2.14225634765625,2.2803239365637302,-0.11405863311737775,-0.00932385479286313
1772619567055287300,2.152287353515625,2.51911924867928,-0.10908201374858617,-0.04973170689642429
1772619567065318400,2.162318359375,2.697028422677517,-0.04948576931133866,-0.07109992748722434
1772619567075350300,2.172350341796875,2.711696414977312,0.04605097255706787,-0.09772826056331395
1772619567085381400,2.18238134765625,2.625799169722199,0.27002427085489034,-0.15910378963276742
1772619567095412200,2.192412109375,2.545729607707262,0.4795075637683272,-0.26637626974135636
1772619567105443300,2.202443359375,2.517409522151947,0.6266515971466898,-0.39075975138768554
1772619567115474200,2.21247412109375,2.635330383655429,0.7918756232254207,-0.5188754052996635
1772619567125505300,2.22250537109375,2.7753450035452842,0.8674261003807187,-0.6062618661992252
1772619567135536000,2.2325361328125,2.869261889126897,0.9140233086436986,-0.730061264347285
1772619567145567200,2.242567138671875,2.948600798779726,0.9796659936383366,-0.8551172384276986
1772619567155598000,2.25259814453125,3.075163816422224,1.0313140555500984,-0.9637753276757896
1772619567165629200,2.262629150390625,3.2048674701780078,1.0153785275325178,-1.055890716793388
1772619567175660300,2.272660400390625,3.2997073158234356,0.8865813210971653,-1.1964756839171051
1772619567185691400,2.28269140625,3.3162615602612493,0.7304147539600729,-1.2781221398599445
1772619567195723300,2.29272314453125,3.1371681449145075,0.5448126873716712,-1.2589460224859417
1772619567205754400,2.30275439453125,2.5992899329811334,0.3739470021441579,-1.1492641431480646
1772619567215785200,2.31278515625,1.6150100158065557,0.15234788563176987,-0.8914541878305375
1772619567225816300,2.32281640625,-0.016969254979491234,-0.11714534708634018,-0.33284283833950756
1772619567235847200,2.33284716796875,-2.1785013924241063,-0.3737358436115086,0.3984682799383998
1772619567245878300,2.342878173828125,-4.819169045454263,-0.6709807143472135,1.1857612515486775
1772619567255909000,2.3529091796875,-7.518203547257184,-0.9511920326955616,1.6561580187529326
1772619567265940200,2.362940185546875,-9.534096795189381,-1.3300018185704945,1.837824353327602
1772619567275971000,2.37297119140625,-10.546742390626669,-1.859780018417537,1.7941883329577744
1772619567286002200,2.383002197265625,-10.808331133830547,-2.338366960209608,1.6915459968678652
1772619567296033000,2.393032958984375,-10.811351942956447,-2.5691338641703125,1.2733102095335722
1772619567306065400,2.4030654296875,-10.856530808854103,-2.5173873103201387,0.49148456341847774
1772619567316096300,2.41309619140625,-10.609294416129588,-2.559880298134684,0.036855420318990945
1772619567326127400,2.42312744140625,-10.148342792010308,-2.9582901258841154,0.08566460554301739
1772619567336158200,2.433158203125,-9.70608768505454,-3.471680085510015,0.36660116942599413
1772619567346189300,2.443189208984375,-9.211215086632967,-3.747710318781435,0.7028257591582834
1772619567356220200,2.45322021484375,-8.544843181255459,-3.6860397522881625,1.097528841344267
1772619567366251300,2.463251220703125,-7.7807567515790454,-3.2425977736353873,1.4665068229041993
1772619567376282000,2.4732822265625,-6.7489142882406705,-2.407179507412016,1.6064353719457982
1772619567386313200,2.483313232421875,-5.485498865255713,-1.4894637739911674,1.5152294988885522
1772619567396344000,2.493343994140625,-4.006922688242793,-0.6549380726933479,1.1012453776493667
1772619567406375200,2.503375244140625,-2.4330133291095493,-0.04793269465044141,0.5233714015446603
1772619567416406300,2.51340625,-1.0288970575362444,0.4650934000991285,0.11628449247330426
1772619567426438400,2.5234384765625,0.11156301690936088,0.8831258468810469,0.03664206982925534
1772619567436469200,2.53346923828125,0.955267173179984,1.131322974396497,0.09540051173549145
1772619567446500400,2.543500244140625,1.712148201522231,1.1906778843585402,0.14327515605576335
1772619567456531200,2.55353125,2.584906018319726,1.2045872403107583,0.4188725143352523
1772619567466562300,2.563562255859375,3.474855208414793,1.1625041484713554,0.8895035652194172
1772619567476593200,2.57359326171875,4.382997057804465,1.0179762889407575,1.3223553954705596
1772619567486624300,2.583624267578125,5.484638449034095,0.7327341368183493,1.5265531491965054
1772619567496655000,2.593655029296875,6.6364516921430825,0.5664356133759021,1.5639512980900705
1772619567506686200,2.603686279296875,7.695241783639788,0.45618689393550155,1.7251438766956328
1772619567516717300,2.61371728515625,8.480436467796563,0.3223315273277461,1.9132970890715717
1772619567526748200,2.623748046875,8.960548719459771,0.14662278598323464,2.030953746680915
1772619567536779300,2.633779296875,8.912560641360283,0.03243775000721216,2.0019529853850604
1772619567546810000,2.64381005859375,8.381750468116998,0.10166311579421163,1.9233466277904807
1772619567556842200,2.65384228515625,7.727309239029884,0.2648204186014831,1.5581313597649336
1772619567566873300,2.663873291015625,7.224241643714905,0.02945771128311753,0.7307634943325072
1772619567576904200,2.673904296875,6.784831404796242,-0.17299714429825544,0.24040881172679363
1772619567586935300,2.683935302734375,6.364258552816509,-0.36794878464266656,0.18345497155711055
1772619567596966100,2.693966064453125,5.788354853871464,-0.38423546418547627,0.2791769337993115
1772619567606997200,2.703997314453125,5.106214885997772,-0.15168343037366866,0.33599333825968203
1772619567617028400,2.7140283203125,5.195468455943465,0.3486110469661653,0.4051134170413017
1772619567627059200,2.72405908203125,5.361997573271394,0.763427088984847,0.5585216984461993
1772619567637090300,2.73409033203125,5.841946158805489,1.1505145816005766,0.7051527408011258
1772619567647121200,2.74412109375,6.443889723414182,1.486001066316664,0.8391765958435833
1772619567657152300,2.75415234375,6.926039618384838,1.6348692931391298,0.8888687013819814
1772619567667183600,2.76418359375,7.3804019272416825,1.6959107679486274,0.8502790046162902
1772619567677215500,2.774215576171875,7.6644661216259,1.7416168725907801,0.6910035847436636
1772619567687246600,2.78424658203125,7.582064901793003,1.8351783688634633,0.35097098103053864
1772619567697277400,2.79427734375,6.954417571607232,1.8293585766687988,-0.0682110148124164
1772619567707308500,2.80430859375,5.8770192257523535,1.6063149604365228,-0.23134791871905325
1772619567717339400,2.81433935546875,4.383830586019158,1.1716554231762886,0.05333552180835977
1772619567727370800,2.824370849609375,2.7045003659933804,0.6320576939739286,0.3482336284885183
1772619567737401600,2.834401611328125,0.8374597089231014,-0.07920505414009094,0.7444885797590017
1772619567747432700,2.8444326171875,-0.8996119214534759,-0.7611657199241221,1.0413742617934942
1772619567757463800,2.8544638671875,-2.262156996232271,-1.3288148007430136,0.38150245902501045
1772619567767494700,2.86449462890625,-2.9061802916795014,-2.008741184220463,-0.45671281750574705
1772619567777525800,2.87452587890625,-3.1621430116951466,-2.4378470328763124,-0.5493420744296162
1772619567787557600,2.8845576171875,-3.8533103356331586,-2.1945919648729264,-0.3464127332042902
1772619567797588500,2.89458837890625,-4.776124853497743,-1.313156189970672,-0.4933698291758075
1772619567807619600,2.90461962890625,-4.964592830911278,-0.7539052274018526,-0.6440982603795826
1772619567817650400,2.914650390625,-4.625123560169339,-1.1657650499634444,-0.3584005099767819
1772619567827681500,2.924681640625,-4.647933357870579,-1.4508702778331934,-0.027068478059023616
1772619567837712600,2.934712646484375,-5.776206150916218,-0.9487789802044629,0.3485334516853094
1772619567847743700,2.94474365234375,-7.944904526728391,-0.12361878088414668,1.1436795479487627
1772619567857774800,2.95477490234375,-9.902226343226433,0.7603807070262729,2.0963616000063716
1772619567867805700,2.9648056640625,-10.607640219181775,1.3999908622063695,2.6136136418879032
1772619567877836800,2.9748369140625,-9.942441449236869,1.772582942610234,2.5214538291066884
1772619567887867600,2.98486767578125,-8.31268686876297,1.9507298708871006,1.854750207556784
1772619567897898800,2.994898681640625,-6.2618514867872,1.7986739539392291,0.8774822149708866
1772619567907930600,3.0049306640625,-4.0252795981884,1.2642295158468186,0.0633894261751324
1772619567917961500,3.01496142578125,-2.059574568748474,0.5304698353730142,-0.3336457522202283
1772619567927992600,3.02499267578125,-0.7895733376324177,-0.016638853981345892,-0.7438206904347986
1772619567938023700,3.035023681640625,-0.14748831677138804,-0.28630729713588954,-1.0873699970319866
1772619567948054500,3.045054443359375,0.2377121930539608,-0.41019320452362296,-1.1869761802963912
1772619567958085600,3.055085693359375,0.5796984150528908,-0.49112479019537564,-1.2427350385278462
1772619567968116500,3.065116455078125,0.9207698602944612,-0.5835344860844314,-1.2205874310623854
1772619567978147800,3.07514794921875,1.338926883304119,-0.5587092569075525,-1.0246319474376737
1772619567988178700,3.0851787109375,1.730117573454976,-0.4707315521165728,-0.7087753152124583
1772619567998209800,3.095209716796875,1.977570239278674,-0.36534517801553007,-0.4192922741172835
1772619568008240600,3.10524072265625,2.0913035859644413,-0.2328267590999603,-0.043006161501072344
1772619568018271700,3.115271728515625,2.1482085454910993,-0.0773063809119165,0.38242256954461334
1772619568028303600,3.1253037109375,2.1496739418685435,0.08193915527909994,0.7043664127290249
1772619568038334700,3.135334716796875,2.1532114683449266,0.22321108175367116,0.9783005505040288
1772619568048365600,3.145365478515625,2.168323112758994,0.20283815581053494,1.1784415031198412
1772619568058396700,3.155396728515625,2.20536894108355,0.0831811181642115,1.0886143710698932
1772619568068427500,3.165427490234375,2.3612270267933604,-0.05081102656573057,0.8066179959356784
1772619568078458600,3.175458740234375,2.671270881086588,-0.2825004521988332,0.500865993617475
1772619568088489500,3.185489501953125,3.0023750590652227,-0.4654442593634128,0.18401932744160293
1772619568098520600,3.1955205078125,3.315765885698795,-0.5613311298437417,-0.2695933320917189
1772619568108551700,3.2055517578125,3.459335567721724,-0.6514712733656167,-0.7230383069079369
1772619568118582800,3.215582763671875,3.5549954975783824,-0.5972375788748264,-1.1685882906906306
1772619568128613600,3.225613525390625,3.5251042171835896,-0.40123672173842784,-1.442253986787796
1772619568138644700,3.235644775390625,3.137236533975601,-0.11176716117933391,-1.447391934198141
1772619568148675600,3.245675537109375,2.4179209739178416,0.35896672902479765,-1.1829352343425155
1772619568158707700,3.255707763671875,1.6033745230704546,0.8857489619262516,-0.8684187646798789
1772619568168738600,3.265738525390625,0.9638982234030962,1.4243370756946503,-0.6503374470300972
1772619568178769700,3.275769775390625,0.7438824305593967,1.947570676203817,-0.5693742606436833
1772619568188800500,3.285800537109375,0.7707651767879724,2.21811707123667,-0.4512711744410917
1772619568198831600,3.29583154296875,0.7746972555398941,2.0041472805589438,-0.19774788346681743
1772619568208862500,3.305862548828125,0.7186486205816268,1.4131201006315648,-0.007392923262901604
1772619568218893600,3.3158935546875,0.5074421571373939,0.8020401666261255,0.11443272712677717
1772619568228924700,3.325924560546875,-0.1422574303805828,0.2779720149889588,0.313997487289831
1772619568238955800,3.335955810546875,-1.3986457312077283,-0.0972188497364521,0.3187047516653314
1772619568248986600,3.345986572265625,-3.4385184051424265,-0.5450470806494355,0.1840818712837994
1772619568259017700,3.356017822265625,-5.8159290894955396,-0.8998210341595113,0.031954350404441355
1772619568269048600,3.366048583984375,-8.065041310715674,-1.195661883316189,-0.28628413545601067
1772619568279080700,3.376080810546875,-9.877057999700307,-1.727218491012603,-0.5942939631709828
1772619568289111600,3.386111572265625,-11.019133108127116,-2.175690280526131,-0.8609388572532684
1772619568299142700,3.396142578125,-11.345139670705795,-2.4822686506658793,-0.8100111455053091
1772619568309173500,3.406173583984375,-10.8117003180027,-2.5685060876607895,-0.5861081359647214
1772619568319204600,3.41620458984375,-9.642963997143507,-2.5290496910631655,-0.34297979961354286
1772619568329235500,3.4262353515625,-7.94703277092874,-2.5214479838877915,-0.04295775578208268
1772619568339266600,3.4362666015625,-5.993834171840549,-2.8487475088864564,0.08970818184539675
1772619568349297400,3.44629736328125,-4.3045378535956145,-3.5469741036862135,-0.0077898501586169
1772619568359328800,3.456328857421875,-3.600501695734262,-4.5622599844992155,0.05085055485852062
1772619568369359600,3.466359619140625,-3.9157039557039734,-4.899276601392031,0.2454500207643956
1772619568379390700,3.476390625,-4.606353977769613,-3.9366742630183693,0.20371552316695452
1772619568389421800,3.486421875,-4.932122055417299,-2.231510367425531,0.13798245647512375
1772619568399453700,3.49645361328125,-4.373692053842544,-0.6282810980446636,0.08836122421585023
1772619568409484500,3.506484619140625,-3.16648191768229,0.47422450879886746,0.10279891489110886
1772619568419515600,3.516515625,-1.7629741333961486,1.0304216367550194,0.2304375624084845
1772619568429546500,3.52654638671875,-0.5208060811012983,1.2037722706660627,0.4023824942400679
1772619568439577600,3.53657763671875,0.36418577884733677,1.2587931700117885,0.48319596995748576
1772619568449608400,3.5466083984375,1.0198813919097185,1.3693207063935697,0.42495720454379915
1772619568459639600,3.5566396484375,1.7007190450131893,1.5149028972826897,0.3419842492375523
1772619568469670700,3.566670654296875,2.645341490060091,1.655928155519813,0.19608849888723343
1772619568479701500,3.576701416015625,3.826645616069436,1.6869010936714708,0.09055089801354334
1772619568489732900,3.58673291015625,5.070224704205989,1.586612481100857,-0.012003193537332117
1772619568499763700,3.596763671875,6.266286838886141,1.3722278260119258,-0.04543707844242453
1772619568509794800,3.606794921875,7.130575518023967,1.0821085693724453,0.030926212933100758
1772619568519826700,3.61682666015625,7.600595999261737,0.7655966881088913,-0.030379319640062748
1772619568529857500,3.626857421875,7.737688009703159,0.42785277985483405,-0.21270477571059018
1772619568539888600,3.636888671875,7.6236121331900355,0.0664098699748516,-0.3190976599730551
1772619568549919500,3.64691943359375,7.346867321908474,-0.14151026527509092,-0.4094729639576748
1772619568559950600,3.65695068359375,6.962582173362374,-0.15281813349202275,-0.5084454889610409
1772619568569981700,3.666981689453125,6.521663283446431,-0.0004490589417517185,-0.47194615207072343
1772619568580012500,3.677012451171875,6.1547647385090585,0.27782442321181294,-0.2377776960382238
1772619568590043600,3.687043701171875,5.857935170575976,0.5937485677152872,0.040603593871369956
1772619568600074500,3.697074462890625,5.706804113388062,0.8674176248133182,0.14444178868234156
1772619568610105900,3.70710595703125,5.622408504867553,0.9960675317324698,0.1321418041555211
1772619568620136700,3.71713671875,5.563101744896173,0.9954362480916082,0.08799275622963905
1772619568630167800,3.727167724609375,5.4649096662133925,1.0062393816567956,0.07076357167232782
1772619568640198700,3.73719873046875,5.183450101369619,1.0403137929551303,0.042981794244796034
1772619568650230500,3.74723046875,4.728764551907777,1.101717817466706,-0.04249912529438734
1772619568660261600,3.75726171875,4.114156151515245,1.1807425466038286,-0.11465064419377595
1772619568670292500,3.76729248046875,3.2677526731580495,1.2134088446699083,-0.2632346837799996
1772619568680323300,3.7773232421875,2.2871640117168424,1.1525099932014942,-0.3782562436453998
1772619568690354400,3.7873544921875,0.9151146110117435,0.9689091834329068,-0.37582090625725684
1772619568700385300,3.79738525390625,-0.7269710432469845,0.8809646502591669,-0.24740480809397994
1772619568710416400,3.80741650390625,-2.129429610741138,1.0805801907613872,0.23420820352099833
1772619568720447200,3.817447265625,-2.974574613469839,1.304675215742737,1.025528311755508
1772619568730478300,3.827478271484375,-3.1042928802728653,1.478908477707207,1.4965671762555837
1772619568740509200,3.83750927734375,-2.3297826717376706,1.3033812304094432,1.5589932372912763
1772619568750540300,3.847540283203125,-1.2365449517160654,0.49676761838793754,1.4865684909410775
1772619568760571100,3.857571044921875,-0.5530044693946838,-0.4434866945773363,1.1565320883244274
1772619568770603300,3.867603271484375,-0.2911456770777702,-1.05065120870471,0.6125711954765022
1772619568780634000,3.877634033203125,-0.1846475423425436,-1.3056617425620556,-0.299546498741582
1772619568790665200,3.887665283203125,-0.025986089649796484,-1.497579568168521,-1.398463652639091
1772619568800696300,3.8976962890625,-0.41244507510364053,-2.2761004736498,-1.9736177022606134
1772619568810727400,3.9077275390625,-1.66037768227458,-2.876693208171427,-1.788558218116313
1772619568820758300,3.91775830078125,-3.704157300519943,-2.129916809736192,-1.2362785558648406
1772619568830789400,3.927789306640625,-5.957981937214732,-0.37777912765294314,-0.5055032249640673
1772619568840820200,3.9378203125,-7.619410589846968,1.178761748050153,0.7421531956139952
1772619568850851300,3.947851318359375,-8.446378715372084,2.3668074572741986,2.0739339334905145
1772619568860882200,3.957882080078125,-8.21934223011136,3.1022125668674705,2.820710916447639
1772619568870913300,3.967913330078125,-6.747402130112052,3.098149555212259,2.9905899287253614
1772619568880944000,3.977944091796875,-4.58427775503993,2.3447440940260886,2.5554560519516465
1772619568890976300,3.987976318359375,-2.7622084585964677,1.2821532950721681,1.6967010415434836
1772619568901007000,3.998007080078125,-1.6430407630264758,0.34643443357944487,0.7093684588000178
1772619568911038200,4.0080380859375,-1.0843547408640384,-0.35410964438244696,-0.147802643417567
1772619568921069000,4.018069091796875,-0.858989988207817,-0.7927401311002671,-0.7049374175500124
1772619568931100400,4.028100341796875,-0.7281365798950195,-0.902731807039678,-0.8761260511215776
1772619568941131300,4.03813134765625,-0.49471302394568917,-0.8571300395548344,-0.7948194946575909
1772619568951162400,4.048162353515625,-0.14422610010504722,-0.7920639854043722,-0.614874796243757
1772619568961193200,4.058193115234375,0.36164018601775166,-0.7335681034244597,-0.45647528242282565
1772619568971224300,4.068224365234375,0.960892027324438,-0.7588561278074979,-0.4011114879235625
1772619568981255200,4.078255126953125,1.5164444276362656,-0.8195809378832578,-0.3847529121883213
1772619568991286300,4.088286376953125,1.9679045853108166,-0.9621709612190723,-0.3906393398784101
1772619569001317400,4.0983173828125,2.2065005754619835,-1.2034328095786273,-0.44165480297505855
1772619569011348200,4.10834814453125,2.3248335248976946,-1.3904238463073968,-0.5401679303057492
1772619569021380000,4.118380126953125,2.329838201317191,-1.5131984314523637,-0.5499830757468939
1772619569031411200,4.1284111328125,2.2182430357038974,-1.56935140356794,-0.4771998713478446
1772619569041442000,4.138442138671875,2.0439736795127392,-1.5286623964354396,-0.39860739614814517
1772619569051473200,4.14847314453125,1.9314964703679083,-1.3930835670359432,-0.29253771595805883
1772619569061504300,4.158504150390625,1.8107915311038494,-1.2625254884079098,-0.2754581324718892
1772619569071535400,4.168535400390625,1.659042049756646,-1.1519038440018892,-0.34225758628621694
1772619569081566200,4.178566162109375,1.4318150103598832,-0.9791951612561941,-0.5693462401255965
1772619569091597300,4.188597412109375,1.1076502762556075,-0.7983787215091288,-0.8563866738416254
1772619569101628400,4.19862841796875,0.8402326807677746,-0.603215776501596,-1.109597464800626
1772619569111659300,4.2086591796875,0.714506113949418,-0.39902299121171236,-1.237265667206049
1772619569121690400,4.2186904296875,0.713036625918746,-0.17541472683399914,-1.188905540923774
1772619569131721200,4.22872119140625,0.834110983017087,0.08741261825412511,-0.9976099388688802
1772619569141753000,4.238753173828125,1.0848989307433365,0.34370836961641904,-0.7933826667875051
1772619569151784200,4.2487841796875,1.3529302742153406,0.5300334897823632,-0.5316516655687242
1772619569161815000,4.25881494140625,1.6502660381048917,0.6810055570162832,-0.36595578419454394
1772619569171846100,4.26884619140625,1.9623457821398973,0.7933068250723183,-0.3079031890027225
1772619569181877200,4.278877197265625,2.3076304611623284,0.809180393769592,-0.33509704700708387
1772619569191908400,4.288908447265625,2.6238720010519025,0.8036838421799242,-0.4747850652910769
1772619569201939500,4.298939453125,2.805439113035798,0.7684313270129263,-0.6056120239883661
1772619569211970300,4.30897021484375,2.7985136976867913,0.761167765750736,-0.6840076614417135
1772619569222001400,4.31900146484375,2.6253531795203684,0.7590861371710896,-0.805693866828084
1772619569232032300,4.3290322265625,2.252732749804854,0.6796671480193733,-0.933893399631232
1772619569242063400,4.3390634765625,1.8237334302634,0.5652706612497568,-0.974157020958513
1772619569252094200,4.34909423828125,1.1703671369314192,0.3919634280890226,-0.8395197101928293
1772619569262125300,4.359125244140625,0.13591653692126274,0.10706482870727776,-0.5939043427988886
1772619569272157200,4.3691572265625,-1.4753899481922388,-0.22360183463692665,-0.23527685566581785
1772619569282188300,4.379188232421875,-3.86203549388051,-0.45779579043686386,0.13304609605148435
1772619569292219100,4.38921923828125,-6.4395560781240455,-0.8010302589312195,0.6276954801764338
1772619569302250200,4.399250244140625,-8.553725575891137,-1.222530162627995,1.0851278441283851
1772619569312281300,4.40928125,-9.926206938272713,-1.5966493064686655,1.4470327454969285
1772619569322312400,4.4193125,-10.379553932607173,-1.9441262348383663,1.6900013977743684
1772619569332343300,4.42934326171875,-10.009511828947067,-2.2101728342339397,1.7292366989672183
1772619569342374400,4.43937451171875,-8.984457418313623,-2.2379668500885366,1.4996356239154933
1772619569352405200,4.4494052734375,-7.507757556566595,-2.1840908829942345,0.9828779414221643
1772619569362436400,4.459436279296875,-5.584295924094319,-2.4629265290752054,0.3317853651758283
1772619569372467200,4.46946728515625,-3.855525089073181,-3.2111756304115056,-0.2263931458558887
1772619569382498300,4.479498291015625,-3.278011032322049,-3.958175316208601,-0.4799333148997277
1772619569392530200,4.4895302734375,-3.8894174218028783,-3.824351659913361,-0.47204818767309187
1772619569402561300,4.499561279296875,-4.752618305703997,-2.784539532870054,-0.4082598983734846
1772619569412592000,4.509592041015625,-4.857170567068457,-1.585791081715375,-0.2785864936254918
1772619569422623200,4.519623291015625,-4.000650768366456,-0.6527611670456827,0.07484254808165132
1772619569432654000,4.529654052734375,-2.551734401080012,0.12011837154775858,0.45756950740031893
1772619569442685400,4.539685546875,-1.0383622204959393,0.6593693331390619,0.6263805981855839
1772619569452716300,4.54971630859375,0.31947686854898927,1.0706418573319911,0.5982087254619225
1772619569462747400,4.559747314453125,1.3955097712695599,1.2958780151724814,0.4699746693346649
1772619569472778200,4.5697783203125,2.0651444778352976,1.3346658648587764,0.18287099765669554
1772619569482809300,4.579809326171875,2.412453940683603,1.239412031584978,-0.12850666252356022
1772619569492840200,4.589840087890625,2.7453414949476715,1.0634108831651508,-0.31061822011508045
1772619569502871300,4.599871337890625,3.300654241284728,0.900071501789242,-0.407059874933958
1772619569512902100,4.609902099609375,4.144325079807639,0.7500101196594536,-0.38705282316114753
1772619569522934300,4.619934326171875,5.076057063621282,0.6061565061286092,-0.30764172505494203
1772619569532965000,4.629965087890625,6.086159988838434,0.5454362260974943,-0.32505707983411847
1772619569542996200,4.639996337890625,7.112137944057584,0.474824958910048,-0.3640160117710009
1772619569553027000,4.650027099609375,8.052465322259067,0.4590718017220497,-0.5235824504794553
1772619569563058400,4.660058349609375,8.668235752168297,0.3380171722374856,-0.6142762458287179
1772619569573089300,4.67008935546875,8.926245467841625,0.27134631323888897,-0.6561368540238589
1772619569583120400,4.680120361328125,8.78712575096488,0.3508253620147705,-0.7497743381422013
1772619569593151200,4.690151123046875,8.170296167391538,0.5376451338298619,-0.7313027888409793
1772619569603182300,4.700182373046875,7.363295309618115,0.9052699472151696,-0.5991502440957353
1772619569613213200,4.710213134765625,6.4983145565629,1.2638431468777358,-0.4718527381662279
1772619569623244300,4.720244384765625,5.73052927236855,1.5390496426761149,-0.3369780019154772
1772619569633275400,4.730275390625,5.0980052760571235,1.772848461678624,-0.24072291917726396
1772619569643307300,4.740307373046875,4.759528523483872,2.0284213055938483,-0.2529346408987418
1772619569653338000,4.750338134765625,4.767841009277105,2.2498396587118505,-0.3124086837284267
1772619569663369500,4.760369384765625,5.029242705476284,2.405335925371945,-0.388761234514229
1772619569673400300,4.770400390625,5.400436317259073,2.3732328141465784,-0.4544359586149454
1772619569683431700,4.780431640625,5.657012200736999,2.2248545627981424,-0.4311626350551843
1772619569693462500,4.790462646484375,5.560803989347815,1.878904551734775,-0.08546513744816184
1772619569703493600,4.80049365234375,5.286513000959157,1.4699027489528058,0.42707244313210246
1772619569713524500,4.8105244140625,5.0718642881065605,1.243331396985799,0.7566215736884623
1772619569723555600,4.8205556640625,4.607733449429273,0.6436103307321668,1.1891912259973585
1772619569733586400,4.83058642578125,3.677222531843185,-0.24909663363844156,1.5721937873870133
1772619569743617500,4.840617431640625,2.0864871255934236,-0.8503715052053332,1.2296893867328762
1772619569753648600,4.850648681640625,0.026918986585736274,-1.2031465399831534,0.6203706902462989
1772619569763679500,4.860679443359375,-1.9488018254339694,-1.2546952331736683,0.15507950255274772
1772619569773711400,4.87071142578125,-3.7547465010285377,-0.8253758878976106,-0.2881664420712739
1772619569783742500,4.880742431640625,-5.636950240439176,-0.19532675726711748,-0.43498321625664826
1772619569793773300,4.890773193359375,-7.336206811684369,0.22263737351894378,0.3821117865623906
1772619569803804400,4.900804443359375,-8.234627477526665,0.4182119680672884,1.5695475106619297
1772619569813835500,4.91083544921875,-7.751902413016557,0.5590685917392373,2.2500711293801663
1772619569823866600,4.92086669921875,-6.585266863828897,0.09189385532140731,2.202312037730962
1772619569833897500,4.9308974609375,-6.0830900798738,-0.8417340252414345,1.6558312710165977
1772619569843928600,4.940928466796875,-7.262458853906392,-1.170615850995481,0.4919602181062102
1772619569853959700,4.950959716796875,-10.010255340790748,-0.8686464359559118,-0.2792525197861716
1772619569863990500,4.960990478515625,-12.4749900883317,-0.13775763474330305,-0.4488825257388875
1772619569874021600,4.971021728515625,-13.578738096451758,0.5946254966802895,-0.07239343789648264
1772619569884052500,4.981052490234375,-12.915301075482368,1.064708521760255,0.6179976044394075
1772619569894083600,4.99108349609375,-11.064307297849654,1.2262066591836511,0.8714351898916065
1772619569904115500,5.001115478515625,-8.430203241118788,1.1365217120833695,0.786681707844138
1772619569914146300,5.011146240234375,-5.401418898555636,0.6533938389260322,0.765307203643024
1772619569924177400,5.021177490234375,-2.2877678228288887,0.11562135238945484,0.47557519275546073
1772619569934208500,5.03120849609375,0.35566695682704447,-0.46956513868570326,0.05900017824023961
1772619569944239600,5.041239501953125,2.297745611485839,-1.0002819345571101,-0.2498468674838543
1772619569954270700,5.051270751953125,3.491718080410361,-1.3188815818801523,-0.4824801498383283
1772619569964301600,5.061301513671875,4.020689932310581,-1.484478532924503,-0.6048011459968984
1772619569974332700,5.071332763671875,4.127356993871927,-1.5403526880986989,-0.6457113215994089
1772619569984363500,5.081363525390625,3.9568560503035783,-1.467454625148326,-0.506687027921155
1772619569994394600,5.09139453125,3.625910862278938,-1.3818131082199514,-0.2626552764568478
1772619570004425500,5.101425537109375,3.2891116875290867,-1.2683520026043056,0.029408611444383857
1772619570014456600,5.11145654296875,3.123055448409915,-1.134965860943496,0.3379625194407999
1772619570024487400,5.1214873046875,3.1990269274562597,-0.9761746443912386,0.5123451998133212
1772619570034519600,5.13151953125,3.5268916851222514,-0.9229232389360665,0.5955184999972581
1772619570044550400,5.14155029296875,3.9645863522946834,-1.0237637863010167,0.6005806787576526
1772619570054581500,5.15158154296875,4.453129747694731,-1.2043401336818933,0.4383426096871495
1772619570064612600,5.161612548828125,4.826844986909627,-1.4755365170560777,0.156522029511258
1772619570074643700,5.171643798828125,5.154678764915466,-1.6762445289701222,-0.39483934885151684
1772619570084674600,5.181674560546875,5.442493836265802,-1.7948558569557964,-1.0598822706475852
1772619570094705700,5.19170556640625,5.471690704655647,-1.9138732815243302,-1.7308660537347196
1772619570104736500,5.201736572265625,5.030002583932876,-2.1146958597287533,-2.1776878840841354
1772619570114767600,5.211767578125,3.8001147520184513,-2.0959576953805983,-2.354296789138764
1772619570124798500,5.221798583984375,1.9261732295185325,-1.4420949968338013,-2.3242758910149335
1772619570134829600,5.23182958984375,-0.02290975094437599,-0.5468078067116439,-2.0275169041000307
1772619570144860400,5.2418603515625,-1.3577028954446315,0.2346048746883869,-1.5391469655707477
1772619570154891500,5.2518916015625,-1.908876642280817,0.8491523386739194,-0.8250131920650601
1772619570164923400,5.26192333984375,-1.6122750378847122,1.3493554844684899,-0.27806356572993096
1772619570174954500,5.27195458984375,-0.5430255116939544,1.6177527386434376,0.00028089016745798287
1772619570184985300,5.2819853515625,0.9212953454732894,1.580764339594543,-0.07083913939287885
1772619570195016700,5.2920166015625,2.3593857828408478,1.2186556592822073,-0.4231496436651796
1772619570205047600,5.302047607421875,3.280819075480103,0.6924028570823371,-0.7801574206419288
1772619570215078700,5.31207861328125,3.464437274774909,0.2557363639138639,-1.0499141266018153
1772619570225109500,5.322109619140625,2.9888112286150452,0.004278700232505798,-1.053670556525886
1772619570235140600,5.332140625,2.989186491668224,-0.021148586490750312,-1.131995393765345
1772619570245171500,5.34217138671875,2.1582775195628403,-0.072493719933182,-0.9093895844284444
1772619570255203600,5.35220361328125,1.2897259222835302,-0.06012596739977598,-0.6134351188294589
1772619570265234400,5.362234375,0.45197921311259265,-0.10007467755898833,-0.2637836959648877
1772619570275265500,5.372265625,-0.2166021850079298,-0.2191271734409034,0.00008782441392540931
1772619570285296400,5.38229638671875,-0.9777771111518144,-0.42042204533219335,0.1597854882866144
1772619570295327500,5.392327392578125,-2.1302719067841767,-0.7781668313466013,0.24792075825948268
1772619570305358300,5.4023583984375,-3.763285781314969,-1.1392277561716735,0.36188583134189245
1772619570315389400,5.412389404296875,-5.567573921874165,-1.4294959197625516,0.4287509342709556
1772619570325420500,5.422420654296875,-7.183249123591184,-1.535483474627137,0.40719292672909796
1772619570335451600,5.43245166015625,-8.352883270072937,-1.5089663468405603,0.32540582020655273
1772619570345482500,5.442482421875,-8.773066245952249,-1.4168074108421802,-0.01706933608679101
1772619570355513600,5.452513671875,-8.485708270719647,-1.4227023140996693,-0.5674809577103704
1772619570365544400,5.46254443359375,-8.040071120110154,-1.7048156666770578,-0.956963967160508
1772619570375575600,5.472575439453125,-8.049858354631066,-2.230219596962631,-1.1248911877833305
1772619570385607400,5.482607421875,-8.579465581825374,-2.5305735396295783,-1.0989350548803805
1772619570395638500,5.492638427734375,-9.24962752713561,-2.4290336118236184,-0.731015057940781
1772619570405669400,5.50266943359375,-9.478012504395842,-1.922873603451252,-0.15549206540901214
1772619570415700500,5.512700439453125,-9.230162948209047,-1.266360390395671,0.6187772835750133
1772619570425731300,5.5227314453125,-8.517080145061016,-0.5294597815476357,1.3024848660916089
1772619570435762400,5.532762451171875,-7.339792268955707,0.22355726484283803,1.8115557934746145
1772619570445793300,5.542793212890625,-5.810192007148266,0.7601040820419788,2.079408857770264
1772619570455824600,5.55282470703125,-3.9675159760057923,1.1507663644045592,2.0092038332961497
1772619570465855500,5.56285546875,-2.0710393810927865,1.3294123282447456,1.6850681791558861
1772619570475886600,5.572886474609375,-0.4699316339105367,1.3347840844109653,1.2988184525385498
1772619570485917700,5.582917724609375,0.6902677447497845,1.3842108170114458,0.8093056275844573
1772619570495948500,5.592948486328125,1.5074422060132027,1.4492676649421452,0.43758280429579316
1772619570505979600,5.602979736328125,2.000774589255452,1.435433785378933,0.3052043053075671
1772619570516011500,5.613011474609375,2.4709569830566642,1.5222843858361244,0.5539059482790529
1772619570526042400,5.62304248046875,2.9936931554377075,1.6601830364853143,0.801774866753444
1772619570536073500,5.633073486328125,3.6280250779539345,1.7827578612744808,0.9947418360866606
1772619570546104300,5.643104248046875,4.427219061368704,1.884989570736885,1.0743680382482708
1772619570556135400,5.653135498046875,5.475759561529755,1.9429525148838758,1.0533420552238821
1772619570566166500,5.66316650390625,6.734139912956953,1.8218094764634967,0.9850990515377372
1772619570576197600,5.67319775390625,7.832831222209334,1.4525398184806109,1.002768563741073
1772619570586228700,5.683228759765625,8.511935183387994,0.9707032272428273,0.9965801574297248
1772619570596259600,5.693259521484375,8.67199715052843,0.6036141281694174,0.8182227282073349
1772619570606290700,5.703290771484375,8.261981932920216,0.4083551754415035,0.579681536983326
1772619570616321500,5.713321533203125,7.401196877989173,0.4172407849475741,0.31617289510015395
1772619570626352600,5.7233525390625,6.316241833144426,0.6071259356826544,0.02758939666058868
1772619570636383500,5.733383544921875,5.246725764971972,0.9452151502430438,-0.22602884258814154
1772619570646415400,5.743415283203125,4.381569655349851,1.3597875927641987,-0.27629933253638445
1772619570656446500,5.753446533203125,3.829077227130532,1.7676865488708018,-0.22895185389537362
1772619570666477600,5.7634775390625,3.747279818409681,2.1707339732930064,-0.20270364271067082
1772619570676508200,5.773508056640625,4.059276560336351,2.4980986724823713,-0.13703929387349634
1772619570686539300,5.783539306640625,4.640412899237871,2.706483356504142,-0.09076519835134968
1772619570696570000,5.793570068359375,5.456938541203737,2.869505342493951,-0.0029747962933965024
1772619570706601200,5.803601318359375,6.202484521061182,2.964973549170792,0.17901238599978386
1772619570716632300,5.81363232421875,6.295851371544599,2.833805960342288,0.21881218920759857
1772619570726663400,5.823663330078125,5.6827568828463555,2.4971973397284746,0.04313509424352087
1772619570736694300,5.8336943359375,4.2662154294639825,1.8871371041595935,0.06768867600532248
1772619570746725400,5.843725341796875,2.5571727927416563,1.4252172195300459,0.013167259747488424
1772619570756756200,5.853756103515625,1.2570020488113165,1.3848647508755325,-0.13178109021750278
1772619570766787300,5.863787353515625,0.2675222249060869,1.0571098833248018,0.055044609014876185
1772619570776819200,5.873819091796875,-0.3503326100617647,0.4073302163079381,0.1943584419579245
1772619570786850300,5.883850341796875,-0.9197539612501859,-0.4049605645671487,0.10738211449552326
1772619570796881200,5.893881103515625,-1.5359551837921142,-1.2211989140242336,0.2151528264498338
1772619570806912300,5.903912353515625,-1.7981576749801635,-1.7129235698089003,0.3514611026350409
1772619570816943000,5.913943115234375,-1.9417244343936442,-1.9521131419390438,0.4501399784540757
1772619570826974200,5.92397412109375,-2.0951462328672408,-1.9173092473223805,0.49547819963190703
1772619570837005300,5.93400537109375,-2.067888808107376,-1.7997694940909743,0.29069566828794774
1772619570847036400,5.944036376953125,-1.6505910322755575,-1.872689768873155,-0.11007913502715527
1772619570857067300,5.9540673828125,-1.258687225419283,-2.179554408608377,-0.42873372740782795
1772619570867098400,5.964098388671875,-1.7204174326956272,-2.528933078946173,-0.8344858807440847
1772619570877129200,5.974129150390625,-3.427300845557451,-2.407193243676424,-1.206152662996575
1772619570887160300,5.984160400390625,-5.970176232877374,-1.7370692922890185,-1.032159858724475
1772619570897191200,5.994191162109375,-8.58262842977047,-0.7138622630879282,-0.4000088239112869
1772619570907223300,6.004223388671875,-10.303481915795803,0.32303046937733887,0.36146088392809034
1772619570917254100,6.014254150390625,-10.598560256147383,0.9726984927132725,0.946099970253557
1772619570927285200,6.02428515625,-9.564211947467923,1.4738164152652025,0.9502496372789144
1772619570937316000,6.034316162109375,-7.387338448506593,1.5876915085092187,0.515673942377232
1772619570947347200,6.04434716796875,-4.601922717323899,0.7570750896096229,0.5313267079306766
1772619570957378000,6.0543779296875,-2.1357214043617248,-0.034115620091557504,-0.07151972380187362
1772619570967409400,6.064409423828125,-0.34650106907486916,-0.4763657586112618,-1.0031970913514494
1772619570977440300,6.074440185546875,0.9147989691913128,-0.9150561588227748,-1.3347415604434907
1772619570987471400,6.084471435546875,1.6038637678921221,-1.3050199375271796,-1.3616693148575723
1772619570997502200,6.094502197265625,1.8567121552795172,-1.5487766714423894,-1.158034309580922
1772619571007533300,6.104533203125,1.9349831434398888,-1.5178434807792305,-0.8135068056013435
1772619571017564400,6.114564453125,1.939272365066409,-1.2966384781509637,-0.4778156651586294
1772619571027596300,6.12459619140625,1.8158979143321512,-0.9878522227033972,-0.15616532502807676
1772619571037627100,6.134627197265625,1.6496283247232437,-0.6123658821627498,0.03570924595855176
1772619571047658200,6.144658203125,1.5389438442140817,-0.2998851561114192,0.028259514474496244
1772619571057689000,6.154689208984375,1.5748223823249339,-0.10782295359820127,-0.056235828093439334
1772619571067720200,6.16472021484375,1.7398218058675528,0.03295972805470228,-0.15617928048819302
1772619571077751000,6.1747509765625,2.0434435181587935,0.11536854667216538,-0.22189349634908137
1772619571087782100,6.1847822265625,2.4775404531002043,0.16139906096309423,-0.21191884949728845
1772619571097813200,6.194813232421875,3.0323423273056744,0.20966741730868815,-0.179892383704707
1772619571107844400,6.20484423828125,3.602842705902457,0.20380583179891107,-0.1937445295769721
1772619571117875500,6.21487548828125,4.117902352306246,0.18051497258245944,-0.30036015321202575
1772619571127906300,6.22490625,4.534019978442788,0.20431553488671778,-0.5393623860765249
1772619571137937400,6.2349375,4.760985152032971,0.2377311900153756,-0.8593996649872511
1772619571147968300,6.24496826171875,4.741104393520951,0.27060236300379037,-1.1907378709174692
1772619571157999400,6.254999267578125,4.491908683422207,0.39723143161982294,-1.4593538824096322
1772619571168031200,6.26503125,4.077299123761057,0.6584162701979279,-1.5698878485321999
1772619571178062000,6.27506201171875,3.6942321188330647,1.0087769373103976,-1.5361504141032696
1772619571188093200,6.28509326171875,3.5129724653631444,1.345827164211869,-1.39514532187134
1772619571198124300,6.295124267578125,3.454090068283677,1.665112894102931,-1.2327590034365654
1772619571208155100,6.305155029296875,3.4571289975881574,1.9329402394354342,-1.086256263636425
1772619571218186500,6.3151865234375,3.4231109926521777,2.073767637012899,-0.8972872778981924
1772619571228217300,6.32521728515625,3.33194545160532,2.092094736342132,-0.6580884995482862
1772619571238248400,6.33524853515625,3.199684514582157,1.9575895275235176,-0.3978555548675358
1772619571248279300,6.345279296875,2.7993004641503094,1.617640948832035,-0.13036854740530252
1772619571258310400,6.355310302734375,2.1806752293318508,1.1142156261205673,0.13418898247629404
1772619571268341200,6.36534130859375,1.5449696803748607,0.37728637569993734,0.3659619947396219
1772619571278372400,6.375372314453125,0.5609861157983541,-0.6027610184714198,0.36677681825384495
1772619571288404200,6.385404296875,-1.0858365038543938,-1.7961892975166438,0.08035473563186823
1772619571298435300,6.395435302734375,-3.534040387833118,-3.1827626058757303,-0.2561941176187247
1772619571308466200,6.405466064453125,-6.708252607506513,-4.266897858770191,-0.2029074216544628
1772619571318497300,6.415497314453125,-9.935621247828006,-4.672001923461258,0.1084206272304058
1772619571328528100,6.425528076171875,-12.555135053670405,-4.532602805121242,0.5499917705100029
1772619571338559200,6.435559326171875,-14.193267001867293,-3.949460971616208,0.707046518658474
1772619571348590300,6.44559033203125,-14.852780711913107,-3.372609470427036,0.8863215741824358
1772619571358621400,6.455621337890625,-15.017853200691938,-3.174036863106489,1.3907187376007437
1772619571368652300,6.46565234375,-15.021733256995677,-3.2156197503387927,1.7654669731251895
1772619571378683400,6.475683349609375,-14.900067363744974,-3.1532664622783657,2.0459351888440547
1772619571388714200,6.48571435546875,-14.129067793679237,-3.017697131359577,2.019532042825967
1772619571398745300,6.495745361328125,-12.49880351011753,-2.706419935879111,1.5149259858973323
1772619571408776200,6.505776123046875,-10.398999806833267,-2.4472667492590845,1.4447513565614818
1772619571418808300,6.515808349609375,-8.893423394691943,-1.9118857609689235,1.7067608093954623
1772619571428839200,6.525839111328125,-7.768710339954495,-0.536332370730862,1.9536494115956127
1772619571438870300,6.535870361328125,-6.370233535572886,0.9324772492229938,2.603085818132758
1772619571448901000,6.545901123046875,-4.583595033472776,1.896554336324334,3.2745576769977807
1772619571458932200,6.55593212890625,-2.596830849391222,2.447175856105238,3.5648277402848003
1772619571468963000,6.565963134765625,-0.5218833549439906,2.7747061211198565,3.3774767842024565
1772619571478994400,6.575994384765625,1.5834475873291491,2.760814958411455,2.956979627807438
1772619571489025300,6.586025390625,3.9792876623421907,2.611274677546322,2.4157981365449723
1772619571499056400,6.596056396484375,6.211408416751027,2.487597152212262,1.785678863287717
1772619571509087200,6.606087158203125,7.55883249476552,2.248501103584468,0.9563129559058695
1772619571519118300,6.616118408203125,8.264935522028804,2.017387870404124,0.4000361503096297
1772619571529149200,6.626149169921875,8.361116845411061,1.7254560113847255,0.25698285684362054
1772619571539180300,6.63618017578125,8.16540488821864,1.6023615466356276,0.19109156738277525
1772619571549212200,6.646212158203125,7.984124776482582,1.736467527003586,0.137544987506466
1772619571559243300,6.6562431640625,7.933626761388778,2.10189921425879,0.18672522539943456
1772619571569274000,6.666274169921875,7.970634011268615,2.4756375420883296,0.2493710666656494
1772619571579305200,6.67630517578125,8.040181010225414,2.836527201999724,0.3426342375788837
1772619571589336000,6.686336181640625,8.087665814977884,3.1010400159567593,0.3109960404515266
1772619571599367200,6.6963671875,8.021941004657744,3.278518105061352,0.09681863490510731
1772619571609398300,6.706398193359375,7.852057900726795,3.4010940988942977,-0.1867916782317683
1772619571619429400,6.716429443359375,7.724364417749642,3.475402905425429,-0.5645952096736059
1772619571629460200,6.726460205078125,7.6021268620908256,3.443821479986608,-0.9100928373269737
1772619571639491300,6.7364912109375,7.388707398772239,3.3895202732175584,-1.1401431174509227
1772619571649522400,6.7465224609375,7.1002587056934825,3.443030037347972,-1.2699227590523658
1772619571659553300,6.75655322265625,6.806741623309255,3.5957486559882756,-1.3325494572266936
1772619571669584600,6.766584716796875,6.544851266810298,3.7432170990154146,-1.383269298377633
1772619571679616800,6.77661669921875,6.3554603293329475,3.884548354461789,-1.409461724254489
1772619571689647600,6.786647705078125,6.068610303622484,3.9195293592110274,-1.3491408188045024
1772619571699678700,6.7966787109375,5.674339767634868,3.7311113584190605,-1.0811840749386696
1772619571709709600,6.80670947265625,5.324646624520421,3.2204479011476037,-0.5781989702753723
1772619571719740700,6.81674072265625,5.012209737610816,2.5225840021803974,-0.1506813406590372
1772619571729771500,6.826771484375,4.577650445854664,1.7608721926808357,0.022041224481537936
1772619571739802600,6.836802734375,3.903683263042569,0.8117585736945271,0.10584010921791195
1772619571749833500,6.84683349609375,2.9847903025358913,-0.3341968832969665,0.18731559250801802
1772619571759864600,6.856864501953125,1.674415559977293,-1.5017770198583602,0.47622890742383894
1772619571769895700,6.866895751953125,-0.004131400716304779,-3.0205276786103843,1.8118657362066208
1772619571779926500,6.876926513671875,-0.6275275031983852,-3.9636645612746473,2.5268366911888123
1772619571789957600,6.88695751953125,1.0145803628921508,-3.4115912352502344,0.49688934507146476
1772619571799988700,6.89698876953125,3.572084579545259,-3.2116803650632497,-2.3801615904964506
1772619571810020600,6.9070205078125,4.617551663610339,-3.8449239078208803,-4.104415094223619
1772619571820051700,6.9170517578125,2.4435505052149296,-3.670278119532764,-4.42696479434669
1772619571830082600,6.92708251953125,-2.8228385761260983,-1.1608598883956671,-3.836190274006128
1772619571840113700,6.93711376953125,-8.585206755825876,1.956910459218174,-1.9744541530847548
1772619571850144500,6.94714453125,-13.016591704702376,4.13583606840372,0.6616727147106081
1772619571860175600,6.957175537109375,-14.669310981178283,5.633703805863857,3.1489854239583015
1772619571870206700,6.967206787109375,-14.40375801051855,5.610886409378051,4.576470296159386
1772619571880237600,6.977237548828125,-12.121855864852666,5.156111428067088,3.8766824433922764
1772619571890268700,6.9872685546875,-8.872304618817568,3.920207404603064,2.5450343189194795
1772619571900299500,6.997299560546875,-5.674114726707339,1.8928619115471839,1.4374391338519752
1772619571910330600,7.00733056640625,-2.5222037706911564,0.1442602946355939,0.41547026814371346
1772619571920361500,7.017361572265625,0.6834574802130461,-1.5839353708460926,0.5189588457994163
1772619571930392800,7.027392822265625,1.919359457850456,-2.246275974880904,0.15011260086037218
1772619571940424700,7.0374248046875,1.4320681083381175,-1.7910989886403084,-0.6805492646161466
1772619571950455600,7.04745556640625,0.35638591875135894,-1.5624251114360987,-0.29539442056342957
1772619571960486700,7.057486572265625,-0.7410498374819755,-1.3994292828008532,-0.15920074720121918
1772619571970517800,7.067517822265625,-1.7142250077962875,-1.389771958269924,-0.09267813756689429
1772619571980548600,7.077548583984375,-2.093086962249875,-1.4208565401025115,-0.011615472861379384
1772619571990579700,7.087579833984375,-1.9194687634438274,-1.49761814661324,-0.07318893565572798
1772619572000610600,7.097610595703125,-1.4228846849292516,-1.644542838152498,-0.11102226109616457
1772619572010641700,7.1076416015625,-0.899721811568737,-1.7264358162023126,-0.005501373895257711
1772619572020672500,7.117672607421875,-0.3795551974147558,-1.7203611724637449,0.1206181377634406
1772619572030703600,7.12770361328125,0.2074485722154379,-1.6401324743643402,0.21929091263525186
1772619572040734500,7.137734375,0.6905430545598268,-1.531574484489858,0.1997493960149586
1772619572050765800,7.147765869140625,0.8977759381979703,-1.4446728844977914,0.07738719106316566
1772619572060797700,7.157797607421875,0.7932470577090979,-1.263999506483227,-0.15480981876589356
1772619572070828800,7.167828857421875,0.37637306024730205,-1.0561891152180731,-0.4859222531162202
1772619572080859600,7.177859619140625,-0.340628377649188,-0.7985394650287926,-0.7800724457722157
1772619572090890800,7.187890869140625,-1.0289005646675824,-0.5308518204279243,-0.9790529032412916
1772619572100921600,7.197921630859375,-1.4001502905517815,-0.3918077991358936,-1.10153069739677
1772619572110952700,7.20795263671875,-1.3792787674367426,-0.3008189298301935,-1.144547489889711
1772619572120983600,7.217983642578125,-0.9043740212887525,-0.21702450207322835,-1.2602734716974198
1772619572131014700,7.2280146484375,-0.494511948415637,-0.1715278023980558,-1.1884190725810826
1772619572141045500,7.23804541015625,-0.11487725602388381,-0.07703925440832972,-0.8364248129174113
1772619572151076600,7.24807666015625,0.06418167253136635,0.012737024237215518,-0.36929548654388633
1772619572161107500,7.258107421875,-0.15993512589037417,0.30925884139537807,-0.24069069740809498
1772619572171138600,7.268138671875,-0.1457780057221651,0.4829714404866099,0.05268303098268807
1772619572181169700,7.278169677734375,-0.15086626877188683,0.5912742865562438,0.5495889253301546
