time,seconds_elapsed,z,y,x
1772619564968821800,0.06582177734375,-0.05612217262387276,-0.10042370855808258,0.048489250242710114
1772619564978852900,0.075852783203125,-0.05305927246809006,-0.052973631769418716,-0.008103986270725727
1772619564988883700,0.0858837890625,-0.05344889312982559,-0.040626950562000275,-0.0538397841155529
1772619564998914800,0.095914794921875,-0.05153729394078255,-0.043655864894390106,-0.08059519529342651
1772619565008947000,0.105947021484375,-0.06358224153518677,-0.06293315440416336,-0.07985430210828781
1772619565018977800,0.115977783203125,-0.06313247978687286,-0.07581780850887299,-0.05283863842487335
1772619565029009000,0.1260087890625,-0.06523185968399048,-0.05070552974939346,-0.013794831931591034
1772619565039039700,0.136039794921875,-0.08253786712884903,-0.0017770840786397457,0.011072413995862007
1772619565049070800,0.14607080078125,-0.10255977511405945,0.03707364201545715,0.01649967022240162
1772619565059101700,0.156101806640625,-0.11681249737739563,0.07135774940252304,-0.0011378736235201359
1772619565069132800,0.1661328125,-0.11695391684770584,0.11383889615535736,-0.023083120584487915
1772619565079164000,0.176163818359375,-0.11822441220283508,0.15056170523166656,-0.05451837554574013
1772619565089194800,0.18619482421875,-0.11963189393281937,0.1790010631084442,-0.09120448678731918
1772619565099225900,0.196225830078125,-0.1303916722536087,0.19661296904087067,-0.12114181369543076
1772619565109256700,0.206256591796875,-0.14394450187683105,0.20219841599464417,-0.14743146300315857
1772619565119288600,0.21628857421875,-0.16274169087409973,0.19146504998207092,-0.16487640142440796
1772619565129320000,0.22631982421875,-0.17868097126483917,0.1940842717885971,-0.15136778354644775
1772619565139350800,0.236350830078125,-0.19170498847961426,0.23144125938415527,-0.11838476359844208
1772619565149382000,0.2463818359375,-0.19972242414951324,0.28988245129585266,-0.06285812705755234
1772619565159412700,0.256412841796875,-0.19055666029453278,0.3697172701358795,0.010094685479998589
1772619565169443800,0.26644384765625,-0.17165780067443848,0.4464791417121887,0.08343814313411713
1772619565179475000,0.276474853515625,-0.14743761718273163,0.501805305480957,0.16598330438137054
1772619565189505800,0.286505859375,-0.12421351671218872,0.5473557710647583,0.2583305537700653
1772619565199537000,0.296536865234375,-0.08957210183143616,0.6024415493011475,0.3634483516216278
1772619565209567700,0.306567626953125,-0.05705330893397331,0.6294111013412476,0.435604065656662
1772619565219598800,0.316598876953125,-0.0317712277173996,0.5638585090637207,0.43164750933647156
1772619565229630700,0.326630615234375,-0.030856430530548096,0.3889937102794647,0.34407612681388855
1772619565239661600,0.33666162109375,-0.0402931310236454,0.18190205097198486,0.2716442942619324
1772619565249693000,0.34669287109375,-0.06087616831064224,0.034411393105983734,0.26171043515205383
1772619565259723800,0.356723876953125,-0.07414056360721588,-0.07150540500879288,0.2859364151954651
1772619565269755000,0.3667548828125,-0.04470624029636383,-0.11358361691236496,0.3505162000656128
1772619565279786000,0.376785888671875,0.02539750561118126,-0.08510740101337433,0.458187460899353
1772619565289816800,0.38681689453125,0.11631729453802109,0.0159787368029356,0.5735294818878174
1772619565299848000,0.396847900390625,0.2494761347770691,0.16033878922462463,0.6513065695762634
1772619565309878800,0.406878662109375,0.44242560863494873,0.31511053442955017,0.6497941613197327
1772619565319910000,0.416909912109375,0.6681203842163086,0.4164230525493622,0.5368752479553223
1772619565329940700,0.426940673828125,0.8285965919494629,0.3427482843399048,0.2815004587173462
1772619565339972600,0.43697265625,0.8320186138153076,0.017381057143211365,-0.12477098405361176
1772619565350003700,0.447003662109375,0.7092615365982056,-0.49324119091033936,-0.6139707565307617
1772619565360034800,0.457034912109375,0.5688946843147278,-0.94398033618927,-1.0396414995193481
1772619565370065700,0.467065673828125,0.4589405059814453,-1.153765320777893,-1.325371503829956
1772619565380097000,0.477096923828125,0.40537211298942566,-1.1008001565933228,-1.487432599067688
1772619565390127900,0.4871279296875,0.39445850253105164,-0.9245776534080505,-1.573455572128296
1772619565400159000,0.497158935546875,0.4221896827220917,-0.7541660070419312,-1.6363494396209717
1772619565410189800,0.50718994140625,0.4754289388656616,-0.6534548401832581,-1.6618787050247192
1772619565420221000,0.517220947265625,0.5208166837692261,-0.630536675453186,-1.638492226600647
1772619565430251800,0.527251708984375,0.5587712526321411,-0.688146710395813,-1.5676676034927368
1772619565440283000,0.537282958984375,0.5767165422439575,-0.7826240658760071,-1.4622719287872314
1772619565450313700,0.547313720703125,0.5665808320045471,-0.9031097292900085,-1.3114688396453857
1772619565460345900,0.557345947265625,0.5374190807342529,-1.0226126909255981,-1.106528639793396
1772619565470376700,0.567376708984375,0.5184786915779114,-1.0592029094696045,-0.8555107712745667
1772619565480407800,0.57740771484375,0.5296497941017151,-0.9684474468231201,-0.5859070420265198
1772619565490438700,0.587438720703125,0.5691178441047668,-0.7882323861122131,-0.3251856863498688
1772619565500469800,0.5974697265625,0.6218708753585815,-0.551075279712677,-0.09181447327136993
1772619565510500900,0.6075009765625,0.7009068131446838,-0.2467212677001953,0.11915555596351624
1772619565520532000,0.617531982421875,0.7969424724578857,0.08903329819440842,0.30490466952323914
1772619565530562800,0.627562744140625,0.8776280283927917,0.4094667136669159,0.4538787007331848
1772619565540594000,0.637593994140625,0.9147536754608154,0.6389651298522949,0.5635443329811096
1772619565550624800,0.647624755859375,0.9016869068145752,0.714786946773529,0.6215711236000061
1772619565560657000,0.657656982421875,0.8461694121360779,0.6022521257400513,0.5965112447738647
1772619565570687700,0.667687744140625,0.7464258074760437,0.35044893622398376,0.49505412578582764
1772619565580718800,0.67771875,0.6133460998535156,0.05042561516165733,0.3601257801055908
1772619565590749700,0.687749755859375,0.4410494565963745,-0.24901781976222992,0.2639659345149994
1772619565600780800,0.69778076171875,0.24834150075912476,-0.46786049008369446,0.23233000934123993
1772619565610811600,0.707811767578125,0.06846468150615692,-0.5573927164077759,0.2692001163959503
1772619565620842800,0.7178427734375,-0.09897971898317337,-0.5072777271270752,0.3689648509025574
1772619565630873900,0.727873779296875,-0.21665549278259277,-0.37220802903175354,0.5118598937988281
1772619565640905000,0.737905029296875,-0.28941383957862854,-0.21461221575737,0.6577441692352295
1772619565650935800,0.747935791015625,-0.34107810258865356,-0.08773496747016907,0.7637568712234497
1772619565660967200,0.75796728515625,-0.3672510087490082,-0.017513543367385864,0.7973818182945251
1772619565670998000,0.767998046875,-0.3618626296520233,-0.0019436371512711048,0.7542175650596619
1772619565681030100,0.778030029296875,-0.37018632888793945,-0.0071535794995725155,0.6469159126281738
1772619565691061000,0.78806103515625,-0.4230852425098419,0.02223919704556465,0.508821427822113
1772619565701092000,0.798092041015625,-0.5050328969955444,0.0795951783657074,0.35862240195274353
1772619565711123000,0.808123046875,-0.5714241862297058,0.16799907386302948,0.22967959940433502
1772619565721154000,0.818154052734375,-0.5933250784873962,0.3440456986427307,0.15004822611808777
1772619565731185000,0.828184814453125,-0.5669587254524231,0.5921327471733093,0.1055649146437645
1772619565741216000,0.838216064453125,-0.48044559359550476,0.803411602973938,0.0467362105846405
1772619565751247000,0.8482470703125,-0.3966178297996521,0.9388943314552307,-0.007562445942312479
1772619565761278200,0.8582783203125,-0.41434183716773987,1.0174509286880493,-0.12384441494941711
1772619565771309000,0.86830908203125,-0.4794350862503052,0.9568357467651367,-0.35899993777275085
1772619565781340200,0.878340087890625,-0.5781718492507935,0.646049976348877,-0.6840059161186218
1772619565791372000,0.8883720703125,-0.6870863437652588,0.32861000299453735,-0.9217005372047424
1772619565801403100,0.898403076171875,-0.6936075091362,0.3834729790687561,-0.9469020962715149
1772619565811434000,0.90843408203125,-0.6556470990180969,0.6280912756919861,-0.968631386756897
1772619565821465000,0.918465087890625,-0.742123544216156,0.6117079854011536,-1.2586004734039307
1772619565831496000,0.928495849609375,-0.9292351007461548,0.23525527119636536,-1.8284634351730347
1772619565841527000,0.938527099609375,-1.0958553552627563,-0.16280414164066315,-2.4159741401672363
1772619565851558000,0.948557861328125,-1.1198285818099976,-0.2819180190563202,-2.688828468322754
1772619565861589000,0.958589111328125,-0.9449857473373413,-0.06283261626958847,-2.490945816040039
1772619565871619800,0.968619873046875,-0.6361432075500488,0.3141045570373535,-1.9229795932769775
1772619565881651200,0.978651123046875,-0.23605433106422424,0.7272467613220215,-1.1983453035354614
1772619565891682000,0.98868212890625,0.15529826283454895,1.020911693572998,-0.5507404804229736
1772619565901714200,0.998714111328125,0.48100364208221436,1.0493366718292236,-0.13619036972522736
1772619565911745000,1.0087451171875,0.7032005190849304,0.8686322569847107,0.02724410407245159
1772619565921776000,1.018776123046875,0.8085678815841675,0.6164298057556152,0.02302543818950653
1772619565931807000,1.028806884765625,0.8154851794242859,0.35653188824653625,-0.0790439322590828
1772619565941838000,1.038838134765625,0.7662334442138672,0.10982619971036911,-0.2065611481666565
1772619565951869000,1.048868896484375,0.6797713041305542,-0.09150584787130356,-0.3259679675102234
1772619565961900000,1.058900146484375,0.5834566950798035,-0.20873622596263885,-0.41686293482780457
1772619565971931000,1.068930908203125,0.5029178857803345,-0.22007596492767334,-0.4757818877696991
1772619565981962000,1.0789619140625,0.4338790774345398,-0.16471423208713531,-0.4913192689418793
1772619565991992800,1.088992919921875,0.3984326720237732,-0.09022721648216248,-0.4755711853504181
1772619566002024000,1.09902392578125,0.3980087339878082,-0.027257448062300682,-0.42172524333000183
1772619566012055000,1.109054931640625,0.4286574423313141,0.00879722461104393,-0.3348177671432495
1772619566022087200,1.119087158203125,0.49103784561157227,-0.014635564759373665,-0.2192862629890442
1772619566032118000,1.129117919921875,0.575568437576294,-0.08717208355665207,-0.07838401198387146
1772619566042149000,1.139149169921875,0.6642371416091919,-0.1644967645406723,0.09103024750947952
1772619566052180000,1.149179931640625,0.7347410917282104,-0.20988129079341888,0.2792147696018219
1772619566062211000,1.159211181640625,0.7841019034385681,-0.25247955322265625,0.4532357156276703
1772619566072242000,1.169241943359375,0.8178510665893555,-0.2863083779811859,0.6078313589096069
1772619566082273000,1.17927294921875,0.8233120441436768,-0.29916882514953613,0.747268795967102
1772619566092304000,1.189303955078125,0.8003768920898438,-0.27492445707321167,0.8660579919815063
1772619566102335000,1.1993349609375,0.7443053126335144,-0.20241142809391022,0.9484685063362122
1772619566112366000,1.209365966796875,0.6615795493125916,-0.11621236056089401,0.9921347498893738
1772619566122397000,1.21939697265625,0.5519614815711975,-0.04092101752758026,0.9941001534461975
1772619566132429000,1.229428955078125,0.42515799403190613,-0.0035872296430170536,0.9562715291976929
1772619566142460200,1.239460205078125,0.28670212626457214,-0.002270512282848358,0.9063702821731567
1772619566152491000,1.249490966796875,0.15947601199150085,-0.011783590540289879,0.8544034957885742
1772619566162522000,1.259522216796875,0.03751511499285698,-0.021137887611985207,0.7970108389854431
1772619566172553000,1.269552978515625,-0.08213219046592712,-0.040930233895778656,0.7457732558250427
1772619566182584000,1.279583984375,-0.1776212602853775,-0.046511366963386536,0.6908366084098816
1772619566192615000,1.289614990234375,-0.2555501461029053,-0.020162317901849747,0.6460453867912292
1772619566202646000,1.29964599609375,-0.31907397508621216,0.06460162252187729,0.634322464466095
1772619566212677000,1.309677001953125,-0.37215369939804077,0.1909177452325821,0.636652946472168
1772619566222708000,1.3197080078125,-0.438089519739151,0.2591334283351898,0.6181303262710571
1772619566232739000,1.329739013671875,-0.5345036387443542,0.22128194570541382,0.5487315654754639
1772619566242771200,1.339771240234375,-0.6483937501907349,0.11506234109401703,0.44224077463150024
1772619566252802000,1.349802001953125,-0.7297576069831848,0.08189346641302109,0.3230257034301758
1772619566262833200,1.359833251953125,-0.7288936972618103,0.22396260499954224,0.19477538764476776
1772619566272864000,1.369864013671875,-0.6749905347824097,0.45754101872444153,0.05765960365533829
1772619566282895000,1.37989501953125,-0.6311939358711243,0.6322697997093201,-0.06663604825735092
1772619566292926000,1.389926025390625,-0.6258556246757507,0.7150964736938477,-0.18039484322071075
1772619566302957000,1.39995703125,-0.6687487959861755,0.7480427622795105,-0.29410460591316223
1772619566312988200,1.40998828125,-0.6908458471298218,0.8291813135147095,-0.47176381945610046
1772619566323019000,1.42001904296875,-0.672060489654541,0.9422381520271301,-0.78387451171875
1772619566333050000,1.430050048828125,-0.649863064289093,0.9941240549087524,-1.1596193313598633
1772619566343081000,1.4400810546875,-0.624373197555542,0.9794042706489563,-1.41864812374115
1772619566353112000,1.450112060546875,-0.5182073712348938,0.9450220465660095,-1.4300262928009033
1772619566363144200,1.460144287109375,-0.34069156646728516,0.9642571210861206,-1.1740871667861938
1772619566373175000,1.470175048828125,-0.14785870909690857,0.9880369901657104,-0.8110141158103943
1772619566383206100,1.4802060546875,0.021236484870314598,0.9886235594749451,-0.5465245842933655
1772619566393237000,1.490237060546875,0.15794532001018524,1.0566563606262207,-0.5468295216560364
1772619566403268000,1.50026806640625,0.24937637150287628,1.2258044481277466,-0.836566150188446
1772619566413299200,1.51029931640625,0.33117908239364624,1.4509321451187134,-1.2606391906738281
1772619566423330000,1.520330078125,0.43918749690055847,1.6641931533813477,-1.5622334480285645
1772619566433361200,1.530361083984375,0.5572472810745239,1.778930425643921,-1.5938547849655151
1772619566443392000,1.54039208984375,0.7082094550132751,1.7050620317459106,-1.3749020099639893
1772619566453423000,1.550423095703125,0.8912165760993958,1.462977647781372,-0.9799970984458923
1772619566463454000,1.560453857421875,1.0972155332565308,1.158740758895874,-0.5109333395957947
1772619566473485000,1.570485107421875,1.3052009344100952,0.8996535539627075,-0.04910552501678467
1772619566483517200,1.58051708984375,1.4633387327194214,0.7268022298812866,0.3496395945549011
1772619566493548000,1.590548095703125,1.5893861055374146,0.624789834022522,0.5980011820793152
1772619566503579100,1.6005791015625,1.7134674787521362,0.511364221572876,0.6892915368080139
1772619566513610200,1.6106103515625,1.806645393371582,0.2700660824775696,0.726870059967041
1772619566523641000,1.62064111328125,1.847324252128601,0.039543624967336655,0.7067328691482544
1772619566533672200,1.630672119140625,1.9044914245605469,-0.29169100522994995,0.6470605134963989
1772619566543703000,1.640703125,1.9400908946990967,-0.7364038228988647,0.6036845445632935
1772619566553734100,1.650734130859375,1.8827823400497437,-1.1435526609420776,0.5888031125068665
1772619566563765000,1.660764892578125,1.6855820417404175,-1.390218734741211,0.6103796362876892
1772619566573796000,1.670796142578125,1.3618735074996948,-1.4988203048706055,0.6902009844779968
1772619566583827000,1.680826904296875,1.0188605785369873,-1.4904953241348267,0.8545224070549011
1772619566593859000,1.690859130859375,0.7363804578781128,-1.3419643640518188,1.065234899520874
1772619566603890000,1.700889892578125,0.5243813395500183,-1.0588301420211792,1.2748160362243652
1772619566613921300,1.71092138671875,0.3719228506088257,-0.7097291946411133,1.4360307455062866
1772619566623952100,1.7209521484375,0.25906702876091003,-0.3703014552593231,1.5054198503494263
1772619566633983200,1.730983154296875,0.16974994540214539,-0.1410703957080841,1.4336111545562744
1772619566644014000,1.74101416015625,0.08611156791448593,-0.08556413650512695,1.2293144464492798
1772619566654045200,1.751045166015625,0.00033301254734396935,-0.1421419233083725,0.9473011493682861
1772619566664075300,1.7610751953125,-0.07899773120880127,-0.24154259264469147,0.6616851091384888
1772619566674106400,1.7711064453125,-0.14681167900562286,-0.32017001509666443,0.4334561824798584
1772619566684137500,1.781137451171875,-0.19998450577259064,-0.3925023376941681,0.24884013831615448
1772619566694168300,1.791168212890625,-0.23049688339233398,-0.4510844349861145,0.1344432681798935
1772619566704199400,1.801199462890625,-0.22717465460300446,-0.5044353604316711,0.0688595101237297
1772619566714231300,1.811231201171875,-0.16699865460395813,-0.571022093296051,0.062474049627780914
1772619566724262100,1.82126220703125,-0.09355831146240234,-0.6398361921310425,0.0946645587682724
1772619566734293200,1.831293212890625,-0.0040723723359405994,-0.7575958371162415,0.1841595470905304
1772619566744324000,1.841323974609375,0.04402904957532883,-0.9575862884521484,0.3317889869213104
1772619566754355200,1.851355224609375,-0.02040799707174301,-1.2255271673202515,0.5097898840904236
1772619566764386300,1.86138623046875,-0.12579329311847687,-1.4830492734909058,0.6693547368049622
1772619566774417200,1.871417236328125,-0.13111934065818787,-1.5699715614318848,0.8352819681167603
1772619566784448300,1.8814482421875,-0.04981062561273575,-1.299106240272522,0.9512778520584106
1772619566794479400,1.891479248046875,-0.15100541710853577,-0.8398303389549255,0.7561498880386353
1772619566804510500,1.901510498046875,-0.5881943106651306,-0.87228924036026,-0.17719556391239166
1772619566814541300,1.911541259765625,-1.1392899751663208,-1.3834598064422607,-1.6643669605255127
1772619566824572400,1.921572509765625,-1.6976981163024902,-1.53280508518219,-2.8552122116088867
1772619566834604300,1.931604248046875,-2.0335538387298584,-1.4024626016616821,-3.41265869140625
1772619566844635100,1.94163525390625,-1.9845157861709595,-1.054669976234436,-3.1898725032806396
1772619566854666200,1.951666259765625,-1.512058973312378,-0.6570082306861877,-2.447295904159546
1772619566864697300,1.961697265625,-0.7725325226783752,-0.050651684403419495,-1.473290205001831
1772619566874728200,1.971728271484375,-0.18371428549289703,0.7445002794265747,-0.5146161317825317
1772619566884759300,1.98175927734375,0.1523718237876892,1.4205206632614136,0.24583010375499725
1772619566894790100,1.9917900390625,0.32946112751960754,1.6015146970748901,0.6500787734985352
1772619566904821200,2.0018212890625,0.43821942806243896,0.8943003416061401,0.5144585371017456
1772619566914852000,2.01185205078125,0.5072163939476013,-0.08550802618265152,0.08688850700855255
1772619566924883500,2.021883544921875,0.33487316966056824,-0.5865485072135925,-0.19303537905216217
1772619566934914300,2.031914306640625,0.09570583701133728,-0.8155734539031982,-0.3630606234073639
1772619566944945400,2.0419453125,-0.0651068165898323,-0.8468067049980164,-0.3814038336277008
1772619566954977300,2.051977294921875,-0.16847768425941467,-0.6998231410980225,-0.2835153639316559
1772619566965008400,2.06200830078125,-0.21412386000156403,-0.4221016466617584,-0.12346462905406952
1772619566975039200,2.072039306640625,-0.2113001048564911,-0.06870205700397491,0.02251441963016987
1772619566985070300,2.0820703125,-0.20177337527275085,0.28796663880348206,0.09594651311635971
1772619566995101200,2.09210107421875,-0.19667395949363708,0.5766786336898804,0.09050673991441727
1772619567005132300,2.10213232421875,-0.19990716874599457,0.7641913294792175,0.06217534467577934
1772619567015163100,2.1121630859375,-0.200211301445961,0.8855637907981873,0.05497894808650017
1772619567025194200,2.1221943359375,-0.19843700528144836,0.9244720339775085,0.08383499830961227
1772619567035225000,2.13222509765625,-0.20231378078460693,0.8758562803268433,0.12568309903144836
1772619567045256400,2.14225634765625,-0.210555300116539,0.7416170239448547,0.18263278901576996
1772619567055287300,2.152287353515625,-0.22598618268966675,0.57625412940979,0.23463794589042664
1772619567065318400,2.162318359375,-0.24284793436527252,0.3963392972946167,0.2787629961967468
1772619567075350300,2.172350341796875,-0.24981743097305298,0.2455764263868332,0.3189016282558441
1772619567085381400,2.18238134765625,-0.23611138761043549,0.1581617146730423,0.37729111313819885
1772619567095412200,2.192412109375,-0.21902401745319366,0.11275775730609894,0.4454091787338257
1772619567105443300,2.202443359375,-0.19720077514648438,0.10131531208753586,0.5161421895027161
1772619567115474200,2.21247412109375,-0.17671599984169006,0.0973498597741127,0.5670362710952759
1772619567125505300,2.22250537109375,-0.16458186507225037,0.0791313499212265,0.612666666507721
1772619567135536000,2.2325361328125,-0.1690852791070938,0.05636824294924736,0.6545318365097046
1772619567145567200,2.242567138671875,-0.1821831613779068,0.06915685534477234,0.6852627396583557
1772619567155598000,2.25259814453125,-0.19389626383781433,0.1110323965549469,0.6951563954353333
1772619567165629200,2.262629150390625,-0.22652672231197357,0.17356762290000916,0.6787513494491577
1772619567175660300,2.272660400390625,-0.28344032168388367,0.25617992877960205,0.6222074031829834
1772619567185691400,2.28269140625,-0.3669102191925049,0.3334423005580902,0.5181939601898193
1772619567195723300,2.29272314453125,-0.46187323331832886,0.3728400468826294,0.3758664131164551
1772619567205754400,2.30275439453125,-0.5589221119880676,0.35588908195495605,0.22841580212116241
1772619567215785200,2.31278515625,-0.6568691730499268,0.21472449600696564,0.11165350675582886
1772619567225816300,2.32281640625,-0.7128039598464966,-0.036976031959056854,0.0744529664516449
1772619567235847200,2.33284716796875,-0.7114081978797913,-0.3177664279937744,0.13862477242946625
1772619567245878300,2.342878173828125,-0.6372947096824646,-0.5578582286834717,0.3249519467353821
1772619567255909000,2.3529091796875,-0.5385154485702515,-0.6535612940788269,0.5660151243209839
1772619567265940200,2.362940185546875,-0.43418198823928833,-0.6117662787437439,0.7260686159133911
1772619567275971000,2.37297119140625,-0.33637580275535583,-0.47319719195365906,0.6664527058601379
1772619567286002200,2.383002197265625,-0.24449394643306732,-0.21011877059936523,0.3984866738319397
1772619567296033000,2.393032958984375,-0.18238477408885956,0.11683670431375504,0.03692420572042465
1772619567306065400,2.4030654296875,-0.17233380675315857,0.4430341422557831,-0.29999303817749023
1772619567316096300,2.41309619140625,-0.18764112889766693,0.6566324234008789,-0.5996002554893494
1772619567326127400,2.42312744140625,-0.2045430690050125,0.7001511454582214,-0.8539229035377502
1772619567336158200,2.433158203125,-0.24344199895858765,0.5794109106063843,-1.0502245426177979
1772619567346189300,2.443189208984375,-0.28718438744544983,0.28307318687438965,-1.2039626836776733
1772619567356220200,2.45322021484375,-0.3068057596683502,-0.1303522139787674,-1.3060197830200195
1772619567366251300,2.463251220703125,-0.26660019159317017,-0.5756999254226685,-1.324060082435608
1772619567376282000,2.4732822265625,-0.1710968315601349,-1.0034281015396118,-1.259781837463379
1772619567386313200,2.483313232421875,-0.04700528830289841,-1.413437843322754,-1.1203935146331787
1772619567396344000,2.493343994140625,0.05769449099898338,-1.820204496383667,-0.9533537030220032
1772619567406375200,2.503375244140625,0.13159394264221191,-2.1569650173187256,-0.8027425408363342
1772619567416406300,2.51340625,0.18840663135051727,-2.34875226020813,-0.6896966695785522
1772619567426438400,2.5234384765625,0.2594809830188751,-2.3555705547332764,-0.5872498154640198
1772619567436469200,2.53346923828125,0.31846362352371216,-2.202054023742676,-0.46697747707366943
1772619567446500400,2.543500244140625,0.3582459092140198,-1.9467447996139526,-0.3139040768146515
1772619567456531200,2.55353125,0.40933412313461304,-1.6483118534088135,-0.1413155198097229
1772619567466562300,2.563562255859375,0.4844927191734314,-1.3770594596862793,0.06828813999891281
1772619567476593200,2.57359326171875,0.5656576156616211,-1.1857552528381348,0.2897496819496155
1772619567486624300,2.583624267578125,0.6058086156845093,-1.0804554224014282,0.4908794164657593
1772619567496655000,2.593655029296875,0.5887423157691956,-0.9100775122642517,0.6443272829055786
1772619567506686200,2.603686279296875,0.5749976634979248,-0.6573437452316284,0.6922690868377686
1772619567516717300,2.61371728515625,0.6039233207702637,-0.4648491144180298,0.593543291091919
1772619567526748200,2.623748046875,0.6723159551620483,-0.4177497923374176,0.3739776313304901
1772619567536779300,2.633779296875,0.7266247272491455,-0.41421788930892944,0.1406993865966797
1772619567546810000,2.64381005859375,0.7524888515472412,-0.3931085765361786,-0.041228894144296646
1772619567556842200,2.65384228515625,0.7017641663551331,-0.43415987491607666,-0.14488178491592407
1772619567566873300,2.663873291015625,0.5784944891929626,-0.5523772835731506,-0.19075638055801392
1772619567576904200,2.673904296875,0.422243595123291,-0.6678772568702698,-0.18506281077861786
1772619567586935300,2.683935302734375,0.2397036850452423,-0.6815675497055054,-0.13226784765720367
1772619567596966100,2.693966064453125,0.039976995438337326,-0.5301711559295654,-0.01730610802769661
1772619567606997200,2.703997314453125,-0.1258869469165802,-0.2482079565525055,0.1711166948080063
1772619567617028400,2.7140283203125,-0.24801020324230194,0.1853613257408142,0.38922318816185
1772619567627059200,2.72405908203125,-0.3258635997772217,0.6732546091079712,0.6115440130233765
1772619567637090300,2.73409033203125,-0.3580971658229828,1.103644609451294,0.7866069078445435
1772619567647121200,2.74412109375,-0.3561982810497284,1.3945937156677246,0.8903724551200867
1772619567657152300,2.75415234375,-0.3242872357368469,1.4756888151168823,0.9086340069770813
1772619567667183600,2.76418359375,-0.27309224009513855,1.3899941444396973,0.8376906514167786
1772619567677215500,2.774215576171875,-0.22783128917217255,1.1945724487304688,0.7134848237037659
1772619567687246600,2.78424658203125,-0.2036156952381134,0.9595894813537598,0.574967622756958
1772619567697277400,2.79427734375,-0.2069566249847412,0.7531779408454895,0.4630831480026245
1772619567707308500,2.80430859375,-0.20915986597537994,0.5893489718437195,0.4126138985157013
1772619567717339400,2.81433935546875,-0.18574801087379456,0.38439443707466125,0.43663933873176575
1772619567727370800,2.824370849609375,-0.1615426391363144,0.17233462631702423,0.5306684374809265
1772619567737401600,2.834401611328125,-0.116006039083004,0.11841946095228195,0.686426043510437
1772619567747432700,2.8444326171875,-0.06337093561887741,0.20959268510341644,0.8584043383598328
1772619567757463800,2.8544638671875,-0.1248321607708931,0.34384769201278687,0.9513548016548157
1772619567767494700,2.86449462890625,-0.28461289405822754,0.3157895505428314,0.8242622017860413
1772619567777525800,2.87452587890625,-0.4212588667869568,0.14413286745548248,0.4787828326225281
1772619567787557600,2.8845576171875,-0.4953683316707611,0.2046697735786438,0.1364351511001587
1772619567797588500,2.89458837890625,-0.5482930541038513,0.5805264711380005,-0.17216289043426514
1772619567807619600,2.90461962890625,-0.6323773860931396,0.9742865562438965,-0.5888354778289795
1772619567817650400,2.914650390625,-0.7664579153060913,1.1087301969528198,-1.1726096868515015
1772619567827681500,2.924681640625,-0.9172589182853699,0.988926887512207,-1.7894388437271118
1772619567837712600,2.934712646484375,-1.0213496685028076,0.7755382061004639,-2.2014291286468506
1772619567847743700,2.94474365234375,-0.9577751755714417,0.5918919444084167,-2.237241744995117
1772619567857774800,2.95477490234375,-0.7265187501907349,0.44482579827308655,-1.888541340827942
1772619567867805700,2.9648056640625,-0.3843497335910797,0.24317066371440887,-1.2884163856506348
1772619567877836800,2.9748369140625,-0.031151998788118362,-0.001550926361232996,-0.617967963218689
1772619567887867600,2.98486767578125,0.24990668892860413,-0.1724294126033783,0.0025625089183449745
1772619567897898800,2.994898681640625,0.4198802709579468,-0.33916884660720825,0.4426264464855194
1772619567907930600,3.0049306640625,0.5337317585945129,-0.6466206312179565,0.5909839272499084
1772619567917961500,3.01496142578125,0.5939847230911255,-0.9912605285644531,0.5069979429244995
1772619567927992600,3.02499267578125,0.5653793811798096,-1.149617075920105,0.33928465843200684
1772619567938023700,3.035023681640625,0.4985590875148773,-1.081320881843567,0.17080244421958923
1772619567948054500,3.045054443359375,0.4156906008720398,-0.8283768892288208,0.01063108816742897
1772619567958085600,3.055085693359375,0.32572314143180847,-0.46218347549438477,-0.12816222012043
1772619567968116500,3.065116455078125,0.22600001096725464,-0.059763286262750626,-0.2396775633096695
1772619567978147800,3.07514794921875,0.1341334730386734,0.3153485655784607,-0.324802041053772
1772619567988178700,3.0851787109375,0.06443283706903458,0.6095601916313171,-0.3812667727470398
1772619567998209800,3.095209716796875,0.021748222410678864,0.7929041981697083,-0.3876511752605438
1772619568008240600,3.10524072265625,0.014743950217962265,0.8643907308578491,-0.33750155568122864
1772619568018271700,3.115271728515625,0.0544721893966198,0.8198214173316956,-0.2315591275691986
1772619568028303600,3.1253037109375,0.1241372674703598,0.6692683696746826,-0.082452192902565
1772619568038334700,3.135334716796875,0.2169116884469986,0.46570056676864624,0.08347712457180023
1772619568048365600,3.145365478515625,0.3259373903274536,0.26251107454299927,0.249500572681427
1772619568058396700,3.155396728515625,0.4207232892513275,0.09755007922649384,0.40306347608566284
1772619568068427500,3.165427490234375,0.4819420576095581,0.0005359211936593056,0.5125738382339478
1772619568078458600,3.175458740234375,0.5186824798583984,-0.06941253691911697,0.5561103820800781
1772619568088489500,3.185489501953125,0.5085204243659973,-0.1329411268234253,0.540272057056427
1772619568098520600,3.1955205078125,0.4431461989879608,-0.24861739575862885,0.47012463212013245
1772619568108551700,3.2055517578125,0.32369211316108704,-0.40637266635894775,0.363015353679657
1772619568118582800,3.215582763671875,0.15837827324867249,-0.5893393158912659,0.20903724431991577
1772619568128613600,3.225613525390625,-0.03406261280179024,-0.7046958208084106,0.04017982259392738
1772619568138644700,3.235644775390625,-0.22888296842575073,-0.7298019528388977,-0.09543552994728088
1772619568148675600,3.245675537109375,-0.37111222743988037,-0.6449903249740601,-0.13988879323005676
1772619568158707700,3.255707763671875,-0.45851343870162964,-0.47041448950767517,-0.0557510070502758
1772619568168738600,3.265738525390625,-0.4956578016281128,-0.25388094782829285,0.11995335668325424
1772619568178769700,3.275769775390625,-0.49515581130981445,-0.02408425509929657,0.31798359751701355
1772619568188800500,3.285800537109375,-0.46099168062210083,0.1600845754146576,0.4567886292934418
1772619568198831600,3.29583154296875,-0.4105902910232544,0.21088409423828125,0.47569572925567627
1772619568208862500,3.305862548828125,-0.3871389627456665,0.12118202447891235,0.3485795557498932
1772619568218893600,3.3158935546875,-0.4096945822238922,-0.05064033716917038,0.11215953528881073
1772619568228924700,3.325924560546875,-0.4290589690208435,-0.1947023868560791,-0.1690220832824707
1772619568238955800,3.335955810546875,-0.44682466983795166,-0.28727251291275024,-0.4123428761959076
1772619568248986600,3.345986572265625,-0.43972402811050415,-0.3239815831184387,-0.5309873223304749
1772619568259017700,3.356017822265625,-0.421318918466568,-0.32270967960357666,-0.48325228691101074
1772619568269048600,3.366048583984375,-0.39558854699134827,-0.23510557413101196,-0.24913884699344635
1772619568279080700,3.376080810546875,-0.3878118395805359,-0.06289120018482208,0.08971910923719406
1772619568289111600,3.386111572265625,-0.422507643699646,0.0802704319357872,0.4223795235157013
1772619568299142700,3.396142578125,-0.426579087972641,0.19489607214927673,0.6399661302566528
1772619568309173500,3.406173583984375,-0.3784269690513611,0.3994629681110382,0.7083626985549927
1772619568319204600,3.41620458984375,-0.2616228461265564,0.758910596370697,0.6460596323013306
1772619568329235500,3.4262353515625,-0.11237408965826035,1.085259199142456,0.43748897314071655
1772619568339266600,3.4362666015625,0.0031509031541645527,1.18060302734375,0.056961365044116974
1772619568349297400,3.44629736328125,0.006150924600660801,0.9830107688903809,-0.46731141209602356
1772619568359328800,3.456328857421875,-0.07456948608160019,0.5506220459938049,-0.9539817571640015
1772619568369359600,3.466359619140625,-0.17079582810401917,-0.011912276037037373,-1.1984914541244507
1772619568379390700,3.476390625,-0.21636730432510376,-0.49340832233428955,-1.1382044553756714
1772619568389421800,3.486421875,-0.15820907056331635,-0.769532322883606,-0.8658168911933899
1772619568399453700,3.49645361328125,-0.021154282614588737,-0.8573706150054932,-0.5115908980369568
1772619568409484500,3.506484619140625,0.1399662345647812,-0.8349282741546631,-0.18051184713840485
1772619568419515600,3.516515625,0.3049304187297821,-0.7917217016220093,0.06790382415056229
1772619568429546500,3.52654638671875,0.4488154947757721,-0.7484004497528076,0.2320743203163147
1772619568439577600,3.53657763671875,0.5578578114509583,-0.6442381143569946,0.36383527517318726
1772619568449608400,3.5466083984375,0.6440821290016174,-0.46171900629997253,0.5025144219398499
1772619568459639600,3.5566396484375,0.7129567861557007,-0.2016104757785797,0.6579170823097229
1772619568469670700,3.566670654296875,0.7603406310081482,0.09688717871904373,0.7997041940689087
1772619568479701500,3.576701416015625,0.7949162125587463,0.37464502453804016,0.8907904624938965
1772619568489732900,3.58673291015625,0.8093685507774353,0.5686803460121155,0.9131291508674622
1772619568499763700,3.596763671875,0.8044041395187378,0.6498918533325195,0.8533033132553101
1772619568509794800,3.606794921875,0.7839462757110596,0.6491142511367798,0.7461102604866028
1772619568519826700,3.61682666015625,0.7364024519920349,0.5751361846923828,0.6228772401809692
1772619568529857500,3.626857421875,0.6401857137680054,0.4537944793701172,0.5010157227516174
1772619568539888600,3.636888671875,0.5050316452980042,0.278189092874527,0.3720867931842804
1772619568549919500,3.64691943359375,0.3420107066631317,0.055820055305957794,0.26999539136886597
1772619568559950600,3.65695068359375,0.1593753695487976,-0.12162503600120544,0.2042515128850937
1772619568569981700,3.666981689453125,-0.008975284174084663,-0.23841151595115662,0.1858953982591629
1772619568580012500,3.677012451171875,-0.14008483290672302,-0.3015018105506897,0.18285779654979706
1772619568590043600,3.687043701171875,-0.23166900873184204,-0.2793812155723572,0.18093228340148926
1772619568600074500,3.697074462890625,-0.29854655265808105,-0.18712744116783142,0.16990865767002106
1772619568610105900,3.70710595703125,-0.357127845287323,-0.03892413526773453,0.13907085359096527
1772619568620136700,3.71713671875,-0.4097931981086731,0.12017124146223068,0.0847034677863121
1772619568630167800,3.727167724609375,-0.44882023334503174,0.2480941265821457,0.01103215478360653
1772619568640198700,3.73719873046875,-0.4761194884777069,0.3182327449321747,-0.055303193628787994
1772619568650230500,3.74723046875,-0.4877900183200836,0.35959869623184204,-0.09811053425073624
1772619568660261600,3.75726171875,-0.4803614020347595,0.3744538128376007,-0.09682609140872955
1772619568670292500,3.76729248046875,-0.4735378623008728,0.341252863407135,-0.04194016382098198
1772619568680323300,3.7773232421875,-0.48308077454566956,0.21474820375442505,0.06729471683502197
1772619568690354400,3.7873544921875,-0.51070237159729,0.015159115195274353,0.2698950171470642
1772619568700385300,3.79738525390625,-0.5209935903549194,-0.1905042976140976,0.601570188999176
1772619568710416400,3.80741650390625,-0.47546496987342834,-0.20818328857421875,1.0197590589523315
1772619568720447200,3.817447265625,-0.3275841772556305,0.05167492851614952,1.4470597505569458
1772619568730478300,3.827478271484375,-0.1111019179224968,0.42179301381111145,1.7126535177230835
1772619568740509200,3.83750927734375,0.12013476341962814,0.724899411201477,1.6846023797988892
1772619568750540300,3.847540283203125,0.28648173809051514,0.9837097525596619,1.4668316841125488
1772619568760571100,3.857571044921875,0.3739412724971771,1.0926034450531006,1.1725184917449951
1772619568770603300,3.867603271484375,0.36534854769706726,0.9741814136505127,0.8573219776153564
1772619568780634000,3.877634033203125,0.25321826338768005,0.6247139573097229,0.5137153267860413
1772619568790665200,3.887665283203125,-0.028168685734272003,0.09521731734275818,0.06935840100049973
1772619568800696300,3.8976962890625,-0.4639236330986023,-0.5605253577232361,-0.45750540494918823
1772619568810727400,3.9077275390625,-0.9218454360961914,-1.2007384300231934,-0.9563857913017273
1772619568820758300,3.91775830078125,-1.2529934644699097,-1.5550647974014282,-1.2714089155197144
1772619568830789400,3.927789306640625,-1.3682990074157715,-1.467031717300415,-1.3776706457138062
1772619568840820200,3.9378203125,-1.2310547828674316,-0.9940826892852783,-1.304680585861206
1772619568850851300,3.947851318359375,-0.8973450064659119,-0.2712228298187256,-1.0761748552322388
1772619568860882200,3.957882080078125,-0.4499038755893707,0.47501087188720703,-0.7565350532531738
1772619568870913300,3.967913330078125,-0.003346370067447424,0.9655767679214478,-0.514606773853302
1772619568880944000,3.977944091796875,0.333942174911499,1.053260087966919,-0.41192227602005005
1772619568890976300,3.987976318359375,0.52142733335495,0.8443658947944641,-0.4069384038448334
1772619568901007000,3.998007080078125,0.5738844275474548,0.5373700261116028,-0.42206302285194397
1772619568911038200,4.0080380859375,0.5215250849723816,0.24434129893779755,-0.42699116468429565
1772619568921069000,4.018069091796875,0.4364090859889984,0.0918436199426651,-0.40444326400756836
1772619568931100400,4.028100341796875,0.3592349886894226,0.10303480178117752,-0.3565492630004883
1772619568941131300,4.03813134765625,0.3165157437324524,0.23675771057605743,-0.2960771322250366
1772619568951162400,4.048162353515625,0.3091958463191986,0.4335435926914215,-0.22093503177165985
1772619568961193200,4.058193115234375,0.3179882764816284,0.6204173564910889,-0.13905109465122223
1772619568971224300,4.068224365234375,0.3337929844856262,0.747868001461029,-0.08111817389726639
1772619568981255200,4.078255126953125,0.35327187180519104,0.8179395198822021,-0.03795445337891579
1772619568991286300,4.088286376953125,0.35907042026519775,0.801109254360199,-0.0031616499181836843
1772619569001317400,4.0983173828125,0.3447343707084656,0.6969501376152039,0.028342479839920998
1772619569011348200,4.10834814453125,0.31155967712402344,0.5412496328353882,0.05841640383005142
1772619569021380000,4.118380126953125,0.2666153907775879,0.37420210242271423,0.09417812526226044
1772619569031411200,4.1284111328125,0.23009566962718964,0.2105429768562317,0.13646599650382996
1772619569041442000,4.138442138671875,0.2020496428012848,0.06255379319190979,0.17746242880821228
1772619569051473200,4.14847314453125,0.18309085071086884,-0.0848972350358963,0.20303146541118622
1772619569061504300,4.158504150390625,0.16839712858200073,-0.24606642127037048,0.19734056293964386
1772619569071535400,4.168535400390625,0.1472359150648117,-0.38438013195991516,0.18115414679050446
1772619569081566200,4.178566162109375,0.11523536592721939,-0.4760037958621979,0.1664697527885437
1772619569091597300,4.188597412109375,0.0629388839006424,-0.5258891582489014,0.16113333404064178
1772619569101628400,4.19862841796875,-0.005604488309472799,-0.5298577547073364,0.1587950736284256
1772619569111659300,4.2086591796875,-0.07751845568418503,-0.5016464591026306,0.15725955367088318
1772619569121690400,4.2186904296875,-0.13418227434158325,-0.4261215925216675,0.13651566207408905
1772619569131721200,4.22872119140625,-0.16738539934158325,-0.31428587436676025,0.1120464950799942
1772619569141753000,4.238753173828125,-0.1790764331817627,-0.18979373574256897,0.08134797215461731
1772619569151784200,4.2487841796875,-0.16495683789253235,-0.07122113555669785,0.058789871633052826
1772619569161815000,4.25881494140625,-0.1324356496334076,0.02922423928976059,0.046629078686237335
1772619569171846100,4.26884619140625,-0.10507039725780487,0.10741805285215378,0.042824793606996536
1772619569181877200,4.278877197265625,-0.08159808814525604,0.13432690501213074,0.05836912989616394
1772619569191908400,4.288908447265625,-0.07844755053520203,0.09993621706962585,0.07383275777101517
1772619569201939500,4.298939453125,-0.09411359578371048,0.01463889516890049,0.10836143791675568
1772619569211970300,4.30897021484375,-0.12391768395900726,-0.10656369477510452,0.15594878792762756
1772619569222001400,4.31900146484375,-0.17488685250282288,-0.2199869155883789,0.21457801759243011
1772619569232032300,4.3290322265625,-0.23738089203834534,-0.2861992418766022,0.2542572617530823
1772619569242063400,4.3390634765625,-0.3014080822467804,-0.321855753660202,0.2591633200645447
1772619569252094200,4.34909423828125,-0.36509016156196594,-0.38352441787719727,0.22839832305908203
1772619569262125300,4.359125244140625,-0.41883090138435364,-0.47339144349098206,0.1719939112663269
1772619569272157200,4.3691572265625,-0.45271697640419006,-0.598645031452179,0.14548589289188385
1772619569282188300,4.379188232421875,-0.45342034101486206,-0.6961044669151306,0.2087479531764984
1772619569292219100,4.38921923828125,-0.42597442865371704,-0.717631459236145,0.3622843325138092
1772619569302250200,4.399250244140625,-0.3609775900840759,-0.646956741809845,0.5473729372024536
1772619569312281300,4.40928125,-0.2637932598590851,-0.46661368012428284,0.705135703086853
1772619569322312400,4.4193125,-0.14746880531311035,-0.20083075761795044,0.7772117853164673
1772619569332343300,4.42934326171875,-0.02307869866490364,0.07972703874111176,0.7433302402496338
1772619569342374400,4.43937451171875,0.0917711928486824,0.3422936797142029,0.622275710105896
1772619569352405200,4.4494052734375,0.16171382367610931,0.49978309869766235,0.3925487697124481
1772619569362436400,4.459436279296875,0.1325676590204239,0.4273195266723633,-0.027449043467640877
1772619569372467200,4.46946728515625,-0.0035307169891893864,0.1337311565876007,-0.6171140074729919
1772619569382498300,4.479498291015625,-0.20991504192352295,-0.2666620910167694,-1.1717842817306519
1772619569392530200,4.4895302734375,-0.38523539900779724,-0.614143431186676,-1.488459587097168
1772619569402561300,4.499561279296875,-0.48727813363075256,-0.7647079229354858,-1.5320912599563599
1772619569412592000,4.509592041015625,-0.5372698307037354,-0.7866224050521851,-1.4174174070358276
1772619569422623200,4.519623291015625,-0.5274158716201782,-0.7694687247276306,-1.2634729146957397
1772619569432654000,4.529654052734375,-0.4782683849334717,-0.7464128136634827,-1.1455662250518799
1772619569442685400,4.539685546875,-0.40659794211387634,-0.6980287432670593,-1.0851012468338013
1772619569452716300,4.54971630859375,-0.316524475812912,-0.6197863817214966,-1.0681968927383423
1772619569462747400,4.559747314453125,-0.21366974711418152,-0.5371248126029968,-1.0412547588348389
1772619569472778200,4.5697783203125,-0.12919233739376068,-0.4422154724597931,-0.9655682444572449
1772619569482809300,4.579809326171875,-0.06133046746253967,-0.30719640851020813,-0.8167020678520203
1772619569492840200,4.589840087890625,-0.0037764706648886204,-0.1431877464056015,-0.5977048873901367
1772619569502871300,4.599871337890625,0.04872721806168556,0.03405521437525749,-0.3505105674266815
1772619569512902100,4.609902099609375,0.09762746840715408,0.22256803512573242,-0.11644301563501358
1772619569522934300,4.619934326171875,0.12706178426742554,0.3798215687274933,0.09476856142282486
1772619569532965000,4.629965087890625,0.14418523013591766,0.4779933989048004,0.25817468762397766
1772619569542996200,4.639996337890625,0.14595304429531097,0.4910857677459717,0.36789292097091675
1772619569553027000,4.650027099609375,0.11500922590494156,0.4016703963279724,0.4012812376022339
1772619569563058400,4.660058349609375,0.06124240905046463,0.23211227357387543,0.37413403391838074
1772619569573089300,4.67008935546875,-0.015500245615839958,-0.012101273983716965,0.3030592203140259
1772619569583120400,4.680120361328125,-0.11398926377296448,-0.2590673863887787,0.2191917598247528
1772619569593151200,4.690151123046875,-0.20445916056632996,-0.4242061972618103,0.1586969494819641
1772619569603182300,4.700182373046875,-0.25606536865234375,-0.49540793895721436,0.14099064469337463
1772619569613213200,4.710213134765625,-0.2916107177734375,-0.49508512020111084,0.17835278809070587
1772619569623244300,4.720244384765625,-0.3065662384033203,-0.40571504831314087,0.27145877480506897
1772619569633275400,4.730275390625,-0.29986467957496643,-0.22523106634616852,0.43413400650024414
1772619569643307300,4.740307373046875,-0.2826225757598877,0.03980885073542595,0.6303953528404236
1772619569653338000,4.750338134765625,-0.25479838252067566,0.34170034527778625,0.8195607662200928
1772619569663369500,4.760369384765625,-0.23436342179775238,0.5612668395042419,0.9523038864135742
1772619569673400300,4.770400390625,-0.2153574377298355,0.6399849057197571,1.0030165910720825
1772619569683431700,4.780431640625,-0.20103149116039276,0.6348143815994263,0.9700005054473877
1772619569693462500,4.790462646484375,-0.15516361594200134,0.6397140026092529,0.9038510918617249
1772619569703493600,4.80049365234375,-0.07525227963924408,0.6779695153236389,0.8228973746299744
1772619569713524500,4.8105244140625,0.01521715335547924,0.6927769184112549,0.6910991668701172
1772619569723555600,4.8205556640625,0.09613890200853348,0.5961241126060486,0.509626030921936
1772619569733586400,4.83058642578125,0.15278902649879456,0.3053344488143921,0.3137200176715851
1772619569743617500,4.840617431640625,0.0975572019815445,-0.08081299811601639,0.19778916239738464
1772619569753648600,4.850648681640625,-0.0395265631377697,-0.41242682933807373,0.16709165275096893
1772619569763679500,4.860679443359375,-0.1871868520975113,-0.7118353843688965,0.16396670043468475
1772619569773711400,4.87071142578125,-0.3457067012786865,-1.0707825422286987,0.1423436552286148
1772619569783742500,4.880742431640625,-0.46041756868362427,-1.2614613771438599,0.14841033518314362
1772619569793773300,4.890773193359375,-0.42706018686294556,-1.0898441076278687,0.18735617399215698
1772619569803804400,4.900804443359375,-0.263950377702713,-0.6626734137535095,0.1545763909816742
1772619569813835500,4.91083544921875,-0.07819804549217224,-0.29093390703201294,-0.1737290620803833
1772619569823866600,4.92086669921875,0.03200462460517883,-0.1316893845796585,-0.8764802813529968
1772619569833897500,4.9308974609375,0.03148975223302841,-0.14128509163856506,-1.7725307941436768
1772619569843928600,4.940928466796875,-0.0921725332736969,-0.20530349016189575,-2.481116533279419
1772619569853959700,4.950959716796875,-0.21414721012115479,-0.21549645066261292,-2.7361271381378174
1772619569863990500,4.960990478515625,-0.27549126744270325,-0.18745975196361542,-2.5209097862243652
1772619569874021600,4.971021728515625,-0.2194991558790207,-0.09387708455324173,-1.9958879947662354
1772619569884052500,4.981052490234375,-0.02511182427406311,0.11941947788000107,-1.332745909690857
1772619569894083600,4.99108349609375,0.17031937837600708,0.45518746972084045,-0.6911828517913818
1772619569904115500,5.001115478515625,0.360706627368927,0.7689318060874939,-0.18758152425289154
1772619569914146300,5.011146240234375,0.5373981595039368,0.9283816814422607,0.09979872405529022
1772619569924177400,5.021177490234375,0.6441808342933655,0.9273920655250549,0.18386779725551605
1772619569934208500,5.03120849609375,0.6746641993522644,0.8440471291542053,0.1360056847333908
1772619569944239600,5.041239501953125,0.6545203328132629,0.7499387860298157,0.03654647246003151
1772619569954270700,5.051270751953125,0.6062514185905457,0.6686081886291504,-0.0732719898223877
1772619569964301600,5.061301513671875,0.5542837977409363,0.600650429725647,-0.13541924953460693
1772619569974332700,5.071332763671875,0.5120307207107544,0.5090685486793518,-0.12422636896371841
1772619569984363500,5.081363525390625,0.49153003096580505,0.3674469292163849,-0.03308980166912079
1772619569994394600,5.09139453125,0.5014982223510742,0.22359707951545715,0.13398787379264832
1772619570004425500,5.101425537109375,0.5410224795341492,0.09889508783817291,0.35480788350105286
1772619570014456600,5.11145654296875,0.6080609560012817,0.02969721145927906,0.605748176574707
1772619570024487400,5.1214873046875,0.6950014233589172,0.0067239864729344845,0.8528058528900146
1772619570034519600,5.13151953125,0.7953273057937622,-0.015438593924045563,1.0365407466888428
1772619570044550400,5.14155029296875,0.8982337117195129,-0.043016158044338226,1.1281588077545166
1772619570054581500,5.15158154296875,0.9585577845573425,-0.08810878545045853,1.1236599683761597
1772619570064612600,5.161612548828125,0.9650686979293823,-0.1522321105003357,1.0497231483459473
1772619570074643700,5.171643798828125,0.9007828831672668,-0.23938575387001038,0.8902484774589539
1772619570084674600,5.181674560546875,0.7683947086334229,-0.383655309677124,0.6405896544456482
1772619570094705700,5.19170556640625,0.5677251219749451,-0.5975998640060425,0.2916358709335327
1772619570104736500,5.201736572265625,0.30874788761138916,-0.9145061373710632,-0.10966389626264572
1772619570114767600,5.211767578125,0.029209386557340622,-1.2461713552474976,-0.4340165853500366
1772619570124798500,5.221798583984375,-0.20855949819087982,-1.4141771793365479,-0.5635053515434265
1772619570134829600,5.23182958984375,-0.3651500940322876,-1.363914132118225,-0.506368100643158
1772619570144860400,5.2418603515625,-0.4376605153083801,-1.1203159093856812,-0.31921815872192383
1772619570154891500,5.2518916015625,-0.4030962288379669,-0.6875136494636536,-0.0691336989402771
1772619570164923400,5.26192333984375,-0.2875392735004425,-0.17292039096355438,0.14214925467967987
1772619570174954500,5.27195458984375,-0.14779755473136902,0.3245789408683777,0.2345806062221527
1772619570184985300,5.2819853515625,-0.039179202169179916,0.7052863240242004,0.18610282242298126
1772619570195016700,5.2920166015625,-0.0009072883985936642,0.9160383939743042,0.024681247770786285
1772619570205047600,5.302047607421875,-0.01781037263572216,0.9935946464538574,-0.17520497739315033
1772619570215078700,5.31207861328125,-0.082925945520401,0.9794731140136719,-0.31956058740615845
1772619570225109500,5.322109619140625,-0.15344591438770294,0.8653885722160339,-0.32111427187919617
1772619570235140600,5.332140625,-0.19822055101394653,0.6827328205108643,-0.16996818780899048
1772619570245171500,5.34217138671875,-0.21852529048919678,0.45175549387931824,0.09368475526571274
1772619570255203600,5.35220361328125,-0.2196798324584961,0.2197543829679489,0.40526774525642395
1772619570265234400,5.362234375,-0.19913488626480103,-0.015868792310357094,0.6653435230255127
1772619570275265500,5.372265625,-0.18314270675182343,-0.329345166683197,0.8448691964149475
1772619570285296400,5.38229638671875,-0.19771791994571686,-0.7162805795669556,0.9674574136734009
1772619570295327500,5.392327392578125,-0.23767927289009094,-1.0753114223480225,1.0733721256256104
1772619570305358300,5.4023583984375,-0.2738196849822998,-1.2384138107299805,1.1485034227371216
1772619570315389400,5.412389404296875,-0.28441962599754333,-1.1534388065338135,1.1750693321228027
1772619570325420500,5.422420654296875,-0.266439288854599,-0.8689827919006348,1.1296230554580688
1772619570335451600,5.43245166015625,-0.24789617955684662,-0.5100237131118774,0.9671179056167603
1772619570345482500,5.442482421875,-0.2613062560558319,-0.27418220043182373,0.6351149082183838
1772619570355513600,5.452513671875,-0.3441694676876068,-0.23902465403079987,0.15510809421539307
1772619570365544400,5.46254443359375,-0.48622778058052063,-0.28141656517982483,-0.3588217794895172
1772619570375575600,5.472575439453125,-0.6367415189743042,-0.294880747795105,-0.7922620177268982
1772619570385607400,5.482607421875,-0.7339926958084106,-0.24882273375988007,-1.0730023384094238
1772619570395638500,5.492638427734375,-0.7434806227684021,-0.24483811855316162,-1.1836069822311401
1772619570405669400,5.50266943359375,-0.6460725665092468,-0.32976579666137695,-1.112275242805481
1772619570415700500,5.512700439453125,-0.4715018570423126,-0.49419015645980835,-0.8756888508796692
1772619570425731300,5.5227314453125,-0.2619878053665161,-0.7024304270744324,-0.4934259355068207
1772619570435762400,5.532762451171875,-0.04590638726949692,-0.9382017850875854,-0.062180206179618835
1772619570445793300,5.542793212890625,0.1563843935728073,-1.1752889156341553,0.3016025125980377
1772619570455824600,5.55282470703125,0.3190964460372925,-1.3918771743774414,0.5200490355491638
1772619570465855500,5.56285546875,0.44261491298675537,-1.5241005420684814,0.6263999938964844
1772619570475886600,5.572886474609375,0.5076298117637634,-1.4930557012557983,0.6525599360466003
1772619570485917700,5.582917724609375,0.5256088376045227,-1.326882243156433,0.6333529949188232
1772619570495948500,5.592948486328125,0.5087887048721313,-1.0980674028396606,0.6218711137771606
1772619570505979600,5.602979736328125,0.49051225185394287,-0.8139118552207947,0.6413707733154297
1772619570516011500,5.613011474609375,0.46912118792533875,-0.473591148853302,0.6870582103729248
1772619570526042400,5.62304248046875,0.4544655382633209,-0.07671648263931274,0.7230049967765808
1772619570536073500,5.633073486328125,0.44783520698547363,0.3727036714553833,0.735892653465271
1772619570546104300,5.643104248046875,0.4428825378417969,0.7912958860397339,0.7022503018379211
1772619570556135400,5.653135498046875,0.4438612163066864,1.0633841753005981,0.6072460412979126
1772619570566166500,5.66316650390625,0.4367236793041229,1.1339880228042603,0.4574621319770813
1772619570576197600,5.67319775390625,0.4053840935230255,1.021082878112793,0.28731173276901245
1772619570586228700,5.683228759765625,0.3341298997402191,0.7496537566184998,0.12599235773086548
1772619570596259600,5.693259521484375,0.2186107635498047,0.4024932086467743,0.008448667824268341
1772619570606290700,5.703290771484375,0.0722583532333374,0.10453687608242035,-0.03815372288227081
1772619570616321500,5.713321533203125,-0.0785326212644577,-0.053696129471063614,-0.005967970937490463
1772619570626352600,5.7233525390625,-0.22216887772083282,-0.04914531856775284,0.08865627646446228
1772619570636383500,5.733383544921875,-0.33360129594802856,0.10271299630403519,0.2416156679391861
1772619570646415400,5.743415283203125,-0.40373939275741577,0.36727994680404663,0.4297877252101898
1772619570656446500,5.753446533203125,-0.43328753113746643,0.6797569394111633,0.6191884279251099
1772619570666477600,5.7634775390625,-0.4299796223640442,0.9752375483512878,0.7781575322151184
1772619570676508200,5.773508056640625,-0.3881639540195465,1.1646111011505127,0.8490604162216187
1772619570686539300,5.783539306640625,-0.3050192594528198,1.1759166717529297,0.8087499737739563
1772619570696570000,5.793570068359375,-0.19564788043498993,1.0157073736190796,0.7142195701599121
1772619570706601200,5.803601318359375,-0.10892736166715622,0.7445821762084961,0.6154317855834961
1772619570716632300,5.81363232421875,-0.08185233175754547,0.404402494430542,0.5348096489906311
1772619570726663400,5.823663330078125,-0.10764504969120026,0.10632205009460449,0.5177385210990906
1772619570736694300,5.8336943359375,-0.11726343631744385,0.012772670015692711,0.5926581621170044
1772619570746725400,5.843725341796875,-0.09347555041313171,0.1524176448583603,0.7356765866279602
1772619570756756200,5.853756103515625,-0.01592491939663887,0.43691349029541016,0.8842402696609497
1772619570766787300,5.863787353515625,0.048548344522714615,0.6234593987464905,0.9452136158943176
1772619570776819200,5.873819091796875,0.05459490418434143,0.6644144654273987,0.9127125144004822
1772619570786850300,5.883850341796875,0.03479776158928871,0.672463059425354,0.8163212537765503
1772619570796881200,5.893881103515625,0.015200825408101082,0.6545915603637695,0.6281378865242004
1772619570806912300,5.903912353515625,0.01855640858411789,0.630953848361969,0.3700011074542999
1772619570816943000,5.913943115234375,0.045181576162576675,0.658764660358429,0.08312463760375977
1772619570826974200,5.92397412109375,0.0499478355050087,0.7002338171005249,-0.2611962556838989
1772619570837005300,5.93400537109375,0.008426429703831673,0.6549524664878845,-0.7134052515029907
1772619570847036400,5.944036376953125,-0.08643936365842819,0.4390588104724884,-1.237689733505249
1772619570857067300,5.9540673828125,-0.25325024127960205,0.005790906958281994,-1.7081876993179321
1772619570867098400,5.964098388671875,-0.45615699887275696,-0.5888817310333252,-1.9567537307739258
1772619570877129200,5.974129150390625,-0.5896791815757751,-1.161408543586731,-1.8843796253204346
1772619570887160300,5.984160400390625,-0.5854266285896301,-1.557864785194397,-1.4605162143707275
1772619570897191200,5.994191162109375,-0.4443563222885132,-1.6209598779678345,-0.802344799041748
1772619570907223300,6.004223388671875,-0.14445294439792633,-1.2891765832901,-0.08183032274246216
1772619570917254100,6.014254150390625,0.13037997484207153,-0.6408246755599976,0.5132406949996948
1772619570927285200,6.02428515625,0.37555086612701416,-0.054354503750801086,0.7529944181442261
1772619570937316000,6.034316162109375,0.5993314385414124,0.3209308087825775,0.6321828961372375
1772619570947347200,6.04434716796875,0.655102014541626,0.6526549458503723,0.36546599864959717
1772619570957378000,6.0543779296875,0.6017924547195435,0.9331068992614746,0.04953302815556526
1772619570967409400,6.064409423828125,0.508647084236145,1.1015803813934326,-0.24370603263378143
1772619570977440300,6.074440185546875,0.38460609316825867,1.1129465103149414,-0.4548073709011078
1772619570987471400,6.084471435546875,0.25853657722473145,0.9892644882202148,-0.5609812140464783
1772619570997502200,6.094502197265625,0.14681094884872437,0.7830017805099487,-0.5677438378334045
1772619571007533300,6.104533203125,0.05845632031559944,0.5663288235664368,-0.5056613087654114
1772619571017564400,6.114564453125,0.018224311992526054,0.37941908836364746,-0.40040451288223267
1772619571027596300,6.12459619140625,0.014564596116542816,0.2765294909477234,-0.25529205799102783
1772619571037627100,6.134627197265625,0.024818599224090576,0.24152709543704987,-0.09746705740690231
1772619571047658200,6.144658203125,0.030962511897087097,0.2593090534210205,0.04173397645354271
1772619571057689000,6.154689208984375,0.03666040673851967,0.3039304316043854,0.15699073672294617
1772619571067720200,6.16472021484375,0.042351316660642624,0.3634035885334015,0.24454589188098907
1772619571077751000,6.1747509765625,0.04622720181941986,0.4057524800300598,0.28854885697364807
1772619571087782100,6.1847822265625,0.052931975573301315,0.428493469953537,0.2863472104072571
1772619571097813200,6.194813232421875,0.05659842863678932,0.41671156883239746,0.244306743144989
1772619571107844400,6.20484423828125,0.03992917388677597,0.37051504850387573,0.16824020445346832
1772619571117875500,6.21487548828125,-0.0018315883353352547,0.28856292366981506,0.06500568240880966
1772619571127906300,6.22490625,-0.0772046372294426,0.17522463202476501,-0.05253079533576965
1772619571137937400,6.2349375,-0.18819856643676758,0.05362113192677498,-0.1724022924900055
1772619571147968300,6.24496826171875,-0.319516122341156,-0.02857733517885208,-0.2719201147556305
1772619571157999400,6.254999267578125,-0.44120848178863525,-0.025883963331580162,-0.3256375789642334
1772619571168031200,6.26503125,-0.541716992855072,0.04247298836708069,-0.3486901819705963
1772619571178062000,6.27506201171875,-0.6060335636138916,0.13679121434688568,-0.34781011939048767
1772619571188093200,6.28509326171875,-0.6379712820053101,0.24321486055850983,-0.3460039496421814
1772619571198124300,6.295124267578125,-0.6378893256187439,0.34468093514442444,-0.32877883315086365
1772619571208155100,6.305155029296875,-0.6134500503540039,0.4229091703891754,-0.3102048933506012
1772619571218186500,6.3151865234375,-0.5559775829315186,0.47412505745887756,-0.2677365839481354
1772619571228217300,6.32521728515625,-0.49242261052131653,0.46114641427993774,-0.21592557430267334
1772619571238248400,6.33524853515625,-0.4245641827583313,0.3504779040813446,-0.1321510523557663
1772619571248279300,6.345279296875,-0.3626861572265625,0.1720285266637802,-0.03621174395084381
1772619571258310400,6.355310302734375,-0.3292255401611328,-0.10761106014251709,0.012228350155055523
1772619571268341200,6.36534130859375,-0.360892653465271,-0.5089177489280701,-0.023481445387005806
1772619571278372400,6.375372314453125,-0.5023500323295593,-0.9288230538368225,-0.17084045708179474
1772619571288404200,6.385404296875,-0.7271623611450195,-1.2625634670257568,-0.3903842568397522
1772619571298435300,6.395435302734375,-0.9455394744873047,-1.3249950408935547,-0.621795654296875
1772619571308466200,6.405466064453125,-1.0795356035232544,-1.0229636430740356,-0.8432396054267883
1772619571318497300,6.415497314453125,-1.129608154296875,-0.4980457127094269,-1.0727688074111938
1772619571328528100,6.425528076171875,-1.147006869316101,0.15897449851036072,-1.344728708267212
1772619571338559200,6.435559326171875,-1.1145133972167969,0.8524547219276428,-1.6310312747955322
1772619571348590300,6.44559033203125,-1.0392292737960815,1.366964340209961,-1.8656686544418335
1772619571358621400,6.455621337890625,-0.9635825157165527,1.5810108184814453,-1.9608097076416016
1772619571368652300,6.46565234375,-0.87480628490448,1.511773943901062,-1.8705213069915771
1772619571378683400,6.475683349609375,-0.856596052646637,1.3695635795593262,-1.5979340076446533
1772619571388714200,6.48571435546875,-0.9335116147994995,1.0907317399978638,-1.2909668684005737
1772619571398745300,6.495745361328125,-1.0299808979034424,0.4295744299888611,-0.9702093601226807
1772619571408776200,6.505776123046875,-1.0848095417022705,-0.3995177149772644,-0.5096742510795593
1772619571418808300,6.515808349609375,-1.0388234853744507,-1.1399625539779663,0.1355055868625641
1772619571428839200,6.525839111328125,-0.847353994846344,-1.7099725008010864,0.9156474471092224
1772619571438870300,6.535870361328125,-0.55482017993927,-2.1199538707733154,1.7425901889801025
1772619571448901000,6.545901123046875,-0.24000953137874603,-2.343907356262207,2.504228353500366
1772619571458932200,6.55593212890625,0.05191792547702789,-2.3675055503845215,3.0783324241638184
1772619571468963000,6.565963134765625,0.3071936368942261,-2.2653424739837646,3.328834056854248
1772619571478994400,6.575994384765625,0.5557719469070435,-2.125516891479492,3.162407636642456
1772619571489025300,6.586025390625,0.7212418913841248,-1.7413119077682495,2.7536532878875732
1772619571499056400,6.596056396484375,0.749269962310791,-1.1686115264892578,2.2857391834259033
1772619571509087200,6.606087158203125,0.7352649569511414,-0.6538033485412598,1.824090600013733
1772619571519118300,6.616118408203125,0.686967670917511,-0.2561407685279846,1.4611201286315918
1772619571529149200,6.626149169921875,0.6112809181213379,0.017082784324884415,1.1993926763534546
1772619571539180300,6.63618017578125,0.5253361463546753,0.2390928864479065,1.0071896314620972
1772619571549212200,6.646212158203125,0.4651145935058594,0.4360067546367645,0.863577127456665
1772619571559243300,6.6562431640625,0.4400397539138794,0.5945846438407898,0.7479020953178406
1772619571569274000,6.666274169921875,0.4439777731895447,0.6748341917991638,0.6551066040992737
1772619571579305200,6.67630517578125,0.4525321424007416,0.6830019950866699,0.5808331370353699
1772619571589336000,6.686336181640625,0.4526437222957611,0.6523151993751526,0.5152407884597778
1772619571599367200,6.6963671875,0.4292371869087219,0.6276795268058777,0.45820632576942444
1772619571609398300,6.706398193359375,0.37817320227622986,0.6258140206336975,0.3961600065231323
1772619571619429400,6.716429443359375,0.31089869141578674,0.6280327439308167,0.3403266668319702
1772619571629460200,6.726460205078125,0.23637276887893677,0.6374168992042542,0.30328768491744995
1772619571639491300,6.7364912109375,0.1579323261976242,0.6514853239059448,0.3008663058280945
1772619571649522400,6.7465224609375,0.09102865308523178,0.6851604580879211,0.3352107107639313
1772619571659553300,6.75655322265625,0.04219472408294678,0.7382495999336243,0.4053688645362854
1772619571669584600,6.766584716796875,0.02072645165026188,0.7999705076217651,0.481496125459671
1772619571679616800,6.77661669921875,0.02673402614891529,0.8382561802864075,0.5651174783706665
1772619571689647600,6.786647705078125,0.06968975067138672,0.819677472114563,0.625447690486908
1772619571699678700,6.7966787109375,0.13527272641658783,0.735657274723053,0.6418874263763428
1772619571709709600,6.80670947265625,0.20224802196025848,0.6144107580184937,0.5974323153495789
1772619571719740700,6.81674072265625,0.21912901103496552,0.46727535128593445,0.45453107357025146
1772619571729771500,6.826771484375,0.198170468211174,0.2996746301651001,0.21922697126865387
1772619571739802600,6.836802734375,0.1658460944890976,0.19566625356674194,-0.06296559423208237
1772619571749833500,6.84683349609375,0.14069439470767975,0.3624049127101898,-0.2941460907459259
1772619571759864600,6.856864501953125,0.2367876023054123,0.9492330551147461,-0.38159382343292236
1772619571769895700,6.866895751953125,0.3978734314441681,1.6535638570785522,-0.49146467447280884
1772619571779926500,6.876926513671875,0.3297439515590668,1.9536972045898438,-0.9641508460044861
1772619571789957600,6.88695751953125,-0.16705116629600525,1.4099420309066772,-1.9794667959213257
1772619571799988700,6.89698876953125,-1.003308892250061,0.09244191646575928,-3.316321611404419
1772619571810020600,6.9070205078125,-1.8844114542007446,-1.2189925909042358,-4.4508233070373535
1772619571820051700,6.9170517578125,-2.3781371116638184,-1.961439609527588,-4.975289344787598
1772619571830082600,6.92708251953125,-2.366922378540039,-2.052964448928833,-4.757948875427246
1772619571840113700,6.93711376953125,-1.9787540435791016,-1.7936105728149414,-3.9883193969726562
1772619571850144500,6.94714453125,-1.1942651271820068,-1.267257809638977,-2.8767778873443604
1772619571860175600,6.957175537109375,-0.3180071711540222,-0.3356398046016693,-1.5708930492401123
1772619571870206700,6.967206787109375,0.3389075696468353,0.6565027832984924,-0.39709293842315674
1772619571880237600,6.977237548828125,0.7644835710525513,1.27853524684906,0.45264676213264465
1772619571890268700,6.9872685546875,0.9465478658676147,1.2980318069458008,0.8916885852813721
1772619571900299500,6.997299560546875,0.9943186640739441,0.5495114922523499,0.7743427753448486
1772619571910330600,7.00733056640625,1.0137336254119873,-0.40677589178085327,0.24737666547298431
1772619571920361500,7.017361572265625,0.8420235514640808,-0.7408269643783569,-0.16221237182617188
1772619571930392800,7.027392822265625,0.684438169002533,-0.7743348479270935,-0.4394511580467224
1772619571940424700,7.0374248046875,0.6352590322494507,-0.6553519368171692,-0.5591949224472046
1772619571950455600,7.04745556640625,0.6094737648963928,-0.5055512189865112,-0.5061173439025879
1772619571960486700,7.057486572265625,0.6185498237609863,-0.3217043876647949,-0.30850520730018616
1772619571970517800,7.067517822265625,0.6343586444854736,-0.11770625412464142,-0.04998844116926193
1772619571980548600,7.077548583984375,0.6354941725730896,0.02867870405316353,0.18842516839504242
1772619571990579700,7.087579833984375,0.6071624159812927,0.07881537079811096,0.36034420132637024
1772619572000610600,7.097610595703125,0.570644736289978,0.07057265937328339,0.4672582447528839
1772619572010641700,7.1076416015625,0.5305436849594116,0.050052206963300705,0.5031318068504333
1772619572020672500,7.117672607421875,0.5064746737480164,0.01505396980792284,0.45026692748069763
1772619572030703600,7.12770361328125,0.48705145716667175,-0.05193677917122841,0.318106472492218
1772619572040734500,7.137734375,0.45002856850624084,-0.1486772745847702,0.15974445641040802
1772619572050765800,7.147765869140625,0.4133498966693878,-0.27292996644973755,-0.002085999120026827
1772619572060797700,7.157797607421875,0.37518590688705444,-0.38353925943374634,-0.12202561646699905
1772619572070828800,7.167828857421875,0.33004024624824524,-0.4542757272720337,-0.14218653738498688
1772619572080859600,7.177859619140625,0.28317591547966003,-0.5090689659118652,-0.05134544521570206
1772619572090890800,7.187890869140625,0.22215251624584198,-0.5208451747894287,0.09801634401082993
1772619572100921600,7.197921630859375,0.15503939986228943,-0.4153371751308441,0.2335042804479599
1772619572110952700,7.20795263671875,0.07095621526241302,-0.23382332921028137,0.26882046461105347
1772619572120983600,7.217983642578125,-0.02049463801085949,-0.040948424488306046,0.3279905915260315
1772619572131014700,7.2280146484375,-0.06146897003054619,-0.07647712528705597,0.2256903201341629
1772619572141045500,7.23804541015625,-0.06425218284130096,-0.01709194853901863,0.16068807244300842
1772619572151076600,7.24807666015625,-0.04924393445253372,0.08000397682189941,0.15471060574054718
1772619572161107500,7.258107421875,-0.013031544163823128,0.09848687797784805,0.19089148938655853
1772619572171138600,7.268138671875,0.05753929540514946,0.004652258474379778,0.2990509867668152
1772619572181169700,7.278169677734375,0.10561706870794296,-0.2243444323539734,0.45546481013298035
