time,seconds_elapsed,z,y,x
1772786383118093300,0.06509326171875,0.47536067322194575,0.06167568105980754,-0.6848435277439654
1772786383128109300,0.075109375,0.8474936116814613,-0.10533747519170865,-0.9946408599302172
1772786383138125000,0.085125,1.3890940590083598,-0.12502550587691366,-1.0370842364493758
1772786383148141300,0.095141357421875,1.5492331830382347,0.10638544987468049,-0.30960268639698624
1772786383158157300,0.1051572265625,0.7646779658287763,0.2957552897650748,0.44457310157455504
1772786383168173300,0.11517333984375,-0.02093815861046314,0.5414257118145004,0.3882917538389563
1772786383178189300,0.125189208984375,-0.79764441588521,0.7700459956679493,0.227082224098593
1772786383188205300,0.135205322265625,-1.3931547325760125,0.21040786041244863,-0.3190679589545354
1772786383198221300,0.14522119140625,-1.1524731683224438,-0.8234222696118056,-1.4136667747288942
1772786383208237000,0.155237060546875,-0.6641524757623672,-1.548126390840113,-2.443541298995167
1772786383218253300,0.16525341796875,-0.07733458409309386,-2.1677748312264677,-2.8033076539650557
1772786383228269300,0.175269287109375,0.2769108154982328,-2.4621105365172027,-2.05555788045302
1772786383238285300,0.185285400390625,-0.3653238429665565,-2.156127940313518,-1.4702154681637882
1772786383248301300,0.19530126953125,-0.8534820384413003,-1.7472727063953875,-1.557925023537874
1772786383258317300,0.2053173828125,-1.5102297909051179,-1.556884574574232,-1.9870314567156135
1772786383268333300,0.215333251953125,-2.060223388046026,-1.5861258666276932,-2.4052134680360555
1772786383278349000,0.22534912109375,-1.8083102356821297,-1.7022959389410912,-2.519093237455189
1772786383288365300,0.235365234375,-1.0678063416451216,-1.7801893259607255,-2.4822002616047856
1772786383298381300,0.24538134765625,-0.04692307921648025,-1.9594142587326466,-1.9251047235041856
1772786383308397300,0.255397216796875,0.7937988463729619,-1.9788877516180277,-0.8712687472835182
1772786383318413300,0.265413330078125,1.0666858131825923,-1.6578087085694073,0.04425765939950943
1772786383328429300,0.27542919921875,0.99895317017138,-1.2312662806607781,0.4383977008752525
1772786383338445300,0.2854453125,0.8043915520578623,-0.9337431775055826,0.5335626137565821
1772786383348461000,0.2954609375,0.7911813573509454,-0.8246623328007757,0.5315442596714943
1772786383358477300,0.305477294921875,0.8712737157195806,-0.9929041723307221,0.3250126561705023
1772786383368493300,0.315493408203125,1.1050433086276055,-1.227418226930499,0.28650070081613954
1772786383378509300,0.32550927734375,1.204614858970046,-1.3088820197828113,0.3637221799235791
1772786383388525300,0.335525390625,1.1563386115789414,-1.288501787316054,0.24738252319693563
1772786383398541300,0.345541259765625,1.2790484609246253,-1.2133433782182632,-0.10654306985549628
1772786383408557000,0.35555712890625,1.5065437958687542,-1.1857288836490363,-0.5375122281651944
1772786383418573300,0.3655732421875,1.6450889277279377,-1.1661289148397742,-0.8472485508792101
1772786383428588000,0.375588134765625,1.5400608655452728,-1.1284119092553853,-1.0170516483765095
1772786383438604300,0.385604248046875,1.036051605466008,-1.025218807414919,-1.0486671222154051
1772786383448620300,0.395620361328125,0.42469197773635387,-0.9968617508500814,-1.317015203486383
1772786383458636300,0.40563623046875,0.11609247703254222,-1.180654649124667,-1.57953377488628
1772786383468652300,0.41565234375,-0.004647533544898033,-1.4348125847406685,-1.832454935248941
1772786383478668300,0.425668212890625,-0.06795709941685199,-1.6556706736274063,-2.0305701541908086
1772786383488684300,0.435684326171875,-0.034089316606521605,-1.792073094369471,-2.192172482641041
1772786383498700300,0.4457001953125,0.19836101039648055,-1.9171119711846112,-2.2672464283257723
1772786383508716300,0.45571630859375,0.5325841971784829,-2.053104788212478,-2.0477344933509825
1772786383518732300,0.465732177734375,0.48058045369684693,-2.1287018809884786,-1.4982603900395333
1772786383528748300,0.475748291015625,0.011357844838500022,-2.0144130923770365,-0.9660621234387159
1772786383538764300,0.485764404296875,-0.40655893967449663,-1.9286675305522978,-0.6589968465648591
1772786383548780300,0.4957802734375,-0.5139613297730684,-1.999670719666779,-0.6531669713675975
1772786383558796300,0.50579638671875,-0.6078583416104316,-2.089909939648956,-0.7032967376708984
1772786383568812300,0.515812255859375,-0.6635726300477981,-2.010366301204264,-0.7546624755099416
1772786383578828300,0.525828369140625,-0.7170908697456121,-1.7694193640127778,-0.778048904055357
1772786383588844300,0.53584423828125,-1.0714081655293703,-1.4111715969122944,-1.0249540920641274
1772786383598860300,0.5458603515625,-1.4157383203059435,-1.052472432782501,-1.426145732551813
1772786383608876300,0.555876220703125,-1.415962776711583,-0.7209562399368733,-1.6219979749977587
1772786383618892300,0.565892333984375,-1.179219136428833,-0.20547935450170188,-1.1428034227013588
1772786383628908000,0.575907958984375,-1.0395137286186218,0.8263323849048465,0.2895062027750537
1772786383638924300,0.58592431640625,-1.439292214372754,1.8055834410667417,1.9846584439739583
1772786383648940300,0.595940185546875,-1.4847212556391953,2.122377061881125,2.79976515905261
1772786383658956300,0.605956298828125,-1.5475509290397167,2.0599168063148854,2.5923738699823615
1772786383668972300,0.61597216796875,-2.1712129889816043,1.6142872544899582,1.8323038363404571
1772786383678988300,0.62598828125,-2.280021738746762,0.40359183349721134,0.3837809253510088
1772786383689004300,0.63600439453125,-1.924589175197482,-0.3374285586945712,-1.2020860711447894
1772786383699020800,0.646020751953125,-1.2774509626001118,-0.5563930158544331,-2.351863132251054
1772786383709036800,0.656036865234375,-0.6214204184949398,-0.4663042371936142,-2.8166598874911664
1772786383719052800,0.666052734375,-0.1643652172923088,0.03894150587804615,-2.629464414231479
1772786383729068800,0.67606884765625,-0.21736147894263266,0.7785131605662405,-1.910046708973497
1772786383739084800,0.686084716796875,-0.40034488746523855,1.2936194225907325,-1.0062333172421902
1772786383749100800,0.696100830078125,-0.4384896169424057,1.5334715502828358,-0.2509375670637004
1772786383759115800,0.70611572265625,-0.2472229487210512,1.5430115320444107,0.20585971385510637
1772786383769131800,0.7161318359375,0.07521510772109032,1.53221424369812,0.5960043838180601
1772786383779147800,0.726147705078125,0.4523316798120737,1.5491256310105324,0.9221575152605771
1772786383789163800,0.736163818359375,0.39358781442046165,1.6085675616689026,1.1145466847058385
1772786383799179800,0.7461796875,0.24091595753133296,1.6037866110026835,1.1448521719247102
1772786383809195800,0.75619580078125,0.6554454376935959,1.4665020005986094,1.1627397107928992
1772786383819211800,0.766211669921875,0.9116676854282617,1.2597026860721408,1.0991575385246426
1772786383829228000,0.77622802734375,1.066645481172204,1.0231450698807836,0.9754460378557444
1772786383839243800,0.786243896484375,1.2069634679228067,0.9770485776815563,0.9030730947580188
1772786383849259800,0.796259765625,1.227487200513482,0.9704664958775043,0.9267587985109538
1772786383859275800,0.80627587890625,1.4372802900284527,0.9271230287134646,0.9980660851385443
1772786383869291800,0.816291748046875,1.7727818261831998,0.7775562251675874,1.000206385102868
1772786383879307800,0.826307861328125,1.833352907001972,0.6479835773803293,0.9441024397607892
1772786383889323800,0.83632373046875,1.6039415093034506,0.602603745550476,0.7521348567284644
1772786383899340000,0.846340087890625,1.2361083138644695,0.4040507562458515,0.4386396564049646
1772786383909355800,0.856355712890625,0.9495172313511371,-0.009896083456557243,0.2002462030885741
1772786383919371800,0.866371826171875,0.7641215009897947,-0.40756760526038704,0.0882766146723181
1772786383929387800,0.8763876953125,0.34715222645998,-0.6011412352498621,0.06370086674448103
1772786383939403800,0.88640380859375,0.02044891378879547,-0.7224686903264373,0.05723444720935076
1772786383949419800,0.896419677734375,-0.02785071447789669,-0.847799170499295,0.05414440877214074
1772786383959435800,0.906435791015625,0.026925416326522827,-0.8839418394390494,0.059510392784699793
1772786383969452000,0.9164521484375,0.0852104320347309,-0.8587396667085587,0.0924345380693674
1772786383979467800,0.9264677734375,0.07024667165875434,-0.8171561218891292,0.15990538833923637
1772786383989483800,0.93648388671875,0.14741525153517723,-0.8204252797529101,0.2681484670456499
1772786383999499800,0.946499755859375,0.4132447010487318,-0.850263295590505,0.3464731581546366
1772786384009515800,0.956515869140625,0.7948714440405368,-0.9108555653277784,0.39431824758686124
1772786384019531800,0.96653173828125,0.9912240372240543,-1.0845987787529825,0.278185219348222
1772786384029547800,0.9765478515625,1.0972902102828026,-1.2100066350109875,0.12685286743454635
1772786384039563800,0.986563720703125,1.001111224988103,-1.2035881462708116,0.02731741131879389
1772786384049579800,0.996579833984375,0.8632219266891479,-1.2006500469923018,-0.040512116195634
1772786384059595800,1.006595703125,0.8496534200638532,-1.2154461226511746,-0.14771920291781424
1772786384069611800,1.01661181640625,1.0185790771394967,-1.2374819403052328,-0.2554172880273312
1772786384079626800,1.026626708984375,0.9734434658616781,-1.1432906216964125,-0.1838652328584343
1772786384089642800,1.036642822265625,0.8170978888958692,-0.9669474549058824,0.02560308168157935
1772786384099658800,1.04665869140625,0.7761708352237939,-0.8601420077871531,0.2427897155139595
1772786384109674800,1.0566748046875,0.7488391761839389,-0.8096333982340991,0.3375790730811655
1772786384119691000,1.06669091796875,0.7038187157183885,-0.9839640561584383,0.26458339497521516
1772786384129706800,1.076706787109375,0.5259732546061278,-1.3265345808513462,0.0490296961069107
1772786384139722800,1.08672265625,0.37256314657032485,-1.5656766605779529,-0.2073722921088338
1772786384149738800,1.09673876953125,0.2588052499651909,-1.752867165401578,-0.3954476900082081
1772786384159754800,1.106754638671875,0.14345511573255063,-1.9646432454273104,-0.5447181409560143
1772786384169770800,1.116770751953125,0.10456336728036403,-2.082706438010931,-0.5585383573200553
1772786384179787000,1.126787109375,-0.042293665850162504,-2.061085557833314,-0.3760797763891518
1772786384189803000,1.136802978515625,-0.42738487008213993,-1.9786431292071938,-0.24986009229160844
1772786384199818800,1.14681884765625,-0.9262450768351554,-1.9272271224856377,-0.21126805743835866
1772786384209834800,1.156834716796875,-1.1353273877322674,-1.9656024458482861,-0.2666067905616015
1772786384219850800,1.166850830078125,-0.9361392788618802,-2.069207781751454,-0.36082521637305615
1772786384229866800,1.17686669921875,-0.714554629266262,-2.1590167936228215,-0.30692959473021325
1772786384239882800,1.1868828125,-0.5736094505280256,-2.1896187065050006,-0.10737871696203946
1772786384249899000,1.19689892578125,-0.5375631546348333,-2.255706504918635,0.14305449904240666
1772786384259914800,1.206914794921875,-0.7779787614285946,-2.2677913488574326,0.3389380864746868
1772786384269930800,1.2169306640625,-1.2574842793703078,-2.244607018755376,0.49302777427248656
1772786384279946800,1.22694677734375,-1.4513368724316358,-2.0659686536997555,0.62580257910192
1772786384289962800,1.236962646484375,-1.5939567063838243,-1.6328803112789987,0.7734805732265114
1772786384299978800,1.246978759765625,-1.745748273307085,-1.1714788245003669,0.7868944007467478
1772786384309994800,1.256994873046875,-1.8732722449362278,-0.7081782261021435,0.7490751768968998
1772786384320011000,1.267010986328125,-2.308810026335716,-0.193446788739413,0.7950238581232726
1772786384330026800,1.27702685546875,-3.1404063961833715,0.3466599859636277,0.9518795765683055
1772786384340042800,1.287042724609375,-3.5476486419469118,0.8983828180499375,1.3886901543825865
1772786384350058800,1.297058837890625,-3.307636355257034,1.359156601384282,2.235466557705402
1772786384360074800,1.30707470703125,-2.490247958981991,1.3741137858889996,3.004718407320976
1772786384370089700,1.31708984375,-1.6793588615983723,1.424461724987626,3.2678435663118957
1772786384380105700,1.327105712890625,-0.9523656065195798,1.789355944365263,3.118034405377507
1772786384390121700,1.337121826171875,-0.04449965146183967,2.233443965836614,2.834038892315328
1772786384400138000,1.347137939453125,0.6639081456124782,2.6446090841323135,2.4695605602622033
1772786384410154000,1.357154052734375,0.956078489562869,2.8249887398973104,1.8752936677612364
1772786384420169700,1.367169677734375,1.0428215379923582,2.807717871622741,0.8899558390315622
1772786384430185700,1.377185791015625,0.958620575261116,2.665990310335159,-0.4115339516080916
1772786384440201700,1.38720166015625,0.7820838586598634,2.118933351168036,-1.9245048579148947
1772786384450217700,1.3972177734375,0.002316460248827934,0.8465499010905623,-3.40401787738651
1772786384460234000,1.40723388671875,-1.004320834684372,-0.1697861828951165,-4.387923992812634
1772786384470250000,1.41725,-1.4017752614051102,-1.046088576964289,-4.520870866273343
1772786384480265700,1.427265625,-1.9255168114364145,-1.4913440347798168,-3.7557869499921797
1772786384490281700,1.43728173828125,-2.4248650939673184,-1.6139422404445707,-2.4267944545947016
1772786384500297700,1.447297607421875,-2.8039871606618165,-1.5627084584221242,-1.1921667346768081
1772786384510313700,1.457313720703125,-3.0531103900462386,-1.3630495171695947,-0.2276654673466459
1772786384520329700,1.467329833984375,-2.878286322581768,-0.9507469192765653,0.5161244626237079
1772786384530346000,1.477345947265625,-2.322706449741125,-0.5429719183431938,0.9338765946269035
1772786384540362000,1.487362060546875,-1.4172574926972388,-0.16892204034645109,1.1981567688718437
1772786384550377700,1.497377685546875,-0.43162206926047797,0.03803235514387488,1.358167151955515
1772786384560393700,1.507393798828125,0.22620295704603194,0.1932957446298562,1.2707280840858817
1772786384570409700,1.51740966796875,0.8008002495676279,0.2875936654183082,1.2144307350635528
1772786384580425700,1.52742578125,1.2890396935850381,0.21658656731368972,1.293618545807898
1772786384590441700,1.537441650390625,1.542977045252919,0.19568996455632148,1.515324045304209
1772786384600458000,1.5474580078125,1.0892629711717368,0.48781011268943547,1.5218942174747585
1772786384610474000,1.557473876953125,0.6038116965681314,0.854625947779417,1.4277825399734079
1772786384620489700,1.56748974609375,0.14926760140359402,0.9650707743138074,1.2495754059419035
1772786384630505700,1.577505615234375,-0.23662381329536436,0.8734424380607902,0.9555603109076619
1772786384640521700,1.587521728515625,-0.39113749865889547,0.6319506534028798,0.5477880864532664
1772786384650537700,1.597537841796875,-0.313218392676115,0.48391840248052026,0.2323399984963238
1772786384660553700,1.6075537109375,-0.1698901181936264,0.364014660064131,0.060800286464765665
1772786384670570000,1.617570068359375,-0.022321721923351287,0.32446335172466934,0.04233180590346455
1772786384680586000,1.6275859375,0.24092121822834014,0.3534417550582438,0.0029610052300617098
1772786384690601000,1.63760107421875,0.4670744909137487,0.3740013626798987,-0.1751357272295281
1772786384700616400,1.647616455078125,0.4813607904195785,0.4295085842378437,-0.45289435519613325
1772786384710632400,1.657632568359375,0.4179360737353563,0.5632374749217182,-0.7432241127811372
1772786384720648400,1.6676484375,0.5667103386640548,0.6447520481131971,-0.9056213179361075
1772786384730664400,1.67766455078125,0.9272598068356513,0.6524159338045865,-0.9065047497071326
1772786384740680400,1.687680419921875,1.4634598564237356,0.6360591116350144,-0.8631939427036791
1772786384750696400,1.697696533203125,1.9977561182171104,0.5834862630285322,-0.8567252581462264
1772786384760712400,1.70771240234375,2.376366728258133,0.45531347210183737,-0.8356110853817313
1772786384770728400,1.717728515625,2.4883289736181498,0.2739366950582713,-0.7682816163439303
1772786384780744400,1.727744384765625,2.3673300198435783,0.12242577170729636,-0.7450994051337242
1772786384790760400,1.737760498046875,2.0830594892323018,0.015558657529205083,-0.776788455665484
1772786384800776400,1.7477763671875,1.8030138828396796,-0.10285824386291205,-0.8038751269683241
1772786384810792400,1.75779248046875,1.6808482233732938,-0.1937653531692922,-0.7307580144397914
1772786384820808400,1.767808349609375,1.7551526459902524,-0.20892733953110873,-0.583937075535953
1772786384830824400,1.777824462890625,1.829611966907978,-0.2533643010202795,-0.46254704008456315
1772786384840840400,1.78784033203125,2.0066759222537276,-0.40681174539178605,-0.28566720913406457
1772786384850856400,1.7978564453125,2.009586256742477,-0.5894965362939983,-0.10649740408286451
1772786384860872400,1.80787255859375,1.9165256957292556,-0.7646195136398076,0.04468786751031875
1772786384870888400,1.817888427734375,1.9787392830580472,-0.9194273596443235,0.23072226110137997
1772786384880904400,1.827904541015625,2.0843565433055162,-1.006996775895357,0.41865262450687585
1772786384890920400,1.83792041015625,2.034520206990838,-0.9834270266722888,0.5052373405694961
1772786384900936400,1.8479365234375,1.9920932701498268,-1.0235185793682933,0.525945270620659
1772786384910952400,1.857952392578125,1.9410247616916894,-1.1528626790966838,0.6320042102210224
1772786384920968400,1.867968505859375,1.6562825219154358,-1.320491355164349,0.7115079550467431
1772786384930984400,1.877984375,1.1483762543976306,-1.4024208658322692,0.6717871353592724
1772786384941000400,1.88800048828125,0.5141992301821708,-1.4215417458876967,0.5001460818450898
1772786384951016400,1.898016357421875,-0.023657354441285132,-1.5851447466358541,0.19948906457833945
1772786384961032400,1.908032470703125,-0.33962124643325803,-1.6471075740739702,-0.0031029344514012336
1772786384971048400,1.91804833984375,-0.4572364029884338,-1.6524971581578254,-0.017077902985736727
1772786384981063400,1.9280634765625,-0.5814075570583344,-1.718245787744969,0.1991032801311463
1772786384991079400,1.938079345703125,-0.9339566741257905,-1.8539675327464937,0.5385583762172609
1772786385001095400,1.948095458984375,-1.3772165742099285,-1.625850558772683,0.961976096234098
1772786385011111400,1.958111328125,-2.006906808400154,-1.005267394819483,1.4366872925713658
1772786385021127400,1.96812744140625,-2.8253976129591463,-0.4972853586517274,1.765883737232536
1772786385031143400,1.978143310546875,-3.5300007570534944,0.018067863871157167,1.987083625294268
1772786385041159400,1.988159423828125,-3.802126676362753,0.3683891488213092,2.142967283836752
1772786385051175400,1.998175537109375,-3.692956107547879,0.4422209854904562,2.2586387589782477
1772786385061191400,2.00819140625,-3.5045337228417393,0.12034845397658646,2.3723183296501635
1772786385071207400,2.01820751953125,-3.719464175245166,-0.17732720939181745,2.5209932258576155
1772786385081223400,2.028223388671875,-4.154398730054497,-0.13554953023977576,2.344578528200835
1772786385091239400,2.038239501953125,-4.718007595571875,0.10458594443835317,1.788975420615077
1772786385101255400,2.04825537109375,-5.120092020180821,0.409888230227679,0.9307660613909363
1772786385111271400,2.058271484375,-4.927500240835547,0.4820816155074164,-0.08144457669518887
1772786385121287400,2.068287353515625,-4.204605068725347,0.43796267045885323,-0.9160073220677674
1772786385131303400,2.078303466796875,-2.987084550952911,0.6495015807278454,-1.256698681950569
1772786385141319400,2.0883193359375,-1.6195248628824948,1.083060171008855,-1.1797676371570676
1772786385151335400,2.09833544921875,-0.5259311690300703,1.6039089222081004,-0.827097085667029
1772786385161351400,2.108351318359375,0.19081950897574423,1.969100370966643,-0.38595019568148997
1772786385171367400,2.118367431640625,0.531506338813901,2.1724423846460876,0.04535619522593915
1772786385181383400,2.128383544921875,0.4795446809083223,2.1714640411332247,0.29617727803681043
1772786385191399400,2.1383994140625,0.4517775530606508,1.9853940647721289,0.35102599915340543
1772786385201415400,2.14841552734375,0.4934042794346809,1.8428806138038634,0.3094641912417486
1772786385211431400,2.158431396484375,0.6037497372478247,1.709014141280204,0.36150837633162736
1772786385221447400,2.168447509765625,0.8314560845941305,1.5420330424010753,0.46983873146269467
1772786385231463400,2.17846337890625,1.0581336734145879,1.452265385453403,0.6330235433313995
1772786385241479400,2.1884794921875,1.0993617558598519,1.3821109221227466,0.77915759594962
1772786385251495400,2.198495361328125,0.9436661672353744,1.206312748929113,1.018083548707515
1772786385261511400,2.208511474609375,0.6698790367156267,0.9626159285075963,1.272917118562758
1772786385271527400,2.21852734375,0.25780747109949587,0.7344849260084331,1.324819301366061
1772786385281543400,2.22854345703125,-0.22937048116624353,0.5301641669573262,1.281484017508477
1772786385291559400,2.238559326171875,-0.7360486681938171,0.20734600689010693,1.2295010245539246
1772786385301574400,2.248574462890625,-1.0704150628387927,-0.032384640713641416,1.2717347769103944
1772786385311590400,2.25859033203125,-1.3160054419219493,-0.15642050536554306,1.3426022108159958
1772786385321606400,2.2686064453125,-1.7507926972150802,-0.37273758982177824,1.088964645812288
1772786385331622400,2.278622314453125,-1.872889383098483,-0.509000054103881,0.7333854403339326
1772786385341638400,2.288638427734375,-1.3717963027268647,-0.5649931594826281,0.40244712044149633
1772786385351654700,2.298654541015625,-0.585850507941842,-0.6282398892514407,0.293153290573135
1772786385361670400,2.30867041015625,0.325270064997673,-0.6232640005350113,0.5008406399805099
1772786385371686400,2.318686279296875,1.125182425814867,-0.38291809797659515,0.5500582598749548
1772786385381702400,2.328702392578125,1.1564689599603415,-0.6528920999489725,0.3327097134791314
1772786385391718400,2.338718505859375,0.5798042135149241,-0.6885019041210413,0.6223330032952129
1772786385401734400,2.348734375,1.218956688055396,-0.7956257695391774,0.7619162460304796
1772786385411750400,2.35875048828125,1.308465694066882,-1.0238999068360775,0.6602626287169754
1772786385421766400,2.368766357421875,1.1581114664703607,-1.0547215268835424,0.589401478421688
1772786385431782400,2.378782470703125,1.1396820758104325,-0.9780587045721709,0.48321796259358524
1772786385441798400,2.38879833984375,0.8966080634623765,-0.9619127486743032,0.4494267521508038
1772786385451814400,2.398814453125,0.7943243315517902,-0.7629819755658507,0.6205186473496258
1772786385461830400,2.408830322265625,0.9160036688059567,-0.28635245145186783,0.8403048692211508
1772786385471846400,2.418846435546875,0.9783084415495396,0.22486549789719282,0.8185513756398111
1772786385481862700,2.428862548828125,1.5133862091094255,0.46145676062982527,0.5728687151633203
1772786385491878400,2.43887841796875,2.3584949714809653,0.42495008068326856,0.31695034574605524
1772786385501894400,2.448894287109375,3.246747879052162,0.259576417000778,0.1578209102153778
1772786385511910400,2.458910400390625,4.1432548202276225,-0.06373118881750851,-0.033842575303837656
1772786385521926400,2.468926513671875,4.90022878755033,-0.3909634937988594,-0.11262867337949574
1772786385531942400,2.4789423828125,5.481351682448387,-0.6473961328811944,-0.030057138480991123
1772786385541958400,2.48895849609375,5.735790553897619,-0.6449184176560491,0.08446684712581336
1772786385551974700,2.498974609375,5.412935148826241,-0.3887474251845851,0.2397739478893578
1772786385561990400,2.508990478515625,4.745667755913734,-0.0768399689765647,0.6084217476468533
1772786385572006400,2.51900634765625,4.193089987498522,0.26258239388372745,0.9742229988668113
1772786385582022400,2.5290224609375,3.8067239410251377,0.37813462655972685,1.0939350546360016
1772786385592038400,2.539038330078125,3.2034716319054364,0.2574802849717438,1.0205319647729396
1772786385602053400,2.549053466796875,2.7219261325687167,0.011988543957471847,0.8508218793213367
1772786385612069400,2.5590693359375,2.383128477478027,-0.41104379347097125,0.6896442790891975
1772786385622085400,2.56908544921875,1.929727122607827,-0.7465979731284081,0.672453124987334
1772786385632101600,2.5791015625,1.4495184248328208,-0.9602302024148404,0.9251052591502666
1772786385642117400,2.589117431640625,0.8591045544981956,-1.1624607477210462,1.233331834888458
1772786385652133400,2.59913330078125,0.14421265610158443,-1.446517927842587,1.3961439775198696
1772786385662149400,2.6091494140625,-0.4547831646174192,-1.7693951063543558,1.3272982587002218
1772786385672165400,2.619165283203125,-0.8886433681935071,-2.012888659288734,1.0381226395864038
1772786385682181400,2.629181396484375,-1.3426707460075615,-2.331267795728892,0.7503904972791672
1772786385692197400,2.639197265625,-1.5485580602556466,-2.5951374894768,0.5458425418760627
1772786385702213000,2.649213134765625,-1.7181395508915185,-2.815503995454311,0.34661742546353486
1772786385712229000,2.65922900390625,-1.7689660672873257,-3.0555186202317475,0.16143036941681058
1772786385722244900,2.669244873046875,-1.391436238220334,-3.1604996284022926,0.009935922276601195
1772786385732260900,2.6792607421875,-0.6857055514007806,-3.046033291266858,0.09352047014255076
1772786385742276900,2.68927685546875,-0.4360445618778467,-2.7676135325103997,0.3637258331853896
1772786385752293000,2.699293212890625,-0.4713070139169693,-2.323381280262768,0.8338846269153058
1772786385762309000,2.70930908203125,0.014630582898855209,-1.7709432125791906,1.2258425020463763
1772786385772325000,2.7193251953125,0.034027357286214824,-1.0389433813847602,1.3053944699279962
1772786385782341000,2.729341064453125,-0.4754167873233556,-0.4169316459331661,1.2063020814046264
1772786385792356900,2.73935693359375,-1.6302730513900519,-0.15924867799617348,1.056461502418667
1772786385802372900,2.749372802734375,-2.740390010020137,-0.27400479185841975,1.1287464749719947
1772786385812389000,2.75938916015625,-3.319424992728233,-0.47572263840213413,1.5710567461811005
1772786385822405000,2.769405029296875,-3.4855554661273955,-0.23731362219043076,2.314367222071439
1772786385832421000,2.779421142578125,-3.2693320513039827,0.4699922049913555,2.861678009869158
1772786385842437000,2.78943701171875,-2.7599638945400713,1.0765487432882188,2.8854151515483855
1772786385852453000,2.799453125,-2.378594925701618,1.4145434114329516,2.143965793354809
1772786385862468900,2.80946875,-2.180430899181962,1.7271940872237086,0.781555158610642
1772786385872484900,2.81948486328125,-1.893553400942683,1.7638859875440596,-0.6688382954910397
1772786385882501000,2.829501220703125,-1.5501684180617332,1.4717618208229541,-1.7255013118311762
1772786385892517000,2.83951708984375,-0.9264373845368623,1.0565316450454294,-2.2306030433222652
1772786385902533000,2.849533203125,-0.39361061077415943,0.6746177556753158,-2.0402914838686583
1772786385912549000,2.859549072265625,-0.14758242479562758,0.4875909535134211,-1.1473372667387127
1772786385922564900,2.86956494140625,-0.16463409736156462,0.6017779622508213,-0.33380094278194006
1772786385932580000,2.879580078125,-0.6028396366655826,0.8902769607447087,0.05758205507062375
1772786385942595800,2.889595947265625,-1.0877934831410645,1.3503649537719786,0.08498246849775314
1772786385952611800,2.89961181640625,-0.9445482107669114,1.6704887419223784,-0.010718597086891532
1772786385962628000,2.909628173828125,0.06719137574136257,1.324423872307688,-0.22577216441333292
1772786385972644000,2.91964404296875,1.1349988864302634,0.9601092063836753,-0.6148388481475412
1772786385982660000,2.92966015625,1.7274714428603648,0.7664055933389812,-1.0871416681688277
1772786385992676000,2.939676025390625,1.9422884980171917,0.5705408932702616,-1.4046455561444162
1772786386002692000,2.949692138671875,2.025969236266613,0.3122887106105685,-1.3396952373281121
1772786386012707800,2.959707763671875,1.9472481662511825,0.16884106579842045,-1.1022433026455343
1772786386022723800,2.969723876953125,1.71938633608222,0.06711651584028731,-0.8991692922525107
1772786386032740000,2.979739990234375,1.5644950495779513,-0.11418960255328565,-0.8593509304746985
1772786386042756000,2.989756103515625,1.5188970814853906,-0.31961832284629343,-0.7695772821776569
1772786386052772000,2.999772216796875,1.1303683040201664,-0.44062140480671075,-0.43457551223859187
1772786386062788000,3.0097880859375,0.2548170571118593,-0.352693895833008,-0.06851648686528206
1772786386072804000,3.01980419921875,-0.29039924262464045,-0.15805440844399854,0.007260675185360014
1772786386082819800,3.02981982421875,-0.32506782042384147,-0.14709045829391107,0.03827631996758282
1772786386092835800,3.0398359375,-0.3680535601913929,-0.15588329321630298,0.16594605674296617
1772786386102852000,3.04985205078125,-0.3448784363090992,-0.10796763189905323,0.1954622750139795
1772786386112868000,3.0598681640625,-0.050555882760882374,-0.0416345397877274,0.3639198213875294
1772786386122884000,3.069884033203125,0.37365211085081096,-0.03335628962423652,0.602530643781647
1772786386132900000,3.079900146484375,0.6952543009907007,-0.07651324863969348,0.6746525347277522
1772786386142915800,3.089915771484375,0.7620990552514791,-0.1676299547092989,0.6045414721474051
1772786386152931800,3.099931884765625,0.8013789262384176,-0.2896380489937961,0.45520380118228493
1772786386162948000,3.109947998046875,0.8833271416068077,-0.42602139970920977,0.291734436751157
1772786386172964000,3.119964111328125,1.0720821192681789,-0.6126943834647536,0.10249766692221164
1772786386182980000,3.12997998046875,1.2695605016112326,-0.8567146636869758,-0.14125211666240356
1772786386192996000,3.13999609375,1.3116565990626812,-1.1026666426241398,-0.45890199811309573
1772786386203012000,3.15001220703125,1.215156126728654,-1.2527883766390382,-0.8248785328347236
1772786386213027800,3.16002783203125,1.135365381655097,-1.3522735638722776,-1.1166463603988288
1772786386223043800,3.1700439453125,1.0859709438890217,-1.481116070754081,-1.3005913074299693
1772786386233060000,3.18006005859375,0.7972089470773935,-1.6468085911273955,-1.4858577123232184
1772786386243076000,3.190076171875,0.49255672269463535,-1.875698303039372,-1.5846085939325392
1772786386253091000,3.200091064453125,0.3205225782096386,-1.986142691182345,-1.5742157947339117
1772786386263107000,3.210107177734375,0.18136895906329153,-2.0050679025352,-1.4988510494090617
1772786386273123000,3.220123046875,0.15374445455670355,-1.742817626682669,-1.2267099325306712
1772786386283139000,3.23013916015625,0.36698271608948707,-1.69926300098598,-0.8997214462425559
1772786386293155000,3.240155029296875,0.6851052474200725,-1.42190882563442,-0.22692029326884075
1772786386303170800,3.2501708984375,0.86094287584126,-1.1003826964054255,0.45578671563677486
1772786386313187000,3.26018701171875,0.9470032027035951,-0.7481728212296962,0.964064885206893
1772786386323203000,3.270203125,0.8932230971992016,-0.4615121806114912,1.2688697428680955
1772786386333219000,3.280218994140625,0.7407365337491035,-0.23543021959662436,1.4026397692799568
1772786386343235000,3.290235107421875,0.5439572395861149,-0.0421741311237216,1.5253062178753316
1772786386353251000,3.3002509765625,0.5261906967490911,0.11117796311452983,1.4908656036131083
1772786386363267000,3.31026708984375,0.5069640182316303,0.057677039877697824,1.3397488672114908
1772786386373282800,3.32028271484375,0.5265624526709318,-0.18703041889108715,1.1511791829891502
1772786386383299000,3.330299072265625,0.3815519241899252,-0.5675911400865763,0.95791841834113
1772786386393315000,3.340315185546875,0.15043489161729812,-0.9512531882982701,0.6864515474624932
1772786386403331000,3.3503310546875,-0.34416122795045373,-1.240544250485301,0.24986071334611623
1772786386413347000,3.36034716796875,-1.328856155666709,-1.426524210475385,-0.6455278547912836
1772786386423363000,3.370363037109375,-2.6544951028525827,-1.6582659508176147,-1.91058695333004
1772786386433378800,3.38037890625,-3.877546951267123,-1.492802855286002,-2.9388235011309383
1772786386443394800,3.390394775390625,-4.823332010352611,-0.4226097646348178,-2.8084795036450028
1772786386453411000,3.4004111328125,-4.733841124519706,0.23714754490852355,-1.737126283173263
1772786386463427000,3.410427001953125,-4.085607517901063,0.15903518137596548,-0.3474675029542297
1772786386473443000,3.420443115234375,-3.339177156424522,0.07065517939440906,1.2546085778035223
1772786386483459000,3.430458984375,-2.8609114094108343,0.05531644822619855,2.0128002503529188
1772786386493475000,3.44047509765625,-2.642012053376436,0.7156845100790262,1.5170748344942926
1772786386503490800,3.45049072265625,-3.19814956009984,0.9462891361501067,1.098693282013759
1772786386513507000,3.460507080078125,-3.7858775523513555,1.2736046624355017,0.7009365844108164
1772786386523523000,3.470523193359375,-2.487799981307983,1.1177144280217588,0.15435681430138648
1772786386533539000,3.4805390625,-0.9347042776226997,0.7404315594531595,-0.4963329532977193
1772786386543555000,3.49055517578125,0.07794482494592667,1.0458967076539993,-0.684635803277418
1772786386553571000,3.500571044921875,1.1784195104837416,1.5697360189713536,-0.5797388201285153
1772786386563587000,3.510587158203125,2.383050736066699,1.9554494467549024,-0.4528799248119816
1772786386573602800,3.520602783203125,3.3808220029771325,2.258979973631352,-0.11731226461846381
1772786386583618000,3.5306181640625,3.9111195505231615,2.4676772307336328,0.26842772237844764
1772786386593634000,3.540634033203125,3.842589035132527,2.5863226071193814,0.6322346579760313
1772786386603650000,3.550650146484375,3.444673420640826,2.7419699726879596,0.9663058690667152
1772786386613666000,3.560666015625,2.802770186087489,2.8905624513089654,1.3183302316077052
1772786386623682000,3.57068212890625,1.9894255122452973,3.01319689733088,1.7525532771468162
1772786386633698000,3.580697998046875,1.3332418234050274,3.10646554813683,2.104049670290947
1772786386643714000,3.590714111328125,0.8696370544284582,3.0451877803534266,2.234175933372974
1772786386653729800,3.600729736328125,0.433225997325778,2.9475702866882085,2.1636351010732353
1772786386663746000,3.61074609375,0.3375742507755756,2.50963625780195,1.8254441797040402
1772786386673762000,3.620761962890625,0.5109913740515709,1.8196106512449681,1.3663332150153815
1772786386683778000,3.630778076171875,0.8456412618130446,1.199167114958167,0.8148568319708108
1772786386693794000,3.6407939453125,1.1895862166643143,0.6027919250663369,0.28844094816371796
1772786386703810300,3.650810302734375,1.4115192413061857,0.14214213343784213,-0.083638762271218
1772786386713826300,3.660826416015625,1.533974823629856,-0.0965309405375272,-0.342220871005021
1772786386723842000,3.670842041015625,1.6052116753697394,-0.175768874033913,-0.478761677304469
1772786386733858000,3.680858154296875,1.6392875479727982,-0.2509395580913871,-0.5053761279856785
1772786386743874000,3.6908740234375,1.586948288926482,-0.48809813585057854,-0.4166238220930099
1772786386753890300,3.700890380859375,1.4370155016124249,-0.6359989058803767,-0.15693561528082936
1772786386763906300,3.71090625,1.197348667359352,-0.5714817177843302,0.1557909387577325
1772786386773922300,3.72092236328125,0.8245774309962988,-0.5040583599179983,0.5190034886587411
1772786386783938000,3.73093798828125,0.4126607636809349,-0.4221694004561752,0.9020835722640156
1772786386793954000,3.7409541015625,0.006818447843194008,-0.31656423250529914,1.1859174650236963
1772786386803970000,3.750969970703125,-0.27198680309951306,-0.27675372524037956,1.368926154118031
1772786386813986300,3.760986328125,-0.43333764100670813,-0.2932715101253241,1.3995000099495052
1772786386824002300,3.771002197265625,-0.40203415572643275,-0.36973347610235213,1.3584287255011498
1772786386834018300,3.781018310546875,-0.3036035921126604,-0.43938072056323285,1.2709341280519961
1772786386844034300,3.791034423828125,-0.34436113443672656,-0.5422444808514788,1.21622156400308
1772786386854050000,3.801050048828125,-0.3956681278258562,-0.6492081507392228,1.0926672266572712
1772786386864066000,3.811066162109375,-0.3849824831604957,-0.8549723500642925,0.8011134071700274
1772786386874082000,3.82108203125,-0.2922574377119541,-1.1025789643406867,0.4123765399120748
1772786386884098300,3.831098388671875,-0.04552490285634994,-1.3475899361006916,-0.009684997989144175
1772786386894114300,3.8411142578125,0.3847276316165924,-1.584749902099371,-0.3549013427494094
1772786386904130300,3.85113037109375,0.8636392753183841,-1.66872319355458,-0.5131331353206188
1772786386914145300,3.861145263671875,1.108529981699586,-1.1372829057142138,-0.26155635703792796
1772786386924161300,3.871161376953125,1.076841296494007,-0.5101615721639245,0.24064159756936132
1772786386934177300,3.88117724609375,0.9349866016954183,-0.26335062004355714,0.7162072187788784
1772786386944193000,3.891193115234375,0.6691793640136718,-0.13036474801301956,1.0901206109143793
1772786386954209000,3.901208984375,0.3183130854666233,-0.18070830319747327,1.3160181552730499
1772786386964225300,3.911225341796875,0.05570552060902118,-0.4393026138257235,1.4538967860475183
1772786386974241300,3.9212412109375,-0.04738602055311203,-0.7448653771821409,1.4908670649178326
1772786386984257300,3.93125732421875,-0.04142331275641918,-0.7836538844555616,1.543152401819825
1772786386994273300,3.941273193359375,-0.03704524380266666,-0.6495529455889016,1.752878271317482
1772786387004289000,3.9512890625,-0.09817045137286186,-0.4903478144735098,1.9421112417541444
1772786387014305000,3.961304931640625,-0.26712475002110003,-0.2674734538609162,2.081742561414838
1772786387024321000,3.971321044921875,-0.44937750618159766,-0.04485744279040955,1.9809854545496404
1772786387034337300,3.981337158203125,-0.768044811913371,0.11691316403197125,1.5149755241274834
1772786387044353300,3.991353271484375,-0.9492197097092866,0.10774487426015547,0.7987857679400593
1772786387054369300,4.001369384765625,-1.0006401003450154,-0.12258373874798416,0.17058807386253028
1772786387064385300,4.01138525390625,-1.4175328025072813,-0.4381929355507716,-0.4320950935997069
1772786387074401000,4.021401123046875,-2.1245254720866678,-0.7571696360252798,-0.9459685989588499
1772786387084417000,4.0314169921875,-2.7494319791316983,-0.9589950345966964,-1.3207473757520318
1772786387094433000,4.04143310546875,-3.150047500231862,-0.8574630709014832,-1.4297915417082607
1772786387104449300,4.05144921875,-3.253617180299759,-0.09290284970086067,-1.0434881852075457
1772786387114465300,4.06146533203125,-2.9956349371552466,0.9070560999795794,-0.2822375634789467
1772786387124481300,4.071481201171875,-2.7226369111865756,1.4901070403307675,0.2514048375155777
1772786387134497300,4.081497314453125,-2.419149054408073,1.9162495091363787,0.4347278167234733
1772786387144513000,4.091512939453125,-2.0459844348132608,2.228526821570098,0.3549636673958972
1772786387154529000,4.101529052734375,-1.611021822953224,2.40511176122725,0.24959950512666254
1772786387164545300,4.111545166015625,-1.1698591874092816,2.3987962944701313,0.14768197617996484
1772786387174561300,4.121561279296875,-0.6565285567551851,2.2393859231062234,0.13044833464324473
1772786387184577300,4.131577392578125,-0.041105917370319364,2.170717168288678,0.18603797378763556
1772786387194593300,4.14159326171875,0.7365507724970579,1.7612926100499926,-0.07887582218572498
1772786387204609300,4.151609375,1.3534382237374782,1.255633975328505,-0.6895742095276713
1772786387214625000,4.161625,1.5788666892796754,1.1105839916199445,-1.3100158461183309
1772786387224641000,4.17164111328125,1.577446301087737,0.9140371910385787,-1.8331724358685313
1772786387234657300,4.1816572265625,1.1951456043571234,0.6851249750338494,-2.1365891271069644
1772786387244673300,4.19167333984375,0.8965928658932447,0.43956641586106265,-2.233613915576041
1772786387254688300,4.201688232421875,0.6153115802258253,0.13004824767606332,-2.11479581297189
1772786387264704300,4.211704345703125,0.17209668832719324,-0.21247776202168314,-1.964129158425331
1772786387274720300,4.22172021484375,-0.42585692986249923,-0.47581849999204273,-1.843408290939778
1772786387284736300,4.231736328125,-1.0159101501911878,-0.5641401228498667,-1.8250643866062164
1772786387294752000,4.241751953125,-1.3589140248000622,-0.6320423502743244,-1.9658580280445515
1772786387304768000,4.25176806640625,-1.3882891723662614,-0.6812265062905848,-2.013829301139712
1772786387314784300,4.2617841796875,-1.2628659724086522,-0.6670823917344212,-1.894565646725148
1772786387324800300,4.27180029296875,-0.7367290516734123,-0.6604547902882099,-1.5724042152673006
1772786387334816300,4.281816162109375,-0.07839841393232345,-0.5443651993324979,-1.2023196607049553
1772786387344832300,4.291832275390625,0.5240297193229199,-0.2868745938961394,-0.7513469212211668
1772786387354848300,4.30184814453125,0.9096312111645937,-0.01157298542652279,-0.31491701328754423
1772786387364864000,4.311864013671875,1.084413193053007,0.26123262324258684,0.010440291602164507
1772786387374880000,4.3218798828125,1.1757377240538596,0.409213107445091,0.18889212110973894
1772786387384896300,4.331896240234375,1.1963047112643719,0.46746162706781175,0.2312239635458216
1772786387394912300,4.341912353515625,1.308279231584072,0.45968708407618103,0.18570830344185232
1772786387404928300,4.35192822265625,1.4753753351449965,0.38446887108255173,0.0771990480799228
1772786387414944300,4.3619443359375,1.5489274780899285,0.24718356655873358,-0.08754705828875303
1772786387424960300,4.371960205078125,1.4412538698345423,0.037733920186571776,-0.19742610416654496
1772786387434976000,4.38197607421875,1.1894044303566216,-0.13078421553410588,-0.2989442219994962
1772786387444992000,4.391991943359375,1.0576216322392225,-0.21766393248792737,-0.4630252885881811
1772786387455008300,4.40200830078125,1.1564648683071135,-0.3249722876274958,-0.5890793337952345
1772786387465024300,4.412024169921875,1.2494283986866472,-0.4336845547482371,-0.6675272128924727
1772786387475040300,4.422040283203125,1.5140613318920135,-0.5237308459741994,-0.7950476043250412
1772786387485056300,4.43205615234375,1.7287515457987783,-0.6507867251675575,-0.8091501447618007
1772786387495072000,4.442072021484375,1.7235773580312728,-0.7102860120363533,-0.8301840918969362
1772786387505088000,4.452087890625,1.4692209041684865,-0.7495302271880209,-0.8217441803317517
1772786387515104300,4.462104248046875,1.031723220872879,-0.7613742481082677,-0.8209124787479638
1772786387525120300,4.472120361328125,0.5479968703657389,-0.8413058629572391,-0.863072581346333
1772786387535136300,4.48213623046875,0.3059387570619583,-1.012544619280845,-0.9660317283004521
1772786387545152300,4.49215234375,0.2640186006993055,-1.237946342946589,-1.0692862049393355
1772786387555168300,4.502168212890625,0.2598842773735523,-1.4486910340979695,-1.146967556643486
1772786387565184000,4.51218408203125,0.18731179311573504,-1.549201034334302,-1.2083843675713986
1772786387575200000,4.522199951171875,0.11776771676838398,-1.5480571249961852,-1.30119599532485
1772786387585216300,4.53221630859375,-0.003926233533024788,-1.522113120922446,-1.4198171140521765
1772786387595232300,4.542232177734375,-0.0029641105026006697,-1.4942045387774705,-1.4932535216629503
1772786387605247200,4.552247314453125,0.020420272216200828,-1.555804670383036,-1.507484583850205
1772786387615263200,4.56226318359375,0.021300562182068824,-1.291070907151699,-1.30029144770056
1772786387625279200,4.572279296875,-0.15044599753320217,-0.541594382912293,-0.7476449979633093
1772786387635295200,4.582295166015625,-0.33695524209439753,-0.18219945507068186,-0.2629227317539975
1772786387645311200,4.592311279296875,-0.499853309443593,-0.04247640200592577,-0.004792330576758832
1772786387655327000,4.602326904296875,-0.6252700796604156,0.11675996449794619,0.04588242932343855
1772786387665343200,4.61234326171875,-0.6486380957663059,0.11323906036280094,-0.13040564627898857
1772786387675359200,4.622359130859375,-0.5269441454648971,-0.10754515957012772,-0.395523531723395
1772786387685375200,4.632375244140625,-0.32714521121978757,-0.35553397809714077,-0.782916875417903
1772786387695391200,4.64239111328125,-0.12287526904046535,-0.6014258243449032,-1.1786752388104795
1772786387705407500,4.652407470703125,-0.025384616625308987,-0.6436936251014471,-1.5893142874054609
1772786387715423200,4.66242333984375,-0.04660802191793918,-0.6405127300430089,-2.0528040517002344
1772786387725439200,4.672439208984375,0.0017027122646570204,-0.72475285574086,-2.398923427981138
1772786387735455200,4.682455322265625,-0.18611819941699503,-0.6455903255682438,-2.4654846891254185
1772786387745471500,4.692471435546875,-0.7173240939795971,-0.23930311550721525,-2.2014158195436
1772786387755487500,4.702487548828125,-1.662777729153633,0.3256365602225065,-1.816931933555007
1772786387765503500,4.71250341796875,-2.5437755510300395,0.8495814508061855,-1.2448095067143439
1772786387775519500,4.72251953125,-2.881184382110834,1.1998070933621376,-0.43400337490644303
1772786387785535200,4.73253515625,-2.6882372134566306,1.2807076263085007,0.2575100955881178
1772786387795551200,4.74255126953125,-2.4202730900019405,1.0837389470532537,0.5141176528459415
1772786387805567500,4.7525673828125,-2.243102167150378,0.994807156407833,0.47738001368772237
1772786387815583500,4.76258349609375,-1.9671604889452456,1.1788891007568687,0.3695806966934353
1772786387825599500,4.772599609375,-1.6148849281221627,1.56813428286314,0.25058966694148255
1772786387835615500,4.782615478515625,-1.0628525186300277,1.7466165805742144,0.17607366566676647
1772786387845631500,4.792631591796875,-0.1460433786600828,0.9925816623780875,-0.264888661532104
1772786387855647200,4.802647216796875,0.35949265259504315,0.5164029507715254,-0.8267180962868035
1772786387865663200,4.812663330078125,0.5930658461481333,0.49587512652762233,-1.2278664090894162
1772786387875679500,4.822679443359375,0.5925654954105615,0.6077605803243815,-1.347790134847909
1772786387885695500,4.832695556640625,0.5461345836251974,0.7851403236210346,-1.13509401736781
1772786387895711500,4.84271142578125,0.6140320618093014,0.9769685712479055,-0.7981281808141618
1772786387905727500,4.8527275390625,0.8143179027885198,1.184418385572359,-0.4696012329123914
1772786387915743200,4.8627431640625,1.032575453788042,1.416039056818187,-0.11136829805485904
1772786387925759200,4.87275927734375,1.2576912001192568,1.6166545681431888,0.280164154738374
1772786387935775200,4.882775146484375,1.6045681167691945,1.7461670832410454,0.6452933153830468
1772786387945791500,4.89279150390625,1.9475597164183853,1.8101599552020429,1.0016149367265403
1772786387955806500,4.902806396484375,2.082183875441551,1.7736321594022213,1.2776134596854447
1772786387965822500,4.912822509765625,2.019161894339323,1.6276929717689752,1.4445781919516623
1772786387975838500,4.92283837890625,2.00344526976943,1.5102625241309404,1.5782975110895932
1772786387985854500,4.9328544921875,2.0072101752609015,1.4528925774410366,1.6543828257739543
1772786387995870500,4.942870361328125,1.9195476738989352,1.4768950920581816,1.6737220247551798
1772786388005886200,4.95288623046875,1.7456588414579628,1.5317597779288887,1.6650152789473533
1772786388015902200,4.962902099609375,1.5207412480473517,1.6064042461551724,1.601799821099639
1772786388025918500,4.97291845703125,1.3290923025101422,1.6048000258289277,1.4868075603939592
1772786388035934500,4.9829345703125,1.0422966373354197,1.4536451493740081,1.350075030914694
1772786388045950500,4.992950439453125,0.7489023045480251,1.1876778988249599,1.1398776714477687
1772786388055966500,5.002966552734375,0.4500269100010395,0.8252928127240389,0.8055777661677449
1772786388065982500,5.012982421875,-0.010433715730905532,0.4069056707529351,0.3775238011850044
1772786388075998200,5.022998291015625,-0.572251021656394,0.01568657649150118,-0.09428495170902461
1772786388086014500,5.033014404296875,-0.9512976850271224,-0.4258677800500765,-0.6014176410384476
1772786388096030500,5.043030517578125,-1.0749211420863867,-0.8876051111869514,-1.0565894396472721
1772786388106046500,5.05304638671875,-1.0187579408377407,-1.0438035347670316,-1.2874037629462778
1772786388116062500,5.0630625,-0.6014589959621429,-1.0337705087915063,-1.2334984236270188
1772786388126078500,5.073078369140625,-0.047125908312201495,-1.0142419247180223,-0.8461932696726173
1772786388136094200,5.08309423828125,0.25967384949326516,-0.8512668466098606,-0.32220264025107026
1772786388146110200,5.093110107421875,0.36591421007513997,-0.6754710115037859,0.0689103450210765
1772786388156126500,5.10312646484375,0.38569384630024434,-0.5955849528295919,0.2547762319111265
1772786388166142500,5.113142578125,0.3749485804021358,-0.544915197898075,0.3105138829577714
1772786388176158500,5.123158447265625,0.40192660369873046,-0.5320531590417027,0.4096155507661402
1772786388186174500,5.133174560546875,0.5094090732961892,-0.5044812249725684,0.5397177388528361
1772786388196190500,5.1431904296875,0.6183931796282529,-0.4877558252189308,0.5634035522036254
1772786388206206200,5.153206298828125,0.788448132994771,-0.4839046296834945,0.4845599517870694
1772786388216222200,5.16322216796875,0.9357716145932674,-0.48359622132144864,0.3545551961928606
1772786388226238500,5.173238525390625,0.8855518319189548,-0.48627092042341824,0.22482343058744444
1772786388236254500,5.18325439453125,0.714506113949418,-0.5875763818863778,0.11731346106170676
1772786388246270500,5.1932705078125,0.4560205974578857,-0.7439765385836362,-0.001583725527487695
1772786388256286500,5.203286376953125,0.09040098641514778,-0.9459810200490056,-0.20554405376836657
1772786388266302500,5.213302490234375,-0.2014127991825342,-1.050537592262402,-0.4258144058950245
1772786388276318200,5.223318115234375,-0.3154834149986505,-1.102827166948095,-0.6503697418645024
1772786388286334200,5.233334228515625,-0.35645255424678324,-1.1655357712522147,-0.8509728320993483
1772786388296350500,5.2433505859375,-0.23950550621151923,-1.26249713909626,-0.947934419139102
1772786388306366500,5.253366455078125,-0.17366729864478112,-1.2590715485617519,-0.9836956875458359
1772786388316381400,5.26338134765625,-0.1689700807392597,-1.2096703887939453,-0.96145484883897
1772786388326397400,5.2733974609375,-0.1257616381317377,-1.197168050095439,-0.7879623953044415
1772786388336413400,5.283413330078125,-0.19187223289906977,-1.089636334528774,-0.48625535752810534
1772786388346429400,5.293429443359375,-0.34515316159725185,-0.8608582662977278,-0.16519565850077195
1772786388356445400,5.303445556640625,-0.46449850294589995,-0.6185599144972861,0.14769865332012996
1772786388366461200,5.313461181640625,-0.4811702362835407,-0.39796186478622253,0.39795291429478674
1772786388376477400,5.3234775390625,-0.35192134055793284,-0.19864947194904087,0.6337392903853207
1772786388386493400,5.333493408203125,-0.1867167498320341,-0.0074593030299991364,0.7342158267434686
1772786388396509400,5.343509521484375,0.18812135593295096,-0.19113880405798553,0.5451472896208986
1772786388406525400,5.353525390625,0.547394228297472,-1.251118543730676,-0.22957312759887424
1772786388416541400,5.36354150390625,0.6466600736916065,-1.6831497783139346,-0.8952185088001191
1772786388426557200,5.37355712890625,0.30965748532414433,-1.816072101855278,-1.3898694272950292
1772786388436573400,5.383573486328125,-0.30636721160709857,-1.9992346663370728,-1.6995650526724755
1772786388446589400,5.39358935546875,-0.8031389216482638,-2.1504175998426973,-1.7572399736583233
1772786388456605400,5.40360546875,-1.2145283502191304,-2.1839662337012586,-1.6866382049515842
1772786388466621400,5.413621337890625,-1.2746803288429975,-2.0827698586359618,-1.3671132594771682
1772786388476637400,5.423637451171875,-1.121866433134675,-1.730551873219013,-0.9373638522207737
1772786388486653400,5.4336533203125,-1.1251818412929773,-1.38732178863883,-0.7790555238146334
1772786388496669200,5.443669189453125,-1.0639011509001255,-0.9630467942055314,-0.5136393678097054
1772786388506685400,5.453685546875,-1.1097405265331268,-0.5024789817720652,-0.20088651028610766
1772786388516701400,5.463701416015625,-1.4155547804325819,-0.3401101989939809,-0.14584504307638854
1772786388526717400,5.473717529296875,-1.825025808161497,-0.1299026103939861,-0.05141794295031577
1772786388536733400,5.4837333984375,-2.200156174871325,0.019434622179716823,0.20155191539227962
1772786388546749400,5.49374951171875,-2.522220721825957,0.19062289042510092,0.6277197378348559
1772786388556765400,5.503765380859375,-2.9676655647337435,0.7078291934687644,1.19515897529535
1772786388566781200,5.51378125,-3.178915282797813,1.9404804256819188,2.193272698967904
1772786388576797400,5.52379736328125,-2.994072510144114,2.7067975370198485,2.8251550363749263
1772786388586813400,5.5338134765625,-2.332238832718134,2.9657968482524155,3.032462446554005
1772786388596829400,5.543829345703125,-1.0601882678568362,2.9080566069453955,2.9658520855709907
1772786388606845400,5.553845458984375,0.17297113307416437,2.674678935964405,2.5107559094816443
1772786388616861400,5.563861328125,0.96420802000463,2.361976091594994,1.7847234622590242
1772786388626877200,5.573877197265625,1.460937644469738,2.0882382070444523,0.9037589581303298
1772786388636893400,5.5838935546875,1.7473598001569508,1.854698185108602,-0.10205408787317573
1772786388646909400,5.593909423828125,1.7995377311617136,1.5209931769818066,-1.187192380330339
1772786388656925400,5.603925537109375,1.5269073694616555,1.1256436135858296,-2.1663315005503594
1772786388666941400,5.61394140625,1.2658423578709364,0.638509573527053,-2.9653099415183064
1772786388676956400,5.623956298828125,1.0434235955387354,0.09666612949082627,-3.4680876139760017
1772786388686972400,5.633972412109375,0.6286006853878497,-0.3098256814979017,-3.72035089495182
1772786388696988400,5.643988525390625,0.11774141328334807,-0.5233781966116279,-3.6737095552861687
1772786388707004700,5.654004638671875,-0.3577145370066166,-0.6889043474420905,-3.335619463942945
1772786388717021000,5.66402099609375,-0.860899621221423,-0.7706872892461717,-2.745116746281087
1772786388727037000,5.674036865234375,-1.532311274331808,-0.5515438953228294,-1.9924192872337996
1772786388737053000,5.684052978515625,-1.9116320784687995,-0.03680098671801388,-1.211971578408405
1772786388747069000,5.69406884765625,-1.8507634760081766,0.436180170956254,-0.42714243962839243
1772786388757085000,5.7040849609375,-1.4040747705191372,0.6794289553493261,0.16640105223516002
1772786388767101000,5.714100830078125,-0.7313274848908186,0.8229754026271402,0.5403780659250915
1772786388777116700,5.72411669921875,0.009166472274065017,0.8866372890681028,0.7197986673995852
1772786388787133000,5.7341328125,0.8648989199906587,0.9666087975360452,0.8305227492667734
1772786388797149000,5.74414892578125,1.5644132165133953,0.9085592710841447,0.8438662880297749
1772786388807165000,5.7541650390625,1.919654641404748,0.7356329269997776,0.6815165022131056
1772786388817181000,5.764180908203125,2.0005887112945318,0.5129805385747924,0.3399391532760113
1772786388827197000,5.774197021484375,1.8260633345156907,0.25591913660224525,-0.11976837079999968
1772786388837213000,5.784212890625,1.6871762573510407,-0.021889388070825952,-0.6696842447958886
1772786388847229000,5.79422900390625,1.6722002220153807,-0.3905879750173539,-1.2221484698340297
1772786388857245000,5.804244873046875,1.6266554454147815,-0.7361858116421848,-1.6382399386160074
1772786388867261000,5.814260986328125,1.601827293628454,-1.0414011498004196,-1.8629478347986936
1772786388877277000,5.82427685546875,1.695904338207841,-1.3456332490749656,-2.0296989243142307
1772786388887293000,5.83429296875,1.7082009252011774,-1.5875518077775834,-2.0489051445655524
1772786388897309000,5.844308837890625,1.6390917331397532,-1.6984456932537257,-1.9329063371658324
1772786388907324700,5.85432470703125,1.4845605121195316,-1.7162576826676725,-1.698272528643906
1772786388917341000,5.8643408203125,1.3073878357023,-1.6695168281503021,-1.349222505738586
1772786388927357000,5.87435693359375,1.1441758800983428,-1.6016352781876921,-0.9802806184053421
1772786388937373000,5.884373046875,1.0674112048476934,-1.5609291737899182,-0.6991363300558179
1772786388947389000,5.894388916015625,1.136439148366451,-1.4975895050406456,-0.4543254109125584
1772786388957405000,5.904405029296875,1.2151619719475506,-1.456894214297831,-0.21411266974713652
1772786388967421000,5.9144208984375,1.2172083830833433,-1.4414064300477505,-0.05868139461465179
1772786388977436700,5.924436767578125,1.1620575737476349,-1.4657678411051631,-0.026606048179045317
1772786388987453000,5.934452880859375,0.9775684368371963,-1.4727723130397499,-0.09965484471172094
1772786388997469000,5.944468994140625,0.6414736109644175,-1.0912770874731241,-0.08562975342534482
1772786389007485000,5.95448486328125,0.6141635792344808,-1.3345559747435152,-0.27333390685953196
1772786389017501000,5.9645009765625,0.6314362010747194,-1.6147114712513981,-0.5062615690506994
1772786389027517000,5.974516845703125,0.3707546358436346,-1.2384041697166859,-0.5620777104273438
1772786389037533000,5.984532958984375,0.15699848791658877,-0.6373542660120874,-0.48378735997937616
1772786389047549000,5.994548828125,0.15863456468582152,-0.398072558619082,-0.5669500657040626
1772786389057564000,6.00456396484375,0.2506348029911518,-0.4656222097462043,-0.7257673665456473
1772786389067580000,6.014579833984375,0.2904272996753454,-0.6258595699861645,-1.076173772495985
1772786389077596000,6.024595947265625,0.4374345549315214,-0.878273219218105,-1.490090965978801
1772786389087612000,6.03461181640625,0.5307587353169918,-1.3386428056657314,-1.9345403681084512
1772786389097628000,6.0446279296875,0.09801438402831554,-1.6124955487675965,-2.3593201702587305
1772786389107644000,6.054643798828125,-0.5254074374169111,-1.2933410440407693,-2.508741062527895
1772786389117660000,6.064659912109375,-1.282243457573652,-0.14352277414128184,-2.1693429573260246
1772786389127676000,6.074676025390625,-1.7525211284428834,0.8602206259813159,-1.0751190027460455
1772786389137692000,6.08469189453125,-2.565619718569517,1.3517799351364372,0.4807818945530802
1772786389147708000,6.0947080078125,-3.3541789107233284,1.85538719028607,2.2626892034128305
1772786389157724000,6.104723876953125,-3.73469272403717,2.3016104702204463,3.431541844128072
1772786389167740000,6.114739990234375,-3.817967804095149,2.6029183526113626,3.750487674540281
1772786389177756000,6.124755859375,-3.9643917065054177,2.5591867629125713,3.4216789140224453
1772786389187772000,6.13477197265625,-3.8182296699017284,1.8555434037610887,2.4803227772951124
1772786389197788000,6.144787841796875,-3.422357543936372,0.5783753862882033,0.7875543990254402
1772786389207804000,6.154803955078125,-2.345140399867296,-0.2132821372071281,-0.6640056877028196
1772786389217820000,6.16481982421875,-0.9286515534549951,-0.4246085737692192,-1.1350383416578174
1772786389227836000,6.1748359375,0.12094108610749243,-0.3016953473385423,-1.0297169956170023
1772786389237852000,6.184851806640625,0.8034510563373565,0.18023221011832355,-0.4846825552534312
1772786389247868000,6.194867919921875,1.2672411187529564,0.7047877068810164,0.15027335351319052
1772786389257884000,6.2048837890625,1.5466566105484962,1.0108660916093737,0.44104817885141817
1772786389267900000,6.21489990234375,1.9355092131406069,1.120302398688346,0.5132700230406597
1772786389277916000,6.224916015625,2.4322470209121705,1.203496522464603,0.6686036099523306
1772786389287932000,6.234931884765625,2.7099498635709285,1.3629235527023673,0.9257927299577742
1772786389297948000,6.244947998046875,2.537679572242498,1.4538967860475183,1.1869198469992726
1772786389307964000,6.2549638671875,2.3704554583877324,1.4300586682118475,1.6560998588249087
1772786389317980000,6.26497998046875,1.8601450523376464,1.4621956817068158,2.008041073127091
1772786389327996000,6.274995849609375,1.4170020566314458,1.5604256081819534,2.119782369212806
1772786389338012000,6.285011962890625,1.2367816830813885,1.5090502257317304,2.2016772469587624
1772786389348028000,6.29502783203125,1.386467802157998,1.0941549809969962,2.2276766344815493
1772786389358044000,6.3050439453125,1.4258482109099626,0.7997646229095756,2.2641041847772896
1772786389368060000,6.315059814453125,1.3929630093961953,0.6865079538248479,2.2523851054109634
1772786389378076000,6.325075927734375,1.1185901879429816,0.6916469241484999,2.2607854156181215
1772786389388092000,6.335091796875,0.25188217270374297,0.9390629112236201,2.3006788884587586
1772786389398108000,6.34510791015625,-0.7374760706484317,1.3240604458227754,2.1593948331549764
1772786389408124000,6.3551240234375,-1.6982535316824912,1.5886802272856235,1.874748454968631
1772786389418139000,6.365138916015625,-2.0350655659139156,1.6588187623947859,1.5963668362654744
1772786389428155000,6.37515478515625,-1.6594266651600598,1.5918331383585929,1.5030255586147308
1772786389438171000,6.3851708984375,-0.6992033308774233,0.9836060365010052,1.2772972333431243
1772786389448187000,6.395186767578125,0.17116379139125346,-0.16262926034517586,0.6603329905394464
1772786389458203000,6.405202880859375,0.7974328189611435,-0.7617803446911275,0.04594074908166658
1772786389468219000,6.415218994140625,1.1954916413158179,-0.9820329419653863,-0.4795495397465303
1772786389478235000,6.42523486328125,1.2379700160831213,-1.1675399506814776,-0.7552241279806942
1772786389488251000,6.4352509765625,0.9297709128737449,-1.2875009397104382,-0.7574154274798929
1772786389498267000,6.445266845703125,0.34237902070879933,-1.098639944391325,-0.7214720074392855
1772786389508283000,6.455282958984375,-0.17533552411794662,-0.9390317123677581,-0.7792921090494841
1772786389518299000,6.465298828125,-0.3893576295047998,-0.834321703158319,-0.8055304198946803
1772786389528315000,6.47531494140625,-0.3549117545455694,-0.8511221043769269,-0.7306018740300089
1772786389538331000,6.485330810546875,-0.16280688193440437,-0.8760050550904125,-0.5206188514335081
1772786389548347000,6.495346923828125,0.13379939863681792,-0.8083913622837513,-0.2934023699633777
1772786389558363000,6.50536279296875,0.42020401866734025,-0.7199290157809853,-0.03000339899975806
1772786389568379000,6.51537890625,0.3937105640172958,-0.5814537342876196,0.12143546376200393
1772786389578395000,6.525394775390625,0.28378479292094705,-0.28387583220526574,0.47243477583788335
1772786389588411000,6.535410888671875,-0.2369540681630373,-0.34115305911041793,1.2341839216731487
1772786389598427000,6.545427001953125,-0.4568623089790344,-0.20132818963900206,1.4406633565954863
1772786389608443000,6.55544287109375,-0.37846447956860063,0.06616466304212808,1.4595983586899934
1772786389618459000,6.565458984375,-0.055825347596406935,0.32038192762993273,1.3879425508856773
1772786389628475000,6.575474853515625,0.3468465215116739,0.45393144315890965,1.2423369791209697
1772786389638491000,6.585490966796875,0.5727326676934957,0.5535390146628022,1.0570827761221677
1772786389648507000,6.5955068359375,0.7191717676728964,0.7949279234681278,0.6984110114559531
1772786389658523000,6.60552294921875,0.8383329846262931,0.6911345176469534,1.00549923081398
1772786389668539000,6.615538818359375,0.14343874911963939,0.2149064139407128,1.620766679637134
1772786389678555000,6.625554931640625,-0.11300386336743831,0.3354039209991693,1.036027347807586
1772786389688571000,6.63557080078125,0.05769114146828651,0.5703276523783802,0.4733531327918172
1772786389698587000,6.6455869140625,-0.15048048432469366,0.6836319599971175,0.44469818925894794
1772786389708602600,6.6556025390625,-0.4590840766817331,1.119258807919547,0.3750119279619306
1772786389718618600,6.66561865234375,-0.7711579754978418,0.9275808554835617,1.0597943001031875
1772786389728634600,6.675634521484375,-0.747882313850522,0.9575019464947283,1.1800320602469145
1772786389738650600,6.685650634765625,-0.6200912157177925,0.9259063464000821,1.1659523161638528
1772786389748666600,6.69566650390625,-0.6371136621892451,0.8084393661439419,1.1216288980517535
1772786389758682400,6.705682373046875,-0.6645476125597953,0.6547583322122693,0.7578231314979493
1772786389768698400,6.715698486328125,-0.6572060176253318,0.6361427713304758,0.3884290434177965
1772786389778714600,6.725714599609375,-0.7209305940389633,0.6180693545013666,-0.0910903569187969
1772786389788730600,6.735730712890625,-1.0381167213022708,0.620208193160966,-0.6435563355226069
1772786389798745600,6.74574560546875,-1.0403443342238663,0.24363336326386778,-0.23541969820261
1772786389808761600,6.75576171875,-0.4190215308845043,0.4369704445511102,-0.3479840741742402
1772786389818777600,6.765777587890625,-0.1510205825507641,0.7636473076067865,-0.4679614298161119
1772786389828793600,6.775793701171875,0.12397709280252456,0.3054037551361136,0.12464279016964137
1772786389838809600,6.7858095703125,0.685637746861577,0.37001251223944126,0.42172896321229636
1772786389848825300,6.795825439453125,0.5560287856519222,0.26568821441195906,0.5291102374576032
1772786389858841600,6.805841552734375,0.21805998260080814,0.3955546575140208,-0.0007262684479355812
1772786389868857600,6.815857666015625,-0.03421089715957641,0.6473131307728588,-0.38846762186251577
1772786389878873600,6.82587353515625,-0.0744184043854475,0.9161551330406218,-0.043430268664658066
1772786389888889600,6.8358896484375,0.08782090679407119,0.9743517398130148,0.23027122939825057
1772786389898905600,6.845905517578125,0.1796533873170614,0.9931414882179349,0.35399595487490293
1772786389908921600,6.855921630859375,0.12918342927396298,1.1728497475273907,0.30566768503561614
1772786389918937300,6.865937255859375,-0.19810089815557003,1.2409038775779306,0.10245923460796474
1772786389928953600,6.87595361328125,-0.6294014803767204,1.1165298944123088,-0.15207023773416875
1772786389938969600,6.885969482421875,-1.0475193404197691,0.9164517048344015,-0.49320802621021864
1772786389948985600,6.895985595703125,-1.2887398338556288,0.5869277087192982,-0.8619979378521442
1772786389959001600,6.906001708984375,-1.1484826373815535,0.2653817970775999,-1.2055590079523621
1772786389969017600,6.916017578125,-0.7936480397254229,0.043787667267583305,-1.3736828471258282
1772786389979033300,6.926033447265625,-0.3399859880924225,-0.19824216978978365,-1.330432757333666
1772786389989049600,6.936049560546875,0.10768062251806258,-0.25920909979203716,-1.144424082705751
1772786389999065600,6.946065673828125,0.6051736325711011,0.1283547598974779,-0.8863293190974741
1772786390009081600,6.95608154296875,0.8279249878585339,0.48821792630534616,-0.5707248350024223
1772786390019097600,6.96609765625,0.8572726628959179,0.49237500945217905,-0.6535236758507788
1772786390029113600,6.976113525390625,0.7086223166078328,0.5406649200424551,-0.9972232776388525
1772786390039129600,6.986129638671875,0.1625602136969566,0.489895284933038,-1.1737940426401794
1772786390049145300,6.996145263671875,-0.45163609876334665,0.3073483681315556,-1.370738318106532
1772786390059161600,7.00616162109375,-0.5193137967169285,0.26086786331711337,-1.1169942970536648
1772786390069177600,7.016177490234375,-0.17880290796756743,0.5221507006432861,-0.8503813690122216
1772786390079193600,7.026193603515625,0.4555845441281795,0.6808782043095678,-0.559073706305772
1772786390089209600,7.036209716796875,1.0544137761086225,0.6759088183991611,-0.23065781756304204
1772786390099225600,7.0462255859375,1.3933505474090575,0.6388977691270411,-0.15510748653821646
1772786390109241600,7.05624169921875,1.4215660035461186,0.6154627521995455,-0.15355879579149187
