time,seconds_elapsed,z,y,x
1772786383118093300,0.06509326171875,0.7580708861351013,0.22332148253917694,0.18559007346630096
1772786383128109300,0.075109375,0.7600607872009277,0.37675097584724426,0.07487954199314117
1772786383138125000,0.085125,0.6720235347747803,0.3745460510253906,-0.09343655407428741
1772786383148141300,0.095141357421875,0.553918182849884,0.28605717420578003,-0.1701401323080063
1772786383158157300,0.1051572265625,0.4922822415828705,0.20935149490833282,-0.12947428226470947
1772786383168173300,0.11517333984375,0.5115994811058044,0.1390371173620224,-0.006612010300159454
1772786383178189300,0.125189208984375,0.5659669041633606,0.1566145122051239,0.18295934796333313
1772786383188205300,0.135205322265625,0.5671557188034058,0.20486299693584442,0.3763309419155121
1772786383198221300,0.14522119140625,0.5012115836143494,0.33825942873954773,0.5166654586791992
1772786383208237000,0.155237060546875,0.30867087841033936,0.5268780589103699,0.55083167552948
1772786383218253300,0.16525341796875,-0.04759195074439049,0.5774550437927246,0.43238455057144165
1772786383228269300,0.175269287109375,-0.4400492310523987,0.5705388188362122,0.22819334268569946
1772786383238285300,0.185285400390625,-0.7190355062484741,0.5733822584152222,0.07422149181365967
1772786383248301300,0.19530126953125,-0.8718351721763611,0.5706743597984314,0.008346336893737316
1772786383258317300,0.2053173828125,-0.913348913192749,0.6100426912307739,0.04140063747763634
1772786383268333300,0.215333251953125,-0.8874345421791077,0.6704711318016052,0.15478497743606567
1772786383278349000,0.22534912109375,-0.8509450554847717,0.753045380115509,0.2722260057926178
1772786383288365300,0.235365234375,-0.8778070211410522,0.7578838467597961,0.31638896465301514
1772786383298381300,0.24538134765625,-0.938188374042511,0.6268017292022705,0.28560811281204224
1772786383308397300,0.255397216796875,-0.945366382598877,0.4552725553512573,0.21928925812244415
1772786383318413300,0.265413330078125,-0.8731815814971924,0.26088154315948486,0.17649750411510468
1772786383328429300,0.27542919921875,-0.7324082255363464,0.09633148461580276,0.16109324991703033
1772786383338445300,0.2854453125,-0.5534074902534485,-0.04155781492590904,0.14275452494621277
1772786383348461000,0.2954609375,-0.39415204524993896,-0.0870605856180191,0.12953698635101318
1772786383358477300,0.305477294921875,-0.2906920611858368,-0.12258963286876678,0.10656929016113281
1772786383368493300,0.315493408203125,-0.22358199954032898,-0.18849381804466248,0.06728846579790115
1772786383378509300,0.32550927734375,-0.16602438688278198,-0.2054360955953598,0.010024208575487137
1772786383388525300,0.335525390625,-0.11809361726045609,-0.1780335009098053,-0.06607881933450699
1772786383398541300,0.345541259765625,-0.07886400073766708,-0.13140006363391876,-0.16116690635681152
1772786383408557000,0.35555712890625,-0.0480770617723465,-0.09592834115028381,-0.2717876732349396
1772786383418573300,0.3655732421875,-0.03210917487740517,-0.11254481226205826,-0.3689740002155304
1772786383428588000,0.375588134765625,-0.028228148818016052,-0.18000081181526184,-0.42148780822753906
1772786383438604300,0.385604248046875,-0.014682079665362835,-0.1918485313653946,-0.40209323167800903
1772786383448620300,0.395620361328125,-0.00957413762807846,-0.17648236453533173,-0.3301311433315277
1772786383458636300,0.40563623046875,-0.036498166620731354,-0.18250800669193268,-0.2318180352449417
1772786383468652300,0.41565234375,-0.08262624591588974,-0.18715228140354156,-0.12879817187786102
1772786383478668300,0.425668212890625,-0.14825168251991272,-0.1577143371105194,-0.037544358521699905
1772786383488684300,0.435684326171875,-0.22269955277442932,-0.13568440079689026,0.046273309737443924
1772786383498700300,0.4457001953125,-0.2995035648345947,-0.19660735130310059,0.09162604808807373
1772786383508716300,0.45571630859375,-0.3734145164489746,-0.3178139328956604,0.10797785967588425
1772786383518732300,0.465732177734375,-0.4196987450122833,-0.4540048837661743,0.14493410289287567
1772786383528748300,0.475748291015625,-0.43607398867607117,-0.5783916115760803,0.22609420120716095
1772786383538764300,0.485764404296875,-0.4481430649757385,-0.7381207942962646,0.3433539867401123
1772786383548780300,0.4957802734375,-0.47717711329460144,-0.9236094355583191,0.47813549637794495
1772786383558796300,0.50579638671875,-0.5079044103622437,-1.08625328540802,0.6198059320449829
1772786383568812300,0.515812255859375,-0.511002779006958,-1.2150884866714478,0.7390100955963135
1772786383578828300,0.525828369140625,-0.4570894241333008,-1.2652474641799927,0.8257981538772583
1772786383588844300,0.53584423828125,-0.3702565133571625,-1.1667430400848389,0.8815959095954895
1772786383598860300,0.5458603515625,-0.332664430141449,-0.9316803216934204,0.905218780040741
1772786383608876300,0.555876220703125,-0.3849729001522064,-0.5781422257423401,0.8092203736305237
1772786383618892300,0.565892333984375,-0.42575180530548096,-0.1690983772277832,0.5276132822036743
1772786383628908000,0.575907958984375,-0.3234859108924866,0.1881183385848999,0.20502272248268127
1772786383638924300,0.58592431640625,-0.13790662586688995,0.39853373169898987,0.005018017720431089
1772786383648940300,0.595940185546875,0.006185036152601242,0.37942928075790405,-0.009646679274737835
1772786383658956300,0.605956298828125,0.09116973727941513,0.3403465151786804,0.0819280743598938
1772786383668972300,0.61597216796875,0.05351264029741287,0.31367310881614685,0.22045212984085083
1772786383678988300,0.62598828125,-0.10475516319274902,0.33260971307754517,0.3496716618537903
1772786383689004300,0.63600439453125,-0.32797732949256897,0.4021435081958771,0.39147263765335083
1772786383699020800,0.646020751953125,-0.557256281375885,0.5196720957756042,0.2903061509132385
1772786383709036800,0.656036865234375,-0.7570841908454895,0.6439652442932129,0.09887228161096573
1772786383719052800,0.666052734375,-0.8918169736862183,0.7303129434585571,-0.07440309226512909
1772786383729068800,0.67606884765625,-0.9594721794128418,0.741982638835907,-0.16296304762363434
1772786383739084800,0.686084716796875,-0.9635181427001953,0.6685559749603271,-0.17156805098056793
1772786383749100800,0.696100830078125,-0.9331640005111694,0.546180248260498,-0.13219960033893585
1772786383759115800,0.70611572265625,-0.8917611241340637,0.39175036549568176,-0.09917405247688293
1772786383769131800,0.7161318359375,-0.8298519253730774,0.21635884046554565,-0.07980914413928986
1772786383779147800,0.726147705078125,-0.7509984970092773,-0.00018599163740873337,-0.027891064062714577
1772786383789163800,0.736163818359375,-0.6830428838729858,-0.10760539025068283,0.06790390610694885
1772786383799179800,0.7461796875,-0.639034628868103,-0.20633110404014587,0.14652003347873688
1772786383809195800,0.75619580078125,-0.6231435537338257,-0.2614454925060272,0.1522844433784485
1772786383819211800,0.766211669921875,-0.6288091540336609,-0.2252291589975357,0.08578744530677795
1772786383829228000,0.77622802734375,-0.6388042569160461,-0.12142926454544067,-0.027783852070569992
1772786383839243800,0.786243896484375,-0.642474353313446,0.03479999676346779,-0.1585894078016281
1772786383849259800,0.796259765625,-0.6255174875259399,0.19905072450637817,-0.2852858304977417
1772786383859275800,0.80627587890625,-0.6037329435348511,0.313437283039093,-0.41588670015335083
1772786383869291800,0.816291748046875,-0.5862271785736084,0.39321792125701904,-0.5391908288002014
1772786383879307800,0.826307861328125,-0.5589097142219543,0.4011058509349823,-0.6160719990730286
1772786383889323800,0.83632373046875,-0.5325731635093689,0.3935909569263458,-0.6486635208129883
1772786383899340000,0.846340087890625,-0.5241363048553467,0.3757237195968628,-0.6521770358085632
1772786383909355800,0.856355712890625,-0.5307079553604126,0.32624006271362305,-0.6317726969718933
1772786383919371800,0.866371826171875,-0.5465980172157288,0.24826931953430176,-0.5812125205993652
1772786383929387800,0.8763876953125,-0.5652790665626526,0.2077690213918686,-0.5053438544273376
1772786383939403800,0.88640380859375,-0.5858960151672363,0.18837575614452362,-0.44226008653640747
1772786383949419800,0.896419677734375,-0.6092740893363953,0.17767705023288727,-0.4108060300350189
1772786383959435800,0.906435791015625,-0.6317248344421387,0.1734209954738617,-0.40374433994293213
1772786383969452000,0.9164521484375,-0.655388355255127,0.18928490579128265,-0.3997839391231537
1772786383979467800,0.9264677734375,-0.6782386898994446,0.22697153687477112,-0.3806757628917694
1772786383989483800,0.93648388671875,-0.7017163634300232,0.27764296531677246,-0.35698986053466797
1772786383999499800,0.946499755859375,-0.7190239429473877,0.3074377477169037,-0.34365949034690857
1772786384009515800,0.956515869140625,-0.7419201731681824,0.31731700897216797,-0.33817577362060547
1772786384019531800,0.96653173828125,-0.7835205793380737,0.32785385847091675,-0.3471497893333435
1772786384029547800,0.9765478515625,-0.8271732330322266,0.3481908440589905,-0.36736398935317993
1772786384039563800,0.986563720703125,-0.8545330762863159,0.3782244920730591,-0.38194286823272705
1772786384049579800,0.996579833984375,-0.8707858324050903,0.4006166160106659,-0.38876375555992126
1772786384059595800,1.006595703125,-0.8735650777816772,0.3802996873855591,-0.38390278816223145
1772786384069611800,1.01661181640625,-0.855269730091095,0.35720768570899963,-0.3719838261604309
1772786384079626800,1.026626708984375,-0.8086941838264465,0.3228224217891693,-0.3468966484069824
1772786384089642800,1.036642822265625,-0.7387611865997314,0.2514379918575287,-0.3114885687828064
1772786384099658800,1.04665869140625,-0.657402515411377,0.16848112642765045,-0.27490949630737305
1772786384109674800,1.0566748046875,-0.5852055549621582,0.08222666382789612,-0.2626453936100006
1772786384119691000,1.06669091796875,-0.5454985499382019,0.016504164785146713,-0.26307183504104614
1772786384129706800,1.076706787109375,-0.5297600626945496,-0.013504602015018463,-0.27145281434059143
1772786384139722800,1.08672265625,-0.5412139892578125,-0.02502264827489853,-0.287380576133728
1772786384149738800,1.09673876953125,-0.5733360052108765,-0.01955411396920681,-0.2975996732711792
1772786384159754800,1.106754638671875,-0.6260946393013,-0.01695357821881771,-0.30498006939888
1772786384169770800,1.116770751953125,-0.6859699487686157,-0.043751105666160583,-0.2984553277492523
1772786384179787000,1.126787109375,-0.7323678731918335,-0.0721764862537384,-0.2606421411037445
1772786384189803000,1.136802978515625,-0.7666794657707214,-0.08457084000110626,-0.18333964049816132
1772786384199818800,1.14681884765625,-0.7900299429893494,-0.10507809370756149,-0.08229946345090866
1772786384209834800,1.156834716796875,-0.8089370727539062,-0.15025994181632996,0.004419983830302954
1772786384219850800,1.166850830078125,-0.8321216702461243,-0.18402883410453796,0.05676717683672905
1772786384229866800,1.17686669921875,-0.8506322503089905,-0.21644829213619232,0.07370541244745255
1772786384239882800,1.1868828125,-0.866368293762207,-0.25691327452659607,0.07685043662786484
1772786384249899000,1.19689892578125,-0.8815123438835144,-0.3379170298576355,0.08717231452465057
1772786384259914800,1.206914794921875,-0.8976326584815979,-0.41890740394592285,0.1414612978696823
1772786384269930800,1.2169306640625,-0.9082546830177307,-0.4896279275417328,0.2148955762386322
1772786384279946800,1.22694677734375,-0.8760243654251099,-0.5256454348564148,0.2858561873435974
1772786384289962800,1.236962646484375,-0.8026105761528015,-0.5167840719223022,0.32465100288391113
1772786384299978800,1.246978759765625,-0.7447627782821655,-0.4660893976688385,0.29484134912490845
1772786384309994800,1.256994873046875,-0.7283840775489807,-0.35906466841697693,0.21070623397827148
1772786384320011000,1.267010986328125,-0.7376600503921509,-0.11659464985132217,0.13203668594360352
1772786384330026800,1.27702685546875,-0.7322977781295776,0.18091453611850739,0.1303626298904419
1772786384340042800,1.287042724609375,-0.6821061968803406,0.44157978892326355,0.2010585218667984
1772786384350058800,1.297058837890625,-0.5858616828918457,0.5314614772796631,0.3049106001853943
1772786384360074800,1.30707470703125,-0.45825889706611633,0.4870063066482544,0.40323352813720703
1772786384370089700,1.31708984375,-0.30791786313056946,0.3876349627971649,0.47877275943756104
1772786384380105700,1.327105712890625,-0.11792710423469543,0.24308404326438904,0.5358455777168274
1772786384390121700,1.337121826171875,0.11695065349340439,0.027916615828871727,0.5957054495811462
1772786384400138000,1.347137939453125,0.369058221578598,-0.21448586881160736,0.6710609197616577
1772786384410154000,1.357154052734375,0.605042576789856,-0.4009931683540344,0.728042483329773
1772786384420169700,1.367169677734375,0.7958775162696838,-0.4570172429084778,0.7109289169311523
1772786384430185700,1.377185791015625,0.9061890840530396,-0.4365449845790863,0.6180916428565979
1772786384440201700,1.38720166015625,0.8543727993965149,-0.32915717363357544,0.4634685218334198
1772786384450217700,1.3972177734375,0.656661868095398,-0.11083921790122986,0.28004756569862366
1772786384460234000,1.40723388671875,0.3455423414707184,0.05550145357847214,0.11748476326465607
1772786384470250000,1.41725,0.02268625982105732,0.1638135462999344,0.002622099593281746
1772786384480265700,1.427265625,-0.240567147731781,0.18215490877628326,-0.05302112549543381
1772786384490281700,1.43728173828125,-0.40924936532974243,0.12665969133377075,-0.02831791155040264
1772786384500297700,1.447297607421875,-0.5123270153999329,0.03590129688382149,0.07509981840848923
1772786384510313700,1.457313720703125,-0.5457611680030823,-0.06981580704450607,0.2528913915157318
1772786384520329700,1.467329833984375,-0.5106039643287659,-0.17991706728935242,0.45642971992492676
1772786384530346000,1.477345947265625,-0.41435059905052185,-0.28417718410491943,0.6242618560791016
1772786384540362000,1.487362060546875,-0.25127309560775757,-0.4171438217163086,0.7271260023117065
1772786384550377700,1.497377685546875,-0.05939234048128128,-0.5640414357185364,0.7839218974113464
1772786384560393700,1.507393798828125,0.12948547303676605,-0.6814027428627014,0.7885136604309082
1772786384570409700,1.51740966796875,0.3188636600971222,-0.7967714071273804,0.7302737832069397
1772786384580425700,1.52742578125,0.4999629557132721,-0.9525238871574402,0.629767894744873
1772786384590441700,1.537441650390625,0.6780368089675903,-1.0254361629486084,0.5188512206077576
1772786384600458000,1.5474580078125,0.8721420168876648,-1.0143977403640747,0.42661529779434204
1772786384610474000,1.557473876953125,1.0541945695877075,-0.9672163128852844,0.3713613748550415
1772786384620489700,1.56748974609375,1.2015286684036255,-0.8631783127784729,0.3473692238330841
1772786384630505700,1.577505615234375,1.2907259464263916,-0.6926345229148865,0.33012551069259644
1772786384640521700,1.587521728515625,1.3176425695419312,-0.5046498775482178,0.3117339015007019
1772786384650537700,1.597537841796875,1.3158433437347412,-0.3277856409549713,0.3101631700992584
1772786384660553700,1.6075537109375,1.2936776876449585,-0.16676004230976105,0.3157515227794647
1772786384670570000,1.617570068359375,1.2706762552261353,-0.037511780858039856,0.31577759981155396
1772786384680586000,1.6275859375,1.2372983694076538,0.05355614796280861,0.3084782063961029
1772786384690601000,1.63760107421875,1.1875097751617432,0.11762434989213943,0.305036336183548
1772786384700616400,1.647616455078125,1.1143940687179565,0.17984184622764587,0.3234671950340271
1772786384710632400,1.657632568359375,1.0189247131347656,0.2191506326198578,0.3565109074115753
1772786384720648400,1.6676484375,0.9359854459762573,0.2346290647983551,0.39624565839767456
1772786384730664400,1.67766455078125,0.8769927024841309,0.2163137048482895,0.4146246910095215
1772786384740680400,1.687680419921875,0.8362345695495605,0.1704152375459671,0.39967262744903564
1772786384750696400,1.697696533203125,0.7992416620254517,0.10873404145240784,0.34715962409973145
1772786384760712400,1.70771240234375,0.769544780254364,0.04781417176127434,0.26357853412628174
1772786384770728400,1.717728515625,0.7349727153778076,-0.005930813495069742,0.18188606202602386
1772786384780744400,1.727744384765625,0.6848589777946472,-0.03804323449730873,0.11180563271045685
1772786384790760400,1.737760498046875,0.6302391290664673,-0.026701364666223526,0.07741916924715042
1772786384800776400,1.7477763671875,0.572597086429596,0.016136256977915764,0.0604393295943737
1772786384810792400,1.75779248046875,0.5314595103263855,0.052857521921396255,0.05144236981868744
1772786384820808400,1.767808349609375,0.5107966065406799,0.0729837492108345,0.056269578635692596
1772786384830824400,1.777824462890625,0.49590739607810974,0.05448222905397415,0.082660973072052
1772786384840840400,1.78784033203125,0.48373281955718994,-0.0060120983980596066,0.1200382336974144
1772786384850856400,1.7978564453125,0.47285592555999756,-0.04113306850194931,0.15478236973285675
1772786384860872400,1.80787255859375,0.4569483995437622,-0.048408448696136475,0.16888362169265747
1772786384870888400,1.817888427734375,0.43709853291511536,-0.07103653252124786,0.14641053974628448
1772786384880904400,1.827904541015625,0.4363142251968384,-0.09974832087755203,0.10853609442710876
1772786384890920400,1.83792041015625,0.45796704292297363,-0.14714272320270538,0.0750628262758255
1772786384900936400,1.8479365234375,0.5003743171691895,-0.2519283592700958,0.04229886457324028
1772786384910952400,1.857952392578125,0.5579747557640076,-0.39284661412239075,0.018247857689857483
1772786384920968400,1.867968505859375,0.6283791065216064,-0.5305249691009521,0.017374780029058456
1772786384930984400,1.877984375,0.6921021938323975,-0.6129453182220459,0.04728047922253609
1772786384941000400,1.88800048828125,0.7338471412658691,-0.6364189386367798,0.10220430046319962
1772786384951016400,1.898016357421875,0.7463930249214172,-0.6006060838699341,0.15333539247512817
1772786384961032400,1.908032470703125,0.7531210780143738,-0.5262038707733154,0.17693111300468445
1772786384971048400,1.91804833984375,0.7686145901679993,-0.48164838552474976,0.17579075694084167
1772786384981063400,1.9280634765625,0.7985571026802063,-0.4454328119754791,0.15692347288131714
1772786384991079400,1.938079345703125,0.8474794030189514,-0.3765946328639984,0.11193335801362991
1772786385001095400,1.948095458984375,0.9395297765731812,-0.27170276641845703,0.046944957226514816
1772786385011111400,1.958111328125,1.0515614748001099,-0.11627054214477539,-0.01868997886776924
1772786385021127400,1.96812744140625,1.160590410232544,0.12198254466056824,-0.08263272047042847
1772786385031143400,1.978143310546875,1.2551571130752563,0.4295305013656616,-0.17016737163066864
1772786385041159400,1.988159423828125,1.3329112529754639,0.7218809723854065,-0.3046632409095764
1772786385051175400,1.998175537109375,1.3846591711044312,0.8769350051879883,-0.4674345552921295
1772786385061191400,2.00819140625,1.4260615110397339,0.8818968534469604,-0.5745792388916016
1772786385071207400,2.01820751953125,1.4589592218399048,0.7820754051208496,-0.5796056389808655
1772786385081223400,2.028223388671875,1.4746304750442505,0.6552655696868896,-0.5089385509490967
1772786385091239400,2.038239501953125,1.4442116022109985,0.5755515694618225,-0.3722108006477356
1772786385101255400,2.04825537109375,1.3489441871643066,0.5624206066131592,-0.22622212767601013
1772786385111271400,2.058271484375,1.187325119972229,0.5706090331077576,-0.1008804515004158
1772786385121287400,2.068287353515625,1.0184162855148315,0.5526989698410034,-0.025145364925265312
1772786385131303400,2.078303466796875,0.9020288586616516,0.4560137391090393,-0.019092800095677376
1772786385141319400,2.0883193359375,0.843985378742218,0.2817766070365906,-0.06600458920001984
1772786385151335400,2.09833544921875,0.8240644335746765,0.08728619664907455,-0.12535153329372406
1772786385161351400,2.108351318359375,0.819252610206604,-0.08762014657258987,-0.1701299399137497
1772786385171367400,2.118367431640625,0.8081752061843872,-0.19288824498653412,-0.16914749145507812
1772786385181383400,2.128383544921875,0.7672450542449951,-0.20315565168857574,-0.1393611878156662
1772786385191399400,2.1383994140625,0.6958797574043274,-0.13686637580394745,-0.1089572086930275
1772786385201415400,2.14841552734375,0.6142086386680603,-0.007058354094624519,-0.08989643305540085
1772786385211431400,2.158431396484375,0.5316575765609741,0.15506184101104736,-0.10086226463317871
1772786385221447400,2.168447509765625,0.4612155556678772,0.33637574315071106,-0.160628080368042
1772786385231463400,2.17846337890625,0.4029240310192108,0.5309031009674072,-0.26093313097953796
1772786385241479400,2.1884794921875,0.3598863482475281,0.7301703095436096,-0.4048269987106323
1772786385251495400,2.198495361328125,0.3522297441959381,0.903048574924469,-0.5757603645324707
1772786385261511400,2.208511474609375,0.3586130142211914,1.034345269203186,-0.7239605784416199
1772786385271527400,2.21852734375,0.3538515567779541,1.1163771152496338,-0.8147506713867188
1772786385281543400,2.22854345703125,0.33180171251296997,1.1757105588912964,-0.8286139369010925
1772786385291559400,2.238559326171875,0.30057987570762634,1.2109156847000122,-0.7943601012229919
1772786385301574400,2.248574462890625,0.29510605335235596,1.1676832437515259,-0.7344491481781006
1772786385311590400,2.25859033203125,0.2753666937351227,1.1586452722549438,-0.5759108662605286
1772786385321606400,2.2686064453125,0.21993178129196167,1.2150804996490479,-0.37900418043136597
1772786385331622400,2.278622314453125,0.1563647985458374,1.2622178792953491,-0.2397722750902176
1772786385341638400,2.288638427734375,0.11201593279838562,1.3006024360656738,-0.19228273630142212
1772786385351654700,2.298654541015625,0.10477133840322495,1.3076823949813843,-0.22116658091545105
1772786385361670400,2.30867041015625,0.15369752049446106,1.1932854652404785,-0.32168978452682495
1772786385371686400,2.318686279296875,0.22817042469978333,0.9861854910850525,-0.4380917549133301
1772786385381702400,2.328702392578125,0.3177233934402466,0.9073848724365234,-0.4974953234195709
1772786385391718400,2.338718505859375,0.379489541053772,0.702987790107727,-0.5682547092437744
1772786385401734400,2.348734375,0.41124358773231506,0.4646909236907959,-0.6288871169090271
1772786385411750400,2.35875048828125,0.42414766550064087,0.2828654646873474,-0.6389946341514587
1772786385421766400,2.368766357421875,0.42635461688041687,0.09880748391151428,-0.6049109697341919
1772786385431782400,2.378782470703125,0.41678720712661743,-0.0687844455242157,-0.5133426785469055
1772786385441798400,2.38879833984375,0.40649867057800293,-0.20716561377048492,-0.37038588523864746
1772786385451814400,2.398814453125,0.42287763953208923,-0.32079899311065674,-0.18010887503623962
1772786385461830400,2.408830322265625,0.47101470828056335,-0.37607985734939575,0.05138595402240753
1772786385471846400,2.418846435546875,0.5274300575256348,-0.426338255405426,0.2772904634475708
1772786385481862700,2.428862548828125,0.5655841827392578,-0.4644504189491272,0.40216121077537537
1772786385491878400,2.43887841796875,0.5788115859031677,-0.4619808793067932,0.43446800112724304
1772786385501894400,2.448894287109375,0.5495873093605042,-0.43791958689689636,0.3956131935119629
1772786385511910400,2.458910400390625,0.5025391578674316,-0.41130876541137695,0.2900598645210266
1772786385521926400,2.468926513671875,0.45415788888931274,-0.4185384213924408,0.13154681026935577
1772786385531942400,2.4789423828125,0.4127691686153412,-0.5056429505348206,-0.041789282113313675
1772786385541958400,2.48895849609375,0.3945372700691223,-0.6424311995506287,-0.17235660552978516
1772786385551974700,2.498974609375,0.40801897644996643,-0.7109101414680481,-0.25027188658714294
1772786385561990400,2.508990478515625,0.4676048457622528,-0.736343264579773,-0.2722990810871124
1772786385572006400,2.51900634765625,0.5648608207702637,-0.8086952567100525,-0.24917404353618622
1772786385582022400,2.5290224609375,0.6693564057350159,-0.8395070433616638,-0.20718030631542206
1772786385592038400,2.539038330078125,0.7502978444099426,-0.7687923908233643,-0.19147004187107086
1772786385602053400,2.549053466796875,0.78695148229599,-0.6451607942581177,-0.2191602885723114
1772786385612069400,2.5590693359375,0.780666172504425,-0.4901304841041565,-0.28041088581085205
1772786385622085400,2.56908544921875,0.7479155659675598,-0.35646679997444153,-0.35012897849082947
1772786385632101600,2.5791015625,0.7040107250213623,-0.2608577013015747,-0.4148147702217102
1772786385642117400,2.589117431640625,0.6610044240951538,-0.15247516334056854,-0.4748361110687256
1772786385652133400,2.59913330078125,0.5951484441757202,-0.02169184945523739,-0.5252619981765747
1772786385662149400,2.6091494140625,0.5096677541732788,0.08650917559862137,-0.5502573251724243
1772786385672165400,2.619165283203125,0.3974815905094147,0.18905499577522278,-0.52106112241745
1772786385682181400,2.629181396484375,0.2705948054790497,0.2351137399673462,-0.4272618591785431
1772786385692197400,2.639197265625,0.13465215265750885,0.1602163314819336,-0.26640158891677856
1772786385702213000,2.649213134765625,0.0013006352819502354,0.053862180560827255,-0.07810268551111221
1772786385712229000,2.65922900390625,-0.1278781294822693,-0.02902684360742569,0.05399969592690468
1772786385722244900,2.669244873046875,-0.23410525918006897,-0.11685575544834137,0.10187257826328278
1772786385732260900,2.6792607421875,-0.30663803219795227,-0.22314463555812836,0.10886684060096741
1772786385742276900,2.68927685546875,-0.3392447233200073,-0.26186567544937134,0.09251023828983307
1772786385752293000,2.699293212890625,-0.2964983284473419,-0.38516765832901,0.09918464720249176
1772786385762309000,2.70930908203125,-0.15948183834552765,-0.4873356223106384,0.09363751113414764
1772786385772325000,2.7193251953125,-0.00725182518362999,-0.5890737175941467,0.06810152530670166
1772786385782341000,2.729341064453125,0.10081371665000916,-0.5972265005111694,0.09452108293771744
1772786385792356900,2.73935693359375,0.12855108082294464,-0.4323986768722534,0.17180201411247253
1772786385802372900,2.749372802734375,0.07813870161771774,-0.20531350374221802,0.245528906583786
1772786385812389000,2.75938916015625,0.022917523980140686,0.03360745683312416,0.31376364827156067
1772786385822405000,2.769405029296875,0.04471723735332489,0.27582141757011414,0.3912043273448944
1772786385832421000,2.779421142578125,0.14042805135250092,0.4782847762107849,0.4578544795513153
1772786385842437000,2.78943701171875,0.2758893072605133,0.63413405418396,0.5090671181678772
1772786385852453000,2.799453125,0.3920460045337677,0.8246475458145142,0.5282077789306641
1772786385862468900,2.80946875,0.4366939961910248,1.0183343887329102,0.5045338273048401
1772786385872484900,2.81948486328125,0.405489981174469,1.2011967897415161,0.4397726356983185
1772786385882501000,2.829501220703125,0.3216482400894165,1.3051165342330933,0.344929575920105
1772786385892517000,2.83951708984375,0.2292299121618271,1.229373812675476,0.2323276698589325
1772786385902533000,2.849533203125,0.17810878157615662,0.9954319000244141,0.13122503459453583
1772786385912549000,2.859549072265625,0.1902005970478058,0.576190710067749,0.08665703237056732
1772786385922564900,2.86956494140625,0.24419787526130676,0.11812224984169006,0.1447303742170334
1772786385932580000,2.879580078125,0.2991330027580261,-0.22846339643001556,0.30796483159065247
1772786385942595800,2.889595947265625,0.35296180844306946,-0.45777279138565063,0.4940658211708069
1772786385952611800,2.89961181640625,0.37495285272598267,-0.638642430305481,0.6129013895988464
1772786385962628000,2.909628173828125,0.37739303708076477,-0.7606526017189026,0.6274243593215942
1772786385972644000,2.91964404296875,0.35999780893325806,-0.7847039103507996,0.5571701526641846
1772786385982660000,2.92966015625,0.3241390883922577,-0.6919420957565308,0.43568840622901917
1772786385992676000,2.939676025390625,0.27914631366729736,-0.5418660640716553,0.28099364042282104
1772786386002692000,2.949692138671875,0.24367475509643555,-0.43061262369155884,0.13172370195388794
1772786386012707800,2.959707763671875,0.22588245570659637,-0.34338346123695374,0.0031588030979037285
1772786386022723800,2.969723876953125,0.21325136721134186,-0.2741599678993225,-0.1004101037979126
1772786386032740000,2.979739990234375,0.19650034606456757,-0.2476319670677185,-0.18437877297401428
1772786386042756000,2.989756103515625,0.18088185787200928,-0.28471219539642334,-0.23771245777606964
1772786386052772000,2.999772216796875,0.19291509687900543,-0.3114900290966034,-0.21092212200164795
1772786386062788000,3.0097880859375,0.23699851334095,-0.27668970823287964,-0.10142529755830765
1772786386072804000,3.01980419921875,0.2969822287559509,-0.2775973081588745,0.04337555915117264
1772786386082819800,3.02981982421875,0.36461618542671204,-0.3098016679286957,0.1972261667251587
1772786386092835800,3.0398359375,0.43764832615852356,-0.3284536600112915,0.34562256932258606
1772786386102852000,3.04985205078125,0.5077922940254211,-0.3307553231716156,0.44291630387306213
1772786386112868000,3.0598681640625,0.5836556553840637,-0.3288455903530121,0.4623677730560303
1772786386122884000,3.069884033203125,0.6696110963821411,-0.34357213973999023,0.4340376853942871
1772786386132900000,3.079900146484375,0.7434751987457275,-0.33878806233406067,0.3819456994533539
1772786386142915800,3.089915771484375,0.7868776917457581,-0.31590381264686584,0.3333953320980072
1772786386152931800,3.099931884765625,0.8075196146965027,-0.276405930519104,0.2922748029232025
1772786386162948000,3.109947998046875,0.7981204390525818,-0.23195600509643555,0.24710285663604736
1772786386172964000,3.119964111328125,0.7688906192779541,-0.1947452425956726,0.19166302680969238
1772786386182980000,3.12997998046875,0.7156292796134949,-0.15481913089752197,0.13204817473888397
1772786386192996000,3.13999609375,0.6439958214759827,-0.09060100466012955,0.0744360163807869
1772786386203012000,3.15001220703125,0.5637574791908264,-0.009445803239941597,0.026581497862935066
1772786386213027800,3.16002783203125,0.49033841490745544,0.03379807621240616,-0.0006136377342045307
1772786386223043800,3.1700439453125,0.4128013551235199,0.05161333456635475,0.014205275103449821
1772786386233060000,3.18006005859375,0.31866952776908875,0.09248379617929459,0.06288492679595947
1772786386243076000,3.190076171875,0.2198440581560135,0.12901601195335388,0.12923291325569153
1772786386253091000,3.200091064453125,0.1328047513961792,0.16436468064785004,0.20826861262321472
1772786386263107000,3.210107177734375,0.0871424749493599,0.19572731852531433,0.29843589663505554
1772786386273123000,3.220123046875,0.059937216341495514,0.20171809196472168,0.3646087944507599
1772786386283139000,3.23013916015625,0.08448273688554764,0.14305061101913452,0.4157988131046295
1772786386293155000,3.240155029296875,0.1637336164712906,0.05400249734520912,0.45952606201171875
1772786386303170800,3.2501708984375,0.29856911301612854,-0.048698414117097855,0.49124807119369507
1772786386313187000,3.26018701171875,0.4786403477191925,-0.16123321652412415,0.524944007396698
1772786386323203000,3.270203125,0.6670655608177185,-0.2583857476711273,0.5502667427062988
1772786386333219000,3.280218994140625,0.8292057514190674,-0.2991430163383484,0.5492587685585022
1772786386343235000,3.290235107421875,0.9741131663322449,-0.3192475438117981,0.5232500433921814
1772786386353251000,3.3002509765625,1.0957878828048706,-0.3170403242111206,0.47341403365135193
1772786386363267000,3.31026708984375,1.1783223152160645,-0.3214597702026367,0.42031848430633545
1772786386373282800,3.32028271484375,1.2120283842086792,-0.34983521699905396,0.375896155834198
1772786386383299000,3.330299072265625,1.2051624059677124,-0.4118569791316986,0.3388899266719818
1772786386393315000,3.340315185546875,1.1590559482574463,-0.4933515787124634,0.3265645503997803
1772786386403331000,3.3503310546875,1.1067756414413452,-0.5083119869232178,0.3489839434623718
1772786386413347000,3.36034716796875,1.005715250968933,-0.34838810563087463,0.3916235566139221
1772786386423363000,3.370363037109375,0.8186234831809998,-0.0038678040727972984,0.4513740539550781
1772786386433378800,3.38037890625,0.6564207077026367,0.5886269211769104,0.4453401267528534
1772786386443394800,3.390394775390625,0.5305367708206177,1.2732609510421753,0.2928704619407654
1772786386453411000,3.4004111328125,0.4139435887336731,1.7742146253585815,0.08300963789224625
1772786386463427000,3.410427001953125,0.3920944333076477,1.8965617418289185,-0.045153580605983734
1772786386473443000,3.420443115234375,0.46178242564201355,1.6832059621810913,0.00489627243950963
1772786386483459000,3.430458984375,0.5393040776252747,1.2404961585998535,0.11312934756278992
1772786386493475000,3.44047509765625,0.5167641043663025,0.8948277235031128,0.2070172131061554
1772786386503490800,3.45049072265625,0.45681965351104736,0.8202877044677734,0.28716227412223816
1772786386513507000,3.460507080078125,0.3981558084487915,0.6257411241531372,0.4657360017299652
1772786386523523000,3.470523193359375,0.2858278751373291,0.2737952768802643,0.6404427886009216
1772786386533539000,3.4805390625,0.1710147261619568,0.004850894212722778,0.716238796710968
1772786386543555000,3.49055517578125,0.12275491654872894,-0.1489517241716385,0.7259191274642944
1772786386553571000,3.500571044921875,0.1259794682264328,-0.2912377417087555,0.6600064039230347
1772786386563587000,3.510587158203125,0.14436672627925873,-0.502458393573761,0.5177693963050842
1772786386573602800,3.520602783203125,0.17611001431941986,-0.775475025177002,0.33283838629722595
1772786386583618000,3.5306181640625,0.21811193227767944,-1.0276155471801758,0.14552825689315796
1772786386593634000,3.540634033203125,0.26391857862472534,-1.2111451625823975,-0.028322624042630196
1772786386603650000,3.550650146484375,0.31668782234191895,-1.312219262123108,-0.1822427213191986
1772786386613666000,3.560666015625,0.38314089179039,-1.293826699256897,-0.3023771047592163
1772786386623682000,3.57068212890625,0.4698902666568756,-1.1598975658416748,-0.39982840418815613
1772786386633698000,3.580697998046875,0.5591703057289124,-0.9850927591323853,-0.45300349593162537
1772786386643714000,3.590714111328125,0.6338919401168823,-0.7917221188545227,-0.4673071503639221
1772786386653729800,3.600729736328125,0.675235390663147,-0.5721516609191895,-0.46667012572288513
1772786386663746000,3.61074609375,0.6694221496582031,-0.35789987444877625,-0.45117947459220886
1772786386673762000,3.620761962890625,0.6168273687362671,-0.17739269137382507,-0.43199220299720764
1772786386683778000,3.630778076171875,0.5277955532073975,-0.0515296645462513,-0.4184674918651581
1772786386693794000,3.6407939453125,0.4130212664604187,0.027600040659308434,-0.41686373949050903
1772786386703810300,3.650810302734375,0.28972452878952026,0.07939048856496811,-0.4408436715602875
1772786386713826300,3.660826416015625,0.16966070234775543,0.10004597157239914,-0.47610020637512207
1772786386723842000,3.670842041015625,0.05604177713394165,0.10151326656341553,-0.517612636089325
1772786386733858000,3.680858154296875,-0.0516790933907032,0.07607581466436386,-0.5617412328720093
1772786386743874000,3.6908740234375,-0.14641253650188446,0.054076023399829865,-0.6183661818504333
1772786386753890300,3.700890380859375,-0.21709762513637543,0.03653537854552269,-0.6841893792152405
1772786386763906300,3.71090625,-0.25841808319091797,0.03475566208362579,-0.7350705862045288
1772786386773922300,3.72092236328125,-0.2799830138683319,0.03461504727602005,-0.751866340637207
1772786386783938000,3.73093798828125,-0.2926575243473053,0.04737665131688118,-0.7314960956573486
1772786386793954000,3.7409541015625,-0.2917097210884094,0.07988133281469345,-0.6827136278152466
1772786386803970000,3.750969970703125,-0.2867022752761841,0.14320698380470276,-0.6198379993438721
1772786386813986300,3.760986328125,-0.28652703762054443,0.2268851101398468,-0.5538062453269958
1772786386824002300,3.771002197265625,-0.30002009868621826,0.28866833448410034,-0.49530598521232605
1772786386834018300,3.781018310546875,-0.32126039266586304,0.34736520051956177,-0.44388142228126526
1772786386844034300,3.791034423828125,-0.331049382686615,0.400892049074173,-0.39542055130004883
1772786386854050000,3.801050048828125,-0.33838266134262085,0.43753474950790405,-0.33710479736328125
1772786386864066000,3.811066162109375,-0.3590095639228821,0.470528781414032,-0.2782890796661377
1772786386874082000,3.82108203125,-0.40372908115386963,0.484313040971756,-0.22428761422634125
1772786386884098300,3.831098388671875,-0.48020419478416443,0.45134878158569336,-0.17857243120670319
1772786386894114300,3.8411142578125,-0.5824717283248901,0.34305402636528015,-0.1440916806459427
1772786386904130300,3.85113037109375,-0.6597625613212585,0.20548506081104279,-0.11525317281484604
1772786386914145300,3.861145263671875,-0.6720682382583618,0.08629502356052399,-0.09832186251878738
1772786386924161300,3.871161376953125,-0.6434738039970398,-0.010797606781125069,-0.08800192177295685
1772786386934177300,3.88117724609375,-0.5922726988792419,-0.10222525894641876,-0.07328902184963226
1772786386944193000,3.891193115234375,-0.5468605160713196,-0.16570360958576202,-0.048919156193733215
1772786386954209000,3.901208984375,-0.5310072898864746,-0.1741679459810257,-0.03749153017997742
1772786386964225300,3.911225341796875,-0.5539913177490234,-0.16620983183383942,-0.05143076181411743
1772786386974241300,3.9212412109375,-0.6092042326927185,-0.1729215383529663,-0.06863744556903839
1772786386984257300,3.93125732421875,-0.6632189750671387,-0.20354695618152618,-0.06498122960329056
1772786386994273300,3.941273193359375,-0.6992275714874268,-0.2433212697505951,-0.050709620118141174
1772786387004289000,3.9512890625,-0.7031886577606201,-0.2595146894454956,-0.030609581619501114
1772786387014305000,3.961304931640625,-0.6640167832374573,-0.229544535279274,-0.004832312930375338
1772786387024321000,3.971321044921875,-0.5873714685440063,-0.12740175426006317,0.010384283028542995
1772786387034337300,3.981337158203125,-0.5076364278793335,0.030231811106204987,-0.007488456554710865
1772786387044353300,3.991353271484375,-0.48145151138305664,0.12478667497634888,-0.06104751303792
1772786387054369300,4.001369384765625,-0.5453431010246277,0.17357632517814636,-0.10929733514785767
1772786387064385300,4.01138525390625,-0.6761139035224915,0.2577609419822693,-0.12411529570817947
1772786387074401000,4.021401123046875,-0.8378628492355347,0.4004741609096527,-0.10707053542137146
1772786387084417000,4.0314169921875,-0.9964812994003296,0.5836751461029053,-0.07950601726770401
1772786387094433000,4.04143310546875,-1.1027421951293945,0.7317125797271729,-0.04351285845041275
1772786387104449300,4.05144921875,-1.1175261735916138,0.7971742749214172,-0.00847688689827919
1772786387114465300,4.06146533203125,-1.0699269771575928,0.8556772470474243,0.0045859175734221935
1772786387124481300,4.071481201171875,-0.9856299161911011,0.916881263256073,-0.0033154147677123547
1772786387134497300,4.081497314453125,-0.870116651058197,0.938413143157959,-0.008094456978142262
1772786387144513000,4.091512939453125,-0.7184663414955139,0.880028247833252,0.017155960202217102
1772786387154529000,4.101529052734375,-0.5393275022506714,0.7311477065086365,0.08685487508773804
1772786387164545300,4.111545166015625,-0.35885342955589294,0.5165445804595947,0.18533113598823547
1772786387174561300,4.121561279296875,-0.17890658974647522,0.23433925211429596,0.29000160098075867
1772786387184577300,4.131577392578125,-0.02545589581131935,-0.104717917740345,0.39204126596450806
1772786387194593300,4.14159326171875,0.06671398133039474,-0.4107729196548462,0.4446246027946472
1772786387204609300,4.151609375,0.11733114719390869,-0.5891523361206055,0.4228389263153076
1772786387214625000,4.161625,0.11981081962585449,-0.6331448554992676,0.32842081785202026
1772786387224641000,4.17164111328125,0.0887567549943924,-0.5207940340042114,0.18543744087219238
1772786387234657300,4.1816572265625,0.04180150106549263,-0.3431769013404846,0.022766238078475
1772786387244673300,4.19167333984375,-0.01644429750740528,-0.17360851168632507,-0.12248755991458893
1772786387254688300,4.201688232421875,-0.0840611532330513,-0.036202192306518555,-0.22974556684494019
1772786387264704300,4.211704345703125,-0.15389296412467957,0.1180264949798584,-0.29864007234573364
1772786387274720300,4.22172021484375,-0.21891777217388153,0.2947504222393036,-0.3126879930496216
1772786387284736300,4.231736328125,-0.2864680588245392,0.4707206189632416,-0.2711140513420105
1772786387294752000,4.241751953125,-0.35445642471313477,0.5765873789787292,-0.177310049533844
1772786387304768000,4.25176806640625,-0.4127633273601532,0.6029443144798279,-0.025863749906420708
1772786387314784300,4.2617841796875,-0.4633370339870453,0.5378846526145935,0.1489275097846985
1772786387324800300,4.27180029296875,-0.4933554232120514,0.4177370071411133,0.2824724018573761
1772786387334816300,4.281816162109375,-0.48526236414909363,0.253528356552124,0.3358331024646759
1772786387344832300,4.291832275390625,-0.4317184388637543,0.0748629942536354,0.33548930287361145
1772786387354848300,4.30184814453125,-0.3445209562778473,-0.11081339418888092,0.3209122121334076
1772786387364864000,4.311864013671875,-0.2406586855649948,-0.29537639021873474,0.3193584978580475
1772786387374880000,4.3218798828125,-0.14024339616298676,-0.44190725684165955,0.332174152135849
1772786387384896300,4.331896240234375,-0.04848548024892807,-0.5498062968254089,0.34657198190689087
1772786387394912300,4.341912353515625,0.03246769309043884,-0.6290119290351868,0.34580445289611816
1772786387404928300,4.35192822265625,0.08621837943792343,-0.6797160506248474,0.3190755248069763
1772786387414944300,4.3619443359375,0.11567001044750214,-0.7212456464767456,0.277935266494751
1772786387424960300,4.371960205078125,0.12564826011657715,-0.7296779155731201,0.25145888328552246
1772786387434976000,4.38197607421875,0.1177344024181366,-0.6854041814804077,0.22756049036979675
1772786387444992000,4.391991943359375,0.09453243762254715,-0.6284328103065491,0.20947931706905365
1772786387455008300,4.40200830078125,0.06865663081407547,-0.5481305122375488,0.1722235530614853
1772786387465024300,4.412024169921875,0.05661553516983986,-0.4756264388561249,0.12194948643445969
1772786387475040300,4.422040283203125,0.052676718682050705,-0.4440714418888092,0.06025603041052818
1772786387485056300,4.43205615234375,0.05543062090873718,-0.44040602445602417,-0.014206014573574066
1772786387495072000,4.442072021484375,0.06729713827371597,-0.43673112988471985,-0.0851033553481102
1772786387505088000,4.452087890625,0.08445948362350464,-0.4515063166618347,-0.12048839777708054
1772786387515104300,4.462104248046875,0.10873445868492126,-0.4337371587753296,-0.11173591762781143
1772786387525120300,4.472120361328125,0.12705695629119873,-0.3857668936252594,-0.07218630611896515
1772786387535136300,4.48213623046875,0.12295489013195038,-0.3413048982620239,-0.03434518352150917
1772786387545152300,4.49215234375,0.0955955758690834,-0.3187817335128784,-0.008503747172653675
1772786387555168300,4.502168212890625,0.045291390269994736,-0.29997316002845764,0.02562519535422325
1772786387565184000,4.51218408203125,-0.010907550342381,-0.2631398141384125,0.062091175466775894
1772786387575200000,4.522199951171875,-0.06723900139331818,-0.20499658584594727,0.08710198849439621
1772786387585216300,4.53221630859375,-0.12186118215322495,-0.12597785890102386,0.09852424263954163
1772786387595232300,4.542232177734375,-0.17761339247226715,-0.04858054220676422,0.08224993199110031
1772786387605247200,4.552247314453125,-0.2238440066576004,0.02239246293902397,0.034968301653862
1772786387615263200,4.56226318359375,-0.18978376686573029,0.0866694524884224,-0.013740381225943565
1772786387625279200,4.572279296875,-0.10420336574316025,0.1186857596039772,-0.03067914769053459
1772786387635295200,4.582295166015625,0.0034546544775366783,0.12027699500322342,-0.017144696786999702
1772786387645311200,4.592311279296875,0.1154956966638565,0.10194382071495056,0.015436816029250622
1772786387655327000,4.602326904296875,0.2183840125799179,0.04735780879855156,0.07254350930452347
1772786387665343200,4.61234326171875,0.2888890206813812,-0.042477965354919434,0.14464424550533295
1772786387675359200,4.622359130859375,0.309602826833725,-0.17883926630020142,0.22569967806339264
1772786387685375200,4.632375244140625,0.27689310908317566,-0.32826879620552063,0.31097179651260376
1772786387695391200,4.64239111328125,0.22707629203796387,-0.4588651657104492,0.38777390122413635
1772786387705407500,4.652407470703125,0.18318095803260803,-0.5255692005157471,0.42748817801475525
1772786387715423200,4.66242333984375,0.09748256206512451,-0.5157783627510071,0.4154304563999176
1772786387725439200,4.672439208984375,-0.032586630433797836,-0.3790711760520935,0.28837692737579346
1772786387735455200,4.682455322265625,-0.13131879270076752,-0.09980916976928711,0.011696595698595047
1772786387745471500,4.692471435546875,-0.18396230041980743,0.2552362382411957,-0.2771662473678589
1772786387755487500,4.702487548828125,-0.211470365524292,0.6287874579429626,-0.45244404673576355
1772786387765503500,4.71250341796875,-0.20522452890872955,0.9098507761955261,-0.498757928609848
1772786387775519500,4.72251953125,-0.1969386339187622,1.001685619354248,-0.45559340715408325
1772786387785535200,4.73253515625,-0.1977793425321579,0.9066785573959351,-0.31177133321762085
1772786387795551200,4.74255126953125,-0.19374892115592957,0.7350833415985107,-0.10113710910081863
1772786387805567500,4.7525673828125,-0.17569805681705475,0.5768831372261047,0.08480044454336166
1772786387815583500,4.76258349609375,-0.13735651969909668,0.47714054584503174,0.18869806826114655
1772786387825599500,4.772599609375,-0.08498139679431915,0.3844057023525238,0.23261459171772003
1772786387835615500,4.782615478515625,-0.08833404630422592,0.14450789988040924,0.27767714858055115
1772786387845631500,4.792631591796875,-0.1267508566379547,-0.05931810662150383,0.23921063542366028
1772786387855647200,4.802647216796875,-0.18302477896213531,-0.19922593235969543,0.13961879909038544
1772786387865663200,4.812663330078125,-0.25115934014320374,-0.29075726866722107,0.050670381635427475
1772786387875679500,4.822679443359375,-0.3149401843547821,-0.3539290428161621,0.008667802438139915
1772786387885695500,4.832695556640625,-0.36350351572036743,-0.4091942012310028,0.011376982554793358
1772786387895711500,4.84271142578125,-0.3911362290382385,-0.45307457447052,0.03914283588528633
1772786387905727500,4.8527275390625,-0.39876994490623474,-0.4939330816268921,0.08192189037799835
1772786387915743200,4.8627431640625,-0.3881801664829254,-0.5083537697792053,0.12233243137598038
1772786387925759200,4.87275927734375,-0.36715877056121826,-0.5067465901374817,0.13696050643920898
1772786387935775200,4.882775146484375,-0.33506473898887634,-0.4971434772014618,0.10902927815914154
1772786387945791500,4.89279150390625,-0.29915815591812134,-0.48177167773246765,0.04127955809235573
1772786387955806500,4.902806396484375,-0.2632949650287628,-0.4258359968662262,-0.049419716000556946
1772786387965822500,4.912822509765625,-0.2212037444114685,-0.32521024346351624,-0.16403934359550476
1772786387975838500,4.92283837890625,-0.17115549743175507,-0.22478137910366058,-0.29201966524124146
1772786387985854500,4.9328544921875,-0.11761455237865448,-0.14310476183891296,-0.42193928360939026
1772786387995870500,4.942870361328125,-0.06294571608304977,-0.06829070299863815,-0.5396760106086731
1772786388005886200,4.95288623046875,0.00386766716837883,-0.009059310890734196,-0.6287738084793091
1772786388015902200,4.962902099609375,0.09106781333684921,0.02091483399271965,-0.6977701783180237
1772786388025918500,4.97291845703125,0.18884213268756866,0.024370333179831505,-0.7381203770637512
1772786388035934500,4.9829345703125,0.2851148843765259,0.013977614231407642,-0.7528071403503418
1772786388045950500,4.992950439453125,0.35222238302230835,-0.014440909959375858,-0.7569887042045593
1772786388055966500,5.002966552734375,0.37623319029808044,-0.03411181643605232,-0.751483142375946
1772786388065982500,5.012982421875,0.35320448875427246,-0.0014274988789111376,-0.730396568775177
1772786388075998200,5.022998291015625,0.27236050367355347,0.060090724378824234,-0.6778292059898376
1772786388086014500,5.033014404296875,0.13039341568946838,0.13537320494651794,-0.6063140630722046
1772786388096030500,5.043030517578125,-0.0367170125246048,0.23646067082881927,-0.5480539798736572
1772786388106046500,5.05304638671875,-0.19716377556324005,0.3248724341392517,-0.5101535320281982
1772786388116062500,5.0630625,-0.3200393617153168,0.36216095089912415,-0.5074498653411865
1772786388126078500,5.073078369140625,-0.3960845470428467,0.3572728633880615,-0.5300111174583435
1772786388136094200,5.08309423828125,-0.42507463693618774,0.3286321759223938,-0.545372486114502
1772786388146110200,5.093110107421875,-0.42579352855682373,0.29439476132392883,-0.543770968914032
1772786388156126500,5.10312646484375,-0.4108166992664337,0.26212018728256226,-0.5211998820304871
1772786388166142500,5.113142578125,-0.38568276166915894,0.23574985563755035,-0.4820149838924408
1772786388176158500,5.123158447265625,-0.33841776847839355,0.2095787078142166,-0.418454110622406
1772786388186174500,5.133174560546875,-0.27347102761268616,0.19181443750858307,-0.361937552690506
1772786388196190500,5.1431904296875,-0.21565060317516327,0.1856345683336258,-0.3364841341972351
1772786388206206200,5.153206298828125,-0.16731606423854828,0.17681679129600525,-0.34936416149139404
1772786388216222200,5.16322216796875,-0.13185952603816986,0.16307620704174042,-0.38002005219459534
1772786388226238500,5.173238525390625,-0.1018342599272728,0.14773669838905334,-0.3945991098880768
1772786388236254500,5.18325439453125,-0.07591717690229416,0.1046624556183815,-0.3853595554828644
1772786388246270500,5.1932705078125,-0.0717804804444313,0.05208311602473259,-0.3478514850139618
1772786388256286500,5.203286376953125,-0.08380226045846939,0.018468162044882774,-0.29028937220573425
1772786388266302500,5.213302490234375,-0.10985694825649261,-0.01620825193822384,-0.22057148814201355
1772786388276318200,5.223318115234375,-0.16648320853710175,-0.032550472766160965,-0.15534108877182007
1772786388286334200,5.233334228515625,-0.2548709809780121,-0.045884888619184494,-0.10919132828712463
1772786388296350500,5.2433505859375,-0.3531975746154785,-0.07035241276025772,-0.09051324427127838
1772786388306366500,5.253366455078125,-0.4528115391731262,-0.08229338377714157,-0.08578275889158249
1772786388316381400,5.26338134765625,-0.551384449005127,-0.09476576745510101,-0.10475804656744003
1772786388326397400,5.2733974609375,-0.629530131816864,-0.10914786159992218,-0.13416074216365814
1772786388336413400,5.283413330078125,-0.6785703897476196,-0.11547446250915527,-0.14966966211795807
1772786388346429400,5.293429443359375,-0.6873686909675598,-0.12206289917230606,-0.14235426485538483
1772786388356445400,5.303445556640625,-0.6618593335151672,-0.1353432834148407,-0.10697069764137268
1772786388366461200,5.313461181640625,-0.5935813784599304,-0.16869716346263885,-0.04488171264529228
1772786388376477400,5.3234775390625,-0.4841443598270416,-0.22188368439674377,0.03883475437760353
1772786388386493400,5.333493408203125,-0.37249913811683655,-0.289740651845932,0.11647342890501022
1772786388396509400,5.343509521484375,-0.3673248887062073,-0.3401026129722595,0.13627031445503235
1772786388406525400,5.353525390625,-0.427014023065567,-0.3467424511909485,0.09850385040044785
1772786388416541400,5.36354150390625,-0.5112482309341431,-0.33265483379364014,0.04057130962610245
1772786388426557200,5.37355712890625,-0.6255764365196228,-0.26426178216934204,-0.003624171484261751
1772786388436573400,5.383573486328125,-0.7579792141914368,-0.1619410216808319,-0.018127214163541794
1772786388446589400,5.39358935546875,-0.889441192150116,-0.0314670167863369,-0.012974588200449944
1772786388456605400,5.40360546875,-1.009448766708374,0.08163636922836304,0.008542422205209732
1772786388466621400,5.413621337890625,-1.08594810962677,0.1357148289680481,0.05528917536139488
1772786388476637400,5.423637451171875,-1.0956320762634277,0.1769602745771408,0.11820849031209946
1772786388486653400,5.4336533203125,-1.0788931846618652,0.2024582326412201,0.15829800069332123
1772786388496669200,5.443669189453125,-1.0654796361923218,0.20541781187057495,0.14452412724494934
1772786388506685400,5.453685546875,-1.0741252899169922,0.24337776005268097,0.07595749199390411
1772786388516701400,5.463701416015625,-1.1021822690963745,0.3391439914703369,-0.016221968457102776
1772786388526717400,5.473717529296875,-1.1337275505065918,0.4825332462787628,-0.10436974465847015
1772786388536733400,5.4837333984375,-1.154693365097046,0.6279085278511047,-0.1723538488149643
1772786388546749400,5.49374951171875,-1.1322534084320068,0.7577930092811584,-0.1799452155828476
1772786388556765400,5.503765380859375,-0.9970628619194031,0.8125191330909729,-0.08188255876302719
1772786388566781200,5.51378125,-0.7651666402816772,0.8162314295768738,0.08798447996377945
1772786388576797400,5.52379736328125,-0.47467750310897827,0.7627005577087402,0.29288968443870544
1772786388586813400,5.5338134765625,-0.16493496298789978,0.5619986057281494,0.4563564956188202
1772786388596829400,5.543829345703125,0.13101759552955627,0.2507565915584564,0.5550873279571533
1772786388606845400,5.553845458984375,0.39463526010513306,-0.07789750397205353,0.618619978427887
1772786388616861400,5.563861328125,0.6084713935852051,-0.37294673919677734,0.6531265377998352
1772786388626877200,5.573877197265625,0.7518395185470581,-0.5981828570365906,0.6493010520935059
1772786388636893400,5.5838935546875,0.7902598977088928,-0.7425613403320312,0.6073054075241089
1772786388646909400,5.593909423828125,0.7317830324172974,-0.7324041128158569,0.5205410718917847
1772786388656925400,5.603925537109375,0.590285062789917,-0.5918843150138855,0.3861505091190338
1772786388666941400,5.61394140625,0.37029707431793213,-0.38966184854507446,0.22219468653202057
1772786388676956400,5.623956298828125,0.09285907447338104,-0.14687050879001617,0.03716518357396126
1772786388686972400,5.633972412109375,-0.199234738945961,0.1103915199637413,-0.14726509153842926
1772786388696988400,5.643988525390625,-0.4768564999103546,0.32148778438568115,-0.2921319901943207
1772786388707004700,5.654004638671875,-0.7295783758163452,0.43758824467658997,-0.36706188321113586
1772786388717021000,5.66402099609375,-0.9110775589942932,0.4919409453868866,-0.3466612696647644
1772786388727037000,5.674036865234375,-1.00368070602417,0.46639469265937805,-0.21589164435863495
1772786388737053000,5.684052978515625,-1.0179214477539062,0.38191312551498413,-0.009413841180503368
1772786388747069000,5.69406884765625,-0.9706785082817078,0.27501747012138367,0.1998140811920166
1772786388757085000,5.7040849609375,-0.8757125735282898,0.1557730883359909,0.36780840158462524
1772786388767101000,5.714100830078125,-0.7453253269195557,0.04613228142261505,0.47509804368019104
1772786388777116700,5.72411669921875,-0.5915848016738892,-0.08493465930223465,0.5165238380432129
1772786388787133000,5.7341328125,-0.41909685730934143,-0.25040414929389954,0.5044520497322083
1772786388797149000,5.74414892578125,-0.24709473550319672,-0.4051090478897095,0.45995381474494934
1772786388807165000,5.7541650390625,-0.09919969737529755,-0.5337184071540833,0.4064808785915375
1772786388817181000,5.764180908203125,0.00842929258942604,-0.6187741756439209,0.3773632049560547
1772786388827197000,5.774197021484375,0.06195433437824249,-0.6524059176445007,0.36136770248413086
1772786388837213000,5.784212890625,0.04851575568318367,-0.6484689712524414,0.33793509006500244
1772786388847229000,5.79422900390625,-0.014172687195241451,-0.6054869294166565,0.29776307940483093
1772786388857245000,5.804244873046875,-0.11137620359659195,-0.5275276899337769,0.25429999828338623
1772786388867261000,5.814260986328125,-0.22805120050907135,-0.43679574131965637,0.20275136828422546
1772786388877277000,5.82427685546875,-0.36269423365592957,-0.35091039538383484,0.14021608233451843
1772786388887293000,5.83429296875,-0.4893910884857178,-0.26653820276260376,0.07997620105743408
1772786388897309000,5.844308837890625,-0.6014853715896606,-0.1842028647661209,0.023740360513329506
1772786388907324700,5.85432470703125,-0.6891351342201233,-0.11419171094894409,-0.014284712262451649
1772786388917341000,5.8643408203125,-0.7452817559242249,-0.05466872453689575,-0.03190738335251808
1772786388927357000,5.87435693359375,-0.7771320343017578,-0.0014634043909609318,-0.04266859218478203
1772786388937373000,5.884373046875,-0.7835790514945984,0.02569790929555893,-0.04389577731490135
1772786388947389000,5.894388916015625,-0.7474081516265869,0.016592811793088913,-0.036216169595718384
1772786388957405000,5.904405029296875,-0.6765763163566589,-0.028703296557068825,-0.02102017030119896
1772786388967421000,5.9144208984375,-0.5863054394721985,-0.09635640680789948,0.009914007969200611
1772786388977436700,5.924436767578125,-0.5028542280197144,-0.16707904636859894,0.048111461102962494
1772786388987453000,5.934452880859375,-0.384718120098114,-0.1787634938955307,0.09024407714605331
1772786388997469000,5.944468994140625,-0.2853081524372101,-0.19674275815486908,0.13668614625930786
1772786389007485000,5.95448486328125,-0.21197737753391266,-0.24849648773670197,0.19439087808132172
1772786389017501000,5.9645009765625,-0.12626780569553375,-0.301750123500824,0.2600623071193695
1772786389027517000,5.974516845703125,-0.008377766236662865,-0.32248127460479736,0.31063464283943176
1772786389037533000,5.984532958984375,0.11262322217226028,-0.325382798910141,0.3326832056045532
1772786389047549000,5.994548828125,0.21912629902362823,-0.32226303219795227,0.332795649766922
1772786389057564000,6.00456396484375,0.30659064650535583,-0.35926419496536255,0.33414241671562195
1772786389067580000,6.014579833984375,0.34679991006851196,-0.43886247277259827,0.34160107374191284
1772786389077596000,6.024595947265625,0.3154289424419403,-0.5417518019676208,0.33778849244117737
1772786389087612000,6.03461181640625,0.2694687843322754,-0.5833304524421692,0.31492456793785095
1772786389097628000,6.0446279296875,0.19741828739643097,-0.5424080491065979,0.30998173356056213
1772786389107644000,6.054643798828125,0.16618292033672333,-0.3774910867214203,0.31193190813064575
1772786389117660000,6.064659912109375,0.14939355850219727,-0.11167193204164505,0.24282927811145782
1772786389127676000,6.074676025390625,0.08351662009954453,0.3497770130634308,0.055332813411951065
1772786389137692000,6.08469189453125,0.12787023186683655,0.8619726896286011,-0.18455275893211365
1772786389147708000,6.0947080078125,0.310994416475296,1.1558789014816284,-0.3282693326473236
1772786389157724000,6.104723876953125,0.5268837809562683,1.224217176437378,-0.2982912063598633
1772786389167740000,6.114739990234375,0.7152548432350159,1.1856917142868042,-0.12782761454582214
1772786389177756000,6.124755859375,0.8799559473991394,1.075846791267395,0.08420901000499725
1772786389187772000,6.13477197265625,0.881016194820404,1.027553677558899,0.3415311276912689
1772786389197788000,6.144787841796875,0.693100094795227,1.0159121751785278,0.5343050956726074
1772786389207804000,6.154803955078125,0.468986451625824,0.989401638507843,0.5332298278808594
1772786389217820000,6.16481982421875,0.30303502082824707,0.9677610397338867,0.39439553022384644
1772786389227836000,6.1748359375,0.18746954202651978,0.9409635663032532,0.2119521051645279
1772786389237852000,6.184851806640625,0.1298549771308899,0.825176477432251,0.04818660020828247
1772786389247868000,6.194867919921875,0.12872157990932465,0.6747168898582458,-0.0720965713262558
1772786389257884000,6.2048837890625,0.15715588629245758,0.5394972562789917,-0.1627977192401886
1772786389267900000,6.21489990234375,0.1985204666852951,0.4277755916118622,-0.246405228972435
1772786389277916000,6.224916015625,0.25645753741264343,0.28725308179855347,-0.323000967502594
1772786389287932000,6.234931884765625,0.31269872188568115,0.14946293830871582,-0.378522664308548
1772786389297948000,6.244947998046875,0.3630812168121338,0.022878097370266914,-0.4533313810825348
1772786389307964000,6.2549638671875,0.3772747814655304,-0.03642141819000244,-0.5373592972755432
1772786389317980000,6.26497998046875,0.3963813781738281,-0.04405936226248741,-0.6297723054885864
1772786389327996000,6.274995849609375,0.4267558753490448,-0.013652065768837929,-0.7514680624008179
1772786389338012000,6.285011962890625,0.44806593656539917,-0.04760071262717247,-0.8940470218658447
1772786389348028000,6.29502783203125,0.46639692783355713,-0.09057411551475525,-1.0523858070373535
1772786389358044000,6.3050439453125,0.49267247319221497,-0.15226171910762787,-1.1992255449295044
1772786389368060000,6.315059814453125,0.5117010474205017,-0.2957850694656372,-1.3023502826690674
1772786389378076000,6.325075927734375,0.5358316898345947,-0.4846407473087311,-1.3075929880142212
1772786389388092000,6.335091796875,0.586423397064209,-0.597728431224823,-1.2294535636901855
1772786389398108000,6.34510791015625,0.672578752040863,-0.5153946876525879,-1.0542868375778198
1772786389408124000,6.3551240234375,0.7857557535171509,-0.24780187010765076,-0.7797960638999939
1772786389418139000,6.365138916015625,0.8955288529396057,0.016623662784695625,-0.4528171420097351
1772786389428155000,6.37515478515625,0.9614661335945129,0.10785268992185593,-0.1696069836616516
1772786389438171000,6.3851708984375,0.9204678535461426,0.05184800550341606,0.01567552611231804
1772786389448187000,6.395186767578125,0.7994978427886963,-0.07563861459493637,0.08621037751436234
1772786389458203000,6.405202880859375,0.6395041942596436,-0.23347219824790955,0.04651010036468506
1772786389468219000,6.415218994140625,0.46295440196990967,-0.332009881734848,-0.08840004354715347
1772786389478235000,6.42523486328125,0.2882941663265228,-0.3297472596168518,-0.2510360777378082
1772786389488251000,6.4352509765625,0.10814332216978073,-0.2651595175266266,-0.3362179696559906
1772786389498267000,6.445266845703125,-0.06687109917402267,-0.181147962808609,-0.30144134163856506
1772786389508283000,6.455282958984375,-0.24412326514720917,-0.1047612726688385,-0.1792789250612259
1772786389518299000,6.465298828125,-0.41167816519737244,-0.07123713940382004,-0.050309762358665466
1772786389528315000,6.47531494140625,-0.5550574660301208,-0.05125695839524269,0.029980052262544632
1772786389538331000,6.485330810546875,-0.6719905138015747,-0.04943109676241875,0.052688829600811005
1772786389548347000,6.495346923828125,-0.7703818082809448,-0.11989342421293259,0.02250596694648266
1772786389558363000,6.50536279296875,-0.8546660542488098,-0.22843748331069946,-0.023620516061782837
1772786389568379000,6.51537890625,-0.8719573616981506,-0.35646361112594604,-0.06054046377539635
1772786389578395000,6.525394775390625,-0.8255816102027893,-0.4142800569534302,-0.07310366630554199
1772786389588411000,6.535410888671875,-0.7932122349739075,-0.4107959270477295,-0.04534782096743584
1772786389598427000,6.545427001953125,-0.7618383765220642,-0.3747548460960388,0.010279485955834389
1772786389608443000,6.55544287109375,-0.7328192591667175,-0.35505160689353943,0.06739354878664017
1772786389618459000,6.565458984375,-0.715218722820282,-0.37970131635665894,0.10378644615411758
1772786389628475000,6.575474853515625,-0.7058107852935791,-0.419353723526001,0.1078043133020401
1772786389638491000,6.585490966796875,-0.7378755211830139,-0.4739812910556793,0.0825253278017044
1772786389648507000,6.5955068359375,-0.6929252743721008,-0.6123265027999878,0.03623538091778755
1772786389658523000,6.60552294921875,-0.5693514347076416,-0.6077024936676025,0.02804749086499214
1772786389668539000,6.615538818359375,-0.4552350640296936,-0.45755916833877563,0.12336809933185577
1772786389678555000,6.625554931640625,-0.4167923331260681,-0.41105106472969055,0.2472684681415558
1772786389688571000,6.63557080078125,-0.3920278549194336,-0.40680304169654846,0.35087209939956665
1772786389698587000,6.6455869140625,-0.4494442641735077,-0.36256128549575806,0.40061861276626587
1772786389708602600,6.6556025390625,-0.4556219279766083,-0.28622934222221375,0.4169262647628784
1772786389718618600,6.66561865234375,-0.43228092789649963,-0.2388799637556076,0.3827725648880005
1772786389728634600,6.675634521484375,-0.4227299392223358,-0.23220038414001465,0.301130086183548
1772786389738650600,6.685650634765625,-0.39710551500320435,-0.19054028391838074,0.20483629405498505
1772786389748666600,6.69566650390625,-0.3581957519054413,-0.12767121195793152,0.1346467286348343
1772786389758682400,6.705682373046875,-0.32009708881378174,-0.055729370564222336,0.07884392142295837
1772786389768698400,6.715698486328125,-0.2781465947628021,0.0005980755668133497,0.057460084557533264
1772786389778714600,6.725714599609375,-0.29103147983551025,0.06271763890981674,0.04177007079124451
1772786389788730600,6.735730712890625,-0.30389586091041565,0.14235591888427734,0.07049382477998734
1772786389798745600,6.74574560546875,-0.35807812213897705,0.060968659818172455,0.10318705439567566
1772786389808761600,6.75576171875,-0.4487673044204712,-0.02835560403764248,0.11403105407953262
1772786389818777600,6.765777587890625,-0.4412095248699188,-0.036525383591651917,0.12063676118850708
1772786389828793600,6.775793701171875,-0.41492486000061035,-0.20880559086799622,0.0980796068906784
1772786389838809600,6.7858095703125,-0.39304405450820923,-0.35673514008522034,0.07149220257997513
1772786389848825300,6.795825439453125,-0.4153122305870056,-0.40373724699020386,0.05830971151590347
1772786389858841600,6.805841552734375,-0.49199023842811584,-0.40702733397483826,0.08062060922384262
1772786389868857600,6.815857666015625,-0.5101985931396484,-0.38413354754447937,0.1364850252866745
1772786389878873600,6.82587353515625,-0.48042020201683044,-0.3603847920894623,0.17625534534454346
1772786389888889600,6.8358896484375,-0.410876989364624,-0.35289326310157776,0.15907223522663116
1772786389898905600,6.845905517578125,-0.27345600724220276,-0.33991995453834534,0.10277114808559418
1772786389908921600,6.855921630859375,-0.0965433120727539,-0.24703681468963623,0.013512548059225082
1772786389918937300,6.865937255859375,0.08178381621837616,-0.10730742663145065,-0.04298801347613335
1772786389928953600,6.87595361328125,0.18362730741500854,0.02656659297645092,-0.07306984066963196
1772786389938969600,6.885969482421875,0.21100753545761108,0.1785002052783966,-0.07086847722530365
1772786389948985600,6.895985595703125,0.18812662363052368,0.31255245208740234,-0.04315883666276932
1772786389959001600,6.906001708984375,0.137967050075531,0.4322916269302368,-0.011902379803359509
1772786389969017600,6.916017578125,0.08832225948572159,0.500576376914978,0.019485898315906525
1772786389979033300,6.926033447265625,0.028790226206183434,0.5272670984268188,0.03404007479548454
1772786389989049600,6.936049560546875,-0.017144327983260155,0.48578888177871704,0.04295948147773743
1772786389999065600,6.946065673828125,0.02337060682475567,0.4339517652988434,0.03358249366283417
1772786390009081600,6.95608154296875,0.10790025442838669,0.35829803347587585,0.012771105393767357
1772786390019097600,6.96609765625,0.14435547590255737,0.25661134719848633,-0.01692873425781727
1772786390029113600,6.976113525390625,0.10911941528320312,0.1676037609577179,-0.0011768998811021447
1772786390039129600,6.986129638671875,-0.02816174179315567,0.0905688926577568,0.13718870282173157
1772786390049145300,6.996145263671875,-0.1637410670518875,-0.010038255713880062,0.28548675775527954
1772786390059161600,7.00616162109375,-0.25742629170417786,-0.12419678270816803,0.3780539631843567
1772786390069177600,7.016177490234375,-0.315754234790802,-0.22269481420516968,0.39801400899887085
1772786390079193600,7.026193603515625,-0.3234081566333771,-0.2947887182235718,0.3574577867984772
1772786390089209600,7.036209716796875,-0.3221524655818939,-0.32422664761543274,0.2971409261226654
1772786390099225600,7.0462255859375,-0.32009172439575195,-0.36434078216552734,0.226411372423172
1772786390109241600,7.05624169921875,-0.30136746168136597,-0.3888453543186188,0.15552882850170135
