time,seconds_elapsed,z,y,x
1772786252341776400,0.0487763671875,-0.1777279722124338,-0.27923604357540605,-0.23971849137507378
1772786252351792400,0.05879248046875,-0.09268705152571201,-0.27628698451146483,-0.28027433711457994
1772786252361809400,0.068809326171875,-0.002982230681180954,-0.20402926529124377,-0.23733386126086115
1772786252371825400,0.078825439453125,-0.03522504263818264,-0.08788885746374726,-0.18001527943201362
1772786252381841400,0.08884130859375,-0.007919102561473846,0.018331921634823084,-0.1434085366444662
1772786252391857400,0.098857421875,0.01674012239873409,0.1699455016426742,-0.08718527577165514
1772786252401874200,0.108874267578125,0.09702361942529678,0.23541779850646852,-0.16545129549596457
1772786252411890200,0.11889013671875,0.2943132011979818,0.19794906859472391,-0.3756044870276004
1772786252421906400,0.128906494140625,0.5700567264825105,0.13570873938947917,-0.5948166353382169
1772786252431922400,0.13892236328125,0.7461936301112174,0.1362296214584261,-0.6675330581113695
1772786252441939500,0.148939453125,0.6646417205840349,0.2061209768734872,-0.6553815786771476
1772786252451955200,0.158955078125,0.27625264385044573,0.25615597756542263,-0.6734450586341321
1772786252461971200,0.16897119140625,-0.04847556935548782,0.2605079622298479,-0.6237867092348635
1772786252471987500,0.178987548828125,-0.16574878060519693,0.24235256620571016,-0.48318522936776276
1772786252482004500,0.18900439453125,-0.21272738940119743,0.21584113750755785,-0.3890043956203386
1772786252492020500,0.1990205078125,-0.16891805829107762,0.17599749515801666,-0.3826902075048536
1772786252502036200,0.2090361328125,0.040756957802176474,0.15679098264575003,-0.38095786728691305
1772786252512052200,0.21905224609375,0.04813830022513866,0.0894229351632297,-0.37998624577578155
1772786252522069500,0.229069580078125,-0.0704664518892765,0.04002528252676129,-0.552645463356562
1772786252532085500,0.23908544921875,0.14181085565686224,0.032950667965412135,-0.6342673328474163
1772786252542101500,0.2491015625,0.4437380389899015,-0.10464987652003764,-0.48682950415424997
1772786252552117200,0.2591171875,0.7563906144767999,-0.3441036525443196,-0.38487884012293067
1772786252562134300,0.26913427734375,0.8122112858980893,-0.5597185800805687,-0.33658008863907307
1772786252572150500,0.279150634765625,0.6815601221591234,-0.6518059121474623,-0.30223745485860853
1772786252582166300,0.289166259765625,0.35678514720201493,-0.7122782087668776,-0.1987501923771575
1772786252592182300,0.299182373046875,0.14697101489901543,-0.6821154179543256,0.14611293676495551
1772786252602198300,0.3091982421875,0.05250760135054588,-0.6838629922740161,0.5377747880915179
1772786252612215300,0.31921533203125,0.07135901681482791,-0.7242953942969441,0.9239671219658107
1772786252622231300,0.329231201171875,0.07535539297461509,-0.7475020823612809,1.2626402008287607
1772786252632247300,0.339247314453125,-0.20577567056715487,-0.7525505979225039,1.5399883848309517
1772786252642263300,0.34926318359375,-0.4807429507821798,-0.7204337504327297,1.6047209692433475
1772786252652280300,0.3592802734375,-0.373633406150341,-0.7762281183689832,1.6941047414399681
1772786252662296300,0.36929638671875,-0.16104864009022712,-0.9106462334260343,1.8069702192500232
1772786252672312300,0.379312255859375,0.07916179952025414,-1.0542781670302153,1.7354240093000233
1772786252682328300,0.389328369140625,0.23951310499608516,-1.1361806435607373,1.5565620646215974
1772786252692345000,0.399344970703125,0.1821861206650734,-1.3637092962525783,1.2428249087683856
1772786252702361300,0.409361328125,-0.10075462264716624,-1.309831867853552,1.0766159633055328
1772786252712377300,0.41937744140625,-0.4107528842329979,-1.375523068165034,0.9298576413091272
1772786252722393300,0.429393310546875,-0.2436152796179056,-1.5467038106910884,0.8779759167719632
1772786252732410000,0.43941015625,-0.034200375765562056,-1.5637044837221503,1.0840786273363976
1772786252742426000,0.449426025390625,-0.07567220383882522,-1.5498179971888661,1.251333063264191
1772786252752442400,0.4594423828125,-0.23541326846182345,-1.2392967346422374,1.3956385122157633
1772786252762458400,0.469458251953125,-0.468991138190031,-1.1630226193875073,1.394163763488084
1772786252772474400,0.479474365234375,-0.6319944194793701,-1.103310347355157,1.2170927208144218
1772786252782491100,0.4894912109375,-0.5219266095638275,-1.037257620254904,0.9385634372688829
1772786252792507100,0.499507080078125,-0.050505029356479644,-1.1167129958942532,0.635191169694066
1772786252802523400,0.5095234375,0.40928982594311236,-1.3448672331385314,0.47160248973220587
1772786252812539400,0.519539306640625,0.7515724005401134,-1.6128770954310894,0.3710470429189503
1772786252822556200,0.52955615234375,0.8428150984764099,-1.7704666811086236,0.22681460440466178
1772786252832572200,0.539572265625,0.7190519406855106,-1.847602527759224,0.03232055336833
1772786252842588200,0.549588134765625,0.5410644407540559,-1.9344509362593292,-0.10184859189633279
1772786252852604200,0.559604248046875,0.44080315458178515,-2.043986831255257,-0.23298772181533275
1772786252862621200,0.56962109375,0.3904775734454393,-2.1331372330874205,-0.31577468956280497
1772786252872637200,0.57963720703125,0.3261263895660639,-2.2642921085648235,-0.4477890679463744
1772786252882653200,0.589653076171875,0.2832154686003923,-2.2804719667322932,-0.46259007550869136
1772786252892669200,0.599669189453125,0.1206377192467451,-2.054300135476887,-0.2969076564042829
1772786252902686500,0.6096865234375,-0.17553776869177817,-1.6863981125853955,0.07881757092615589
1772786252912702200,0.6197021484375,-0.5169049820095301,-1.418240073993802,0.4201534575238824
1772786252922718200,0.62971826171875,-0.7012164242655038,-1.3499515506654978,0.7777501403044909
1772786252932734200,0.639734130859375,-0.8226058386623859,-1.3801413756154477,1.217360358774662
1772786252942750200,0.649750244140625,-0.8834154044121504,-1.5702414842754602,1.4947669949658213
1772786252952767500,0.659767578125,-0.8117787396997213,-1.7242841911263762,1.5505816750377415
1772786252962783200,0.669783203125,-0.740880910655856,-1.868300447873026,1.52924414184615
1772786252972799200,0.67979931640625,-0.631492899698019,-1.979507198690623,1.4824163396976888
1772786252982815200,0.689815185546875,-0.4267337126970291,-2.044602332805097,1.3215021396420896
1772786252992832300,0.699832275390625,-0.07139233456254004,-1.9955447257779537,1.2048819124083965
1772786253002848300,0.70984814453125,0.13627601788341998,-1.87716574524343,1.266432432718575
1772786253012864300,0.7198642578125,0.06773615014255047,-1.692364473643899,1.3900835084371268
1772786253022880300,0.72988037109375,-0.06761632315516472,-1.6809112056069075,1.3900788322620092
1772786253032897300,0.739897216796875,-0.2602081025004387,-1.6700877599060535,1.2401527669496835
1772786253042913300,0.749913330078125,-0.48967736786603927,-1.4804681282393632,1.1569171421192586
1772786253052929300,0.75992919921875,-1.1439976009219883,-1.1673426745437085,0.9985685547679662
1772786253062945300,0.7699453125,-1.591077936077118,-0.8450533789224922,0.40783710638415066
1772786253072961300,0.779961181640625,-1.8507400951325892,-0.6230610253088176,-0.11791625839360058
1772786253082978300,0.789978271484375,-1.9550515334784984,-0.4727567743338644,-0.37216621967460956
1772786253092994300,0.799994384765625,-1.8839117123723028,-0.3720078507751226,-0.3947440352508798
1772786253103010300,0.81001025390625,-1.709906560075283,0.17963409809470177,-0.023347959698550403
1772786253113026000,0.820026123046875,-1.892822164058685,0.5824456679344177,0.24407672311719505
1772786253123043300,0.830043212890625,-2.3935884966939684,0.7340542795062065,0.26403788992166516
1772786253133059300,0.840059326171875,-2.591187290546298,0.9223556681811809,0.3255645178996026
1772786253143075300,0.850075439453125,-2.3134885395407676,1.1770296635605395,0.4095451889436692
1772786253153091000,0.860091064453125,-2.0052818375468253,1.085094161054492,0.26493838242534545
1772786253163108400,0.8701083984375,-1.3816104252547026,1.0183838468283415,0.2633785126974806
1772786253173124400,0.880124267578125,-0.4557856196582317,0.895377206493169,0.28222046621367336
1772786253183140400,0.890140380859375,0.38917525867521763,0.7622779189497232,0.20306964474515987
1772786253193156400,0.90015625,0.8604577226728201,0.7356801271423697,0.07965123613816685
1772786253203172000,0.910172119140625,0.972934347295761,0.6267429286919534,-0.21593252385174855
1772786253213189400,0.920189453125,0.8554483700782061,0.48978331245854495,-0.7216651919238269
1772786253223205400,0.930205322265625,0.7160597731322049,0.397585651884973,-1.318903647581488
1772786253233221400,0.940221435546875,0.43437867449223994,0.3343808615617454,-1.916139034499228
1772786253243237400,0.9502373046875,0.1136754790186882,0.2022161514546722,-2.4072115099854767
1772786253253254100,0.960254150390625,-0.08521744629740714,-0.011829115612059831,-2.833822911477089
1772786253263270100,0.970270263671875,-0.1950865187704563,-0.20836722143031655,-2.9242946250408886
1772786253273286400,0.980286376953125,-0.3267038971930742,-0.33342670264206825,-2.5942367412447926
1772786253283302400,0.990302490234375,-0.5945388413101435,-0.35183190870881076,-2.0533444421872495
1772786253293318100,1.000318115234375,-0.9883043503850698,-0.30476993247829376,-1.3603984181389213
1772786253303335200,1.010335205078125,-1.385178931391239,-0.13486468978077173,-0.7151551524426788
1772786253313351200,1.02035107421875,-1.5483359419375657,0.052942850962653755,-0.20732191362846641
1772786253323367400,1.030367431640625,-1.2601239802241324,-0.056047612044960254,-0.09082081926241517
1772786253333383400,1.040383544921875,-0.5410106647402048,-0.21512940904162822,-0.1555352104309946
1772786253343400200,1.050400146484375,0.3766308344006538,-0.28810521340332923,-0.0758813530774787
1772786253353416200,1.060416259765625,1.1777069783002136,-0.3606022212721407,0.029812333407066762
1772786253363432200,1.07043212890625,1.5895190161973236,-0.4028137617968023,0.06273684401791542
1772786253373448400,1.080448486328125,1.4275491696089506,-0.4031225354850292,0.017948036883771418
1772786253383465200,1.09046533203125,1.1444903528749941,-0.3543773919405415,-0.2410749840179458
1772786253393481200,1.100481201171875,1.1227116517871618,-0.3238725096920505,-0.5047223402520641
1772786253403497200,1.110497314453125,1.478910523533821,-0.43266547736618666,-0.7124114797577261
1772786253413513200,1.12051318359375,1.8109195413976906,-0.6177681065324694,-0.824506484651938
1772786253423529200,1.130529296875,2.096388341882825,-0.666869844962284,-0.8606877320364117
1772786253433546200,1.140546142578125,2.086072699573636,-0.942569823366031,-1.067709822468087
1772786253443562200,1.150562255859375,1.8034055125057695,-0.7507667832456528,-0.7854380644585937
1772786253453578200,1.160578125,1.7837240759581325,-0.34255189305767414,-0.24449542345330116
1772786253463594200,1.17059423828125,1.8843395823955535,-0.2689142272537574,0.09795819686166941
1772786253473611300,1.180611328125,1.8299293622940778,-0.3703494160436094,0.41902803369052705
1772786253483627300,1.190627197265625,1.8594974020838737,-0.7814270021863281,0.4348389124151319
1772786253493643300,1.200643310546875,2.076052240818739,-1.2894821766555309,0.23684629693962633
1772786253503659300,1.2106591796875,2.178071184313297,-1.176681580775231,0.3708952864233404
1772786253513675300,1.22067529296875,1.8503700927764177,-1.1871494910366833,0.5875250900905579
1772786253523692300,1.2306923828125,0.9354366835504769,-1.4027262785196304,0.49536754233166574
1772786253533708300,1.240708251953125,0.11304185729026794,-1.4640265503957868,-0.0224028243355453
1772786253543724300,1.250724365234375,-0.4800865327000618,-1.6920535079985857,-0.7288374947059899
1772786253553740300,1.260740234375,-1.0087626165241002,-2.0484362118795514,-1.158685832292214
1772786253563757000,1.270757080078125,-0.8407008828014135,-1.8258122823640703,-1.118669975180924
1772786253573773000,1.28077294921875,-0.5689812062054872,-1.605570571810007,-1.2370613768056034
1772786253583789000,1.2907890625,-0.3975578870952129,-1.48824197711125,-1.393307000528276
1772786253593805000,1.30080517578125,-0.5338789131641387,-1.7233014636993407,-1.3454869724720715
1772786253603821000,1.310821044921875,-1.1679571531802415,-2.0409099080279467,-1.0960335612852126
1772786253613838000,1.320838134765625,-1.3501146322727202,-2.1155030844584104,-0.8441956661146134
1772786253623854000,1.33085400390625,-1.18166769862473,-2.353480504319817,-0.7476375453092158
1772786253633870000,1.3408701171875,-0.9788345112502574,-2.6797610615342853,-0.9180248724352568
1772786253643886000,1.350885986328125,-0.6805570825964212,-2.8378908915683625,-2.190293975418061
1772786253653903000,1.360903076171875,-0.47839200374186036,-3.024664632284641,-4.204580811066926
1772786253663919000,1.370919189453125,-0.6241735165953636,-2.031422533236444,-4.34260104226917
1772786253673935000,1.38093505859375,-1.3883435329020022,0.6507631981614976,-1.8845489873625336
1772786253683951000,1.390951171875,-2.1908605232596394,1.967926212620735,1.069295776485279
1772786253693967000,1.400967041015625,-2.4559242490977047,3.1530390832632778,3.8208366375297307
1772786253703984000,1.410984130859375,-3.223530669593811,4.166932925195992,5.106712314125895
1772786253714000000,1.420999755859375,-4.0575265017986295,4.442660960650444,5.193955128771067
1772786253724016000,1.43101611328125,-4.161293165743351,4.235859746427834,4.535692587830126
1772786253734032100,1.4410322265625,-3.185630270266533,3.7836131145507097,3.7687513532444834
1772786253744049200,1.451049072265625,-1.1545587424248456,3.0240237040326,3.267738060110807
1772786253754065200,1.461065185546875,0.7493582316219807,2.6415783381342886,2.7361417049258945
1772786253764081000,1.471080810546875,1.9581483304500578,2.4515175385713577,2.167341992767155
1772786253774097200,1.48109716796875,2.9640456206709143,2.3278328528441485,1.62613580545485
1772786253784113200,1.491113037109375,3.5321897915303704,2.1378915880076588,1.0056588052898645
1772786253794130200,1.501130126953125,3.7401603417932985,1.8092047003038227,0.4441675895135849
1772786253804146200,1.511146240234375,3.7174189331531524,1.3565638084121048,-0.13521598743647337
1772786253814162000,1.521161865234375,3.2593817351758476,1.1303330865763128,-0.49877026344723996
1772786253824178000,1.531177978515625,2.858133176869154,1.1632715526472777,-0.7365531105846166
1772786253834195200,1.5411953125,1.9790987640202045,1.317685503963381,-0.8643459622830152
1772786253844211200,1.551211181640625,1.4579378781318664,1.4632998435564337,-0.6719610306214541
1772786253854227000,1.56122705078125,1.250631929257512,1.4997899376943706,-0.26820721149556337
1772786253864243000,1.571242919921875,0.7710422401636838,1.4462310737252235,-0.0666737816080451
1772786253874259000,1.581259033203125,0.32252807281315327,1.3721915856547653,-0.11644450534060596
1772786253884276200,1.591276123046875,-0.04746668457388878,1.2525975302420556,-0.15911431102678178
1772786253894292200,1.601292236328125,-0.20961948651373385,1.0306374714627862,0.0010299275696277618
1772786253904308000,1.611307861328125,-0.2648731717020273,0.8205351698681712,0.23686544003151355
1772786253914324000,1.621323974609375,-0.29943244390785695,0.6713428987231105,0.4905978437118232
1772786253924341200,1.63134130859375,-0.34096272417008877,0.5935054431417957,0.6060537764064967
1772786253934357200,1.641357177734375,-0.3051204264163971,0.5211923039399087,0.5946830720864236
1772786253944373200,1.651373291015625,-0.29612054288089273,0.47749286294505,0.4903756523285061
1772786253954389000,1.661388916015625,-0.029272856235504147,0.5576328963803127,0.4793765577998012
1772786253964405000,1.671405029296875,0.55424248675704,0.36231519920248534,0.57111843742989
1772786253974422000,1.681422119140625,0.9271937558621167,0.019494316477701067,0.658685588658601
1772786253984438300,1.691438232421875,0.9859007963746785,-0.07190627543404698,0.7429054752860218
1772786253994454300,1.701454345703125,0.9260925166219472,-0.010869769060611724,0.9370917572811245
1772786254004470000,1.711469970703125,0.6976555169135332,0.03273695214949548,1.153355577180162
1772786254014487000,1.721487060546875,0.42954234037697314,-0.07296367553249002,1.2329448813974857
1772786254024503000,1.7315029296875,0.26986089698672294,-0.18023571724966167,1.2014927083615212
1772786254034519300,1.741519287109375,0.18414952969253062,-0.3620845687843859,1.0751776741307228
1772786254044535000,1.75153515625,0.009020926323533058,-0.5327013938173651,0.8019135445717722
1772786254054551000,1.761551025390625,-0.04698503853678703,-0.5722147812992334,0.5337657351132482
1772786254064568000,1.771568115234375,0.09199965378344059,-0.6849263106565923,0.44329679802842437
1772786254074584000,1.781583984375,0.09123977532684803,-0.9328902139380574,0.539111187794432
1772786254084600300,1.791600341796875,-0.0038268648117780685,-1.1304696455027907,0.5897592058181762
1772786254094616000,1.801615966796875,-0.2214472869515419,-1.2617992199599741,0.5306446074180304
1772786254104632000,1.811632080078125,-0.4880979897201061,-1.3798241263598203,0.43769079471491273
1772786254114649000,1.821649169921875,-0.600992547494173,-1.448942816901952,0.33836035965196787
1772786254124665000,1.8316650390625,-0.3601186755388975,-1.5519699145257473,0.1623096730019897
1772786254134681000,1.84168115234375,0.08477028705179691,-1.6736190027721225,0.03075724957436323
1772786254144697000,1.851697021484375,0.3760784612149,-1.7454947369374334,-0.05778298447020352
1772786254154714000,1.861714111328125,0.4997878429919481,-1.5595849195741116,0.05430654053129255
1772786254164730000,1.871730224609375,0.014482698860764502,-1.2306323666714132,0.08076368175894022
1772786254174746000,1.88174609375,-0.5231523519665002,-0.8564221835464239,0.17198796725571155
1772786254184762000,1.89176220703125,-1.0065858570069075,-0.6259120308257639,0.28214517248775806
1772786254194778000,1.901778076171875,-1.237289632603526,-0.5389090162858367,0.4109001837491989
1772786254204795100,1.911795166015625,-1.268211425089836,-0.4252870210200548,0.6580640957593917
1772786254214811100,1.92181103515625,-1.071835451030731,-0.1567718395538628,0.9288473682880402
1772786254224827100,1.9318271484375,-0.40064007101953025,-0.2661421687245369,0.9302535818241536
1772786254234843100,1.941843017578125,-0.4681131863117218,-0.591039016495645,0.8590105195391923
1772786254244860200,1.951860107421875,-0.8558610425323248,-0.5556139943059534,0.7001071478493511
1772786254254876200,1.961876220703125,-1.3535983827352522,-0.40585575984120364,0.7071491022501141
1772786254264892200,1.97189208984375,-1.4948790770381688,-0.32165647761039434,0.805448513764888
1772786254274908200,1.981908203125,-1.0432669436722992,-0.3098029582094401,0.8905250172216445
1772786254284924000,1.991923828125,-0.4315472504585981,-0.40268611682914196,0.9707782652404159
1772786254294941200,2.001941162109375,0.07656301519870758,-0.547337748869881,1.0717521566614507
1772786254304957200,2.011957275390625,0.39106969411969184,-0.6487116724591702,1.131830996983871
1772786254314973200,2.02197314453125,0.31383506326973437,-0.6625156683407724,1.123193443954736
1772786254324989200,2.0319892578125,0.23614976604282856,-0.6130080525238066,0.9888874109700322
1772786254335005000,2.0420048828125,0.3720914374053478,-0.6296314166750758,1.1493584703680126
1772786254345022200,2.052022216796875,0.263230665192008,-0.7311533704329282,1.5385934233412146
1772786254355038200,2.0620380859375,-0.04736147063374519,-0.7976718884140253,1.891390377689898
1772786254365054200,2.07205419921875,-0.5571142428010701,-0.6620221126701682,2.0697348743654786
1772786254375070200,2.0820703125,-1.3983248286902903,-0.3846251576228067,2.079874867846817
1772786254385086000,2.0920859375,-2.0238380694568154,-0.09928235813751816,1.9135025485157966
1772786254395103000,2.10210302734375,-1.8616028499305246,-0.045049467364326114,1.7871924827210603
1772786254405119200,2.112119140625,-1.3609481609761713,0.24953356375098226,1.940778239584714
1772786254415135200,2.12213525390625,-0.5155085592150688,0.8720717342294753,2.305921319156885
1772786254425151200,2.132151123046875,0.4480605783641338,1.2547829114571214,2.293472464211285
1772786254435168000,2.14216796875,0.7950409553885459,1.3522498907357454,2.1682814655743536
1772786254445184000,2.15218408203125,0.6625672523975372,1.2872396584257482,2.08670836712867
1772786254455200300,2.1622001953125,0.2345914306849241,1.2282521935366093,1.7823194698572158
1772786254465216300,2.17221630859375,-0.29524434456825255,1.1153573435015975,1.404235806299746
1772786254475232000,2.18223193359375,-0.9371247827678918,0.9492416292801499,0.9069719288274646
1772786254485249000,2.1922490234375,-1.423907598236203,0.9890161519162356,0.38846469925306737
1772786254495265000,2.20226513671875,-1.329074182331562,0.9839422096528112,-0.17313903698697686
1772786254505281300,2.21228125,-0.7738795094162225,0.6703723731905221,-0.7464105607975274
1772786254515297300,2.22229736328125,0.42667993668317794,0.6431237162590027,-1.099440520184487
1772786254525313000,2.23231298828125,1.4184808970123528,0.5850153722919523,-1.3023740991935133
1772786254535330000,2.242330078125,1.8502578645735979,0.4194810381550342,-1.5877200039513408
1772786254545346000,2.252345947265625,2.0537603295117615,0.2312313066020608,-2.072944922453165
1772786254555362000,2.262362060546875,1.9900006817847489,-0.07093672258241568,-2.5796646105349064
1772786254565378300,2.27237841796875,1.4362398410648107,-0.44816513471715147,-2.818391533589363
1772786254575395600,2.2823955078125,0.7083101819187402,-0.7695751632858068,-2.814257794785499
1772786254585411600,2.29241162109375,-0.20646949805021284,-0.9687894295107573,-2.5337761350631713
1772786254595427600,2.302427490234375,-1.033039564168453,-1.0556765625860542,-2.054816414435953
1772786254605443600,2.312443603515625,-1.520322730374336,-1.0965773127730936,-1.4517477913200854
1772786254615459300,2.322459228515625,-1.765436724117398,-1.1284753298804164,-0.9699889414936304
1772786254625476400,2.332476318359375,-2.0020400791466235,-1.0881615127358586,-0.4864757953457534
1772786254635492600,2.34249267578125,-2.1186030963003635,-0.8322387594044208,0.0006902472864836454
1772786254645508600,2.352508544921875,-1.9292332016110418,-0.5518631904050707,0.398465941850841
1772786254655524600,2.362524658203125,-1.6016232954889535,-0.3062895249946974,0.7459727539021521
1772786254665540400,2.372540283203125,-1.0684522383332251,-0.19536396573865786,0.9733170630030333
1772786254675557400,2.382557373046875,-0.33511107553243635,-0.20980445115920154,1.1437301090922205
1772786254685573600,2.39257373046875,0.2079232039898634,-0.2818865580841899,1.2723987937770782
1772786254695589600,2.402589599609375,0.55325406024158,-0.3679557623727247,1.2997241692066193
1772786254705605600,2.412605712890625,0.6882464680552483,-0.42908875139057634,1.3757472323097288
1772786254715621400,2.422621337890625,0.7416758604258299,-0.4149103692386299,1.4250824872344732
1772786254725638400,2.432638427734375,0.6546230153948068,-0.34575109095778317,1.4911274694196879
1772786254735654400,2.442654296875,0.581827828297019,-0.197049051015079,1.49119819656834
1772786254745670700,2.452670654296875,0.6114765321075916,-0.024001765698473898,1.5404405125126241
1772786254755686400,2.462686279296875,0.7646142529428005,0.11969121391056105,1.562529886984825
1772786254765703400,2.472703369140625,0.8984691811591387,0.14983071517907082,1.5170119983911514
1772786254775719400,2.482719482421875,1.0571809027343988,0.19885661189369855,1.5163193399518728
1772786254785735400,2.4927353515625,1.4546294842362404,0.26286022444441914,1.542067236931622
1772786254795751700,2.502751708984375,1.7238351321846246,0.26632749869618566,1.5114049721643328
1772786254805767400,2.512767333984375,1.7342571574777363,0.20497560623064637,1.378119222138077
1772786254815784400,2.522784423828125,1.6377496708810328,0.21593601271677762,1.1574990336604416
1772786254825800400,2.532800537109375,1.5692606565445661,0.18471874441523103,1.059114793406427
1772786254835816400,2.54281640625,1.6974270177304744,-0.08397756577152758,1.1185706795249133
1772786254845832400,2.55283251953125,1.850859922119975,-0.3792581872295588,1.1367533288821576
1772786254855848400,2.562848388671875,1.92463009172976,-0.5255656236533075,1.0036538952082394
1772786254865865500,2.572865478515625,1.820818419599533,-0.5754790803248062,0.8760408570561558
1772786254875881500,2.582881591796875,1.7119669997364282,-0.4906389794398099,0.8871322329781949
1772786254885897500,2.5928974609375,1.4051169730484485,-0.4487463321385905,0.9182616768658161
1772786254895913500,2.60291357421875,0.9253764773070812,-0.49867009100839493,0.7925023037564008
1772786254905929500,2.612929443359375,0.642399493637681,-0.5441140375830232,0.46704190381839866
1772786254915946500,2.622946533203125,0.5978875672161579,-0.5028583364784718,0.2698404387205839
1772786254925962500,2.63296240234375,0.5073591550290584,-0.5059768338251859,0.2314873271897435
1772786254935978500,2.642978515625,0.2790209395200014,-0.6561209258023649,0.18018493691049514
1772786254945994500,2.652994384765625,-0.04770575402677059,-0.669225833503902,0.14497706460282206
1772786254956010500,2.663010498046875,-0.4483382262617349,-0.6120799778934568,0.17302374004423618
1772786254966027500,2.673027587890625,-0.8075807034879923,-0.525853098825179,0.15302600408904254
1772786254976043500,2.68304345703125,-0.9602905542999506,-0.42887503557465967,0.11864727608188987
1772786254986059500,2.6930595703125,-0.8748451444655656,-0.4160459491398185,0.053709780214540655
1772786254996075300,2.7030751953125,-0.6028811377197504,-0.5078934811014681,-0.007572261885181069
1772786255006091300,2.71309130859375,-0.4888865097492933,-0.7103234945025294,-0.05865892705451697
1772786255016108500,2.723108642578125,-0.4804916063696146,-1.1223749671787022,-0.06375263346433639
1772786255026124500,2.73312451171875,-0.3601297814548015,-1.4693410234168172,-0.03371609937995672
1772786255036140500,2.743140625,-0.17775193760991095,-1.725865468968451,-0.12141031105443835
1772786255046156300,2.75315625,-0.028974165549874305,-1.8271543446227907,-0.267111232952401
1772786255056172300,2.76317236328125,-0.06567103430628776,-1.8310500368870795,-0.4858721303641796
1772786255066189600,2.773189453125,-0.2661772400379181,-1.614365872684121,-0.7453072026655078
1772786255076205600,2.78320556640625,-0.7020914535343646,-0.9981282636545598,-0.9332205418709665
1772786255086221600,2.7932216796875,-1.4839847580581902,-0.036362997159548105,-0.8428099108446389
1772786255096237300,2.8032373046875,-2.1631822427392007,0.7820183922082186,-0.3834956786688417
1772786255106254600,2.813254638671875,-2.7365876951277253,1.0175628858342767,0.23035262407138943
1772786255116270600,2.8232705078125,-2.9755700542479753,1.094897323796898,0.6451761187441647
1772786255126286600,2.83328662109375,-3.071436904853582,1.2545340512625873,0.881405525894463
1772786255136302600,2.843302490234375,-2.884524340188503,1.3752483428768814,1.052391038109362
1772786255146318300,2.853318359375,-2.241603453025222,1.4276219425842165,1.269863137819618
1772786255156335400,2.86333544921875,-1.3417308348089456,1.6375339823037385,1.559737918178737
1772786255166351600,2.8733515625,-0.47834407294690606,1.9980590466864405,1.6184693624801934
1772786255176367600,2.88336767578125,0.07427285843491553,1.9796027680195867,1.2503922752827406
1772786255186383400,2.89338330078125,0.33422669391334053,1.8256530001491307,0.7603291960347444
1772786255196399400,2.9033994140625,0.531002480944991,1.6429839182727037,0.28671796029601243
1772786255206416400,2.91341650390625,0.7011591411203145,1.4284912727646528,0.02743230640273541
1772786255216432600,2.9234326171875,0.5650251620560884,1.1879578848101198,-0.01890983112063259
1772786255226448600,2.93344873046875,0.9527817861050367,1.04497228628546,-0.19662187511157242
1772786255236464400,2.94346435546875,0.8338321660757064,0.8980494213771074,-0.1026735714783892
1772786255246480400,2.95348046875,0.5040127672106027,0.9554682487100362,0.4523364290524274
1772786255256497400,2.963497314453125,0.3354319780498743,1.1180172103606163,0.9230107710890472
1772786255266513700,2.973513671875,0.33403730882108207,1.2060408731851726,1.283370123516023
1772786255276529700,2.98352978515625,0.5812468135386705,1.2686160603679715,1.699152818609774
1772786255286545400,2.99354541015625,1.0097241550326346,1.3199677696816623,2.0462028998695314
1772786255296561400,3.0035615234375,1.4654612593740224,1.419631528352201,2.298668279288709
1772786255306578400,3.013578369140625,1.7125895155489443,1.5979482602380215,2.479323829385638
1772786255316594400,3.023594482421875,1.768982433900237,1.7583806681260465,2.5104636485368013
1772786255326610700,3.033610595703125,1.665273053100705,1.9049780274070798,2.5232921504497527
1772786255336626400,3.04362646484375,1.3778899434268475,1.9992766057826576,2.5189848086446522
1772786255346642400,3.053642333984375,1.2678005062013864,2.12709985261932,2.4564301527932284
1772786255356659500,3.063659423828125,1.2940145593881607,2.0528305013157424,2.2957649590626357
1772786255366675500,3.073675537109375,1.2375550055414437,1.8280309813268483,2.099236424790323
1772786255376691500,3.08369140625,0.9030985945254564,1.5756461197979748,1.7382184623241423
1772786255386707500,3.09370751953125,0.42179567177295685,1.2676099520653485,1.180742619669065
1772786255396723500,3.103723388671875,-0.12249942146539687,0.9923873088497668,0.5706503815267234
1772786255406740500,3.113740478515625,-0.6994003147542476,0.6523996402569114,-0.06350216583460569
1772786255416756500,3.123756591796875,-1.0205588527798652,0.36253267787806687,-0.6657264470808207
1772786255426772500,3.1337724609375,-0.8514321201741695,-0.004851020227745175,-1.0881669926285744
1772786255436788500,3.14378857421875,-0.3934498672544956,-0.3285459813958034,-1.179274227616936
1772786255446804500,3.153804443359375,0.4677338316053152,-0.6172901868224143,-1.1973533435344694
1772786255456821500,3.163821533203125,0.9250158273011445,-0.8559108730234205,-0.9724540164329111
1772786255466837500,3.17383740234375,1.1496388216793536,-1.0956579329058527,-0.5785865813534706
1772786255476853200,3.183853271484375,1.2325900766104458,-1.1015006675846875,-0.07741291002631187
1772786255486869500,3.193869384765625,0.9462971002608537,-0.9426076711583882,0.3508496927384287
1772786255496885500,3.203885498046875,0.651772886660695,-0.6309914529819041,0.8515051123451441
1772786255506902500,3.213902587890625,0.47580432533621786,-0.363712096920982,1.3331275493755936
1772786255516918500,3.22391845703125,0.3123088766157627,-0.2634785024732351,1.6778271219864487
1772786255526934300,3.233934326171875,0.0353401934504509,-0.1796127630457282,1.8662173579886554
1772786255536950300,3.2439501953125,-0.22376783885359763,-0.09531243159323931,1.9422497734420001
1772786255546966500,3.253966552734375,-0.29015491247475145,-0.08475976565778255,1.9741047551251947
1772786255556983600,3.263983642578125,-0.316181918656826,-0.15731113406233488,1.8999369644999502
1772786255566999600,3.27399951171875,-0.27365561309456826,-0.2974767067302018,1.7088816009417176
1772786255577015000,3.28401513671875,-0.23390052581131457,-0.45747218450568616,1.4416355626285076
1772786255587030800,3.29403076171875,-0.3502706507414579,-0.6735861476052553,1.0672736230079083
1772786255597046800,3.304046875,-0.614060703381896,-0.8076949775174259,0.6700149380549788
1772786255607063800,3.314063720703125,-0.7640566190600395,-0.8426270285584032,0.2761354472115636
1772786255617080000,3.324080078125,-0.6566372778266668,-0.8907309881225228,-0.0007554945424199104
1772786255627096000,3.334095947265625,-0.2833516622006893,-0.9276499751970171,-0.11758731870017945
1772786255637111800,3.34411181640625,0.1142851353496313,-0.9436782229993492,-0.08427176294513046
1772786255647127800,3.3541279296875,0.4179407499104738,-0.9630719286467879,0.05678009103797376
1772786255657143800,3.364143798828125,0.42513738341629503,-0.8088714008856565,0.4251479778755456
1772786255667161000,3.3741611328125,-0.3101034755259752,-0.46770599375031885,1.032149191199988
1772786255677176800,3.3841767578125,-0.14227788864672183,-0.24788608880490062,1.1398352936107665
1772786255687192800,3.39419287109375,0.1251648412823677,-0.2667578164048493,1.041193352268636
1772786255697208800,3.404208740234375,0.359155383464694,-0.44385077864937483,1.019247331789881
1772786255707224800,3.414224853515625,0.36211657135784625,-0.5454175944622606,1.1094510420672594
1772786255717242000,3.4242421875,0.34651392855644225,-0.4561122943293303,0.9941510305866599
1772786255727257900,3.4342578125,0.18336860844790934,-0.4357490129973739,1.0500114494964479
1772786255737273900,3.44427392578125,0.4036456825762987,-0.479314452349022,0.948703430750221
1772786255747289900,3.454289794921875,0.5506272188693284,-0.6207846778746694,0.9863426949232816
1772786255757305900,3.464305908203125,0.8024906868726015,-0.739903224730119,0.522196074154973
1772786255767323000,3.474322998046875,0.5175543858289718,-0.8877253765657543,0.2762512556109577
1772786255777339000,3.4843388671875,0.07202361820340156,-1.0287079647049306,0.39690475694872435
1772786255787355000,3.49435498046875,0.0972580127030611,-1.0063000988680868,0.5510629799380898
1772786255797371000,3.504370849609375,0.20939327654242515,-0.9675200671620666,0.7210602117680013
1772786255807387000,3.514386962890625,0.07657762824594974,-1.0154798690151423,0.9047358403384685
1772786255817404000,3.52440380859375,-0.13027297807633875,-1.1845301023185253,1.0384216225329785
1772786255827420000,3.534419921875,-0.37616789306402204,-1.2987690604388713,1.2071190238106995
1772786255837436000,3.544435791015625,-0.8120651554256677,-1.197498743354529,1.346530636306107
1772786255847452000,3.554451904296875,-1.0812024143129586,-1.0051988596279173,1.4230332996197044
1772786255857468000,3.564468017578125,-1.1901321601092816,-0.7802649726696312,1.5790750713333486
1772786255867485000,3.57448486328125,-1.501104235163331,-0.5768962901789695,1.7860763381727038
1772786255877500700,3.584500732421875,-2.0967864012897013,-0.24281039297580717,1.8507615763120353
1772786255887517000,3.594516845703125,-2.6454151398181915,0.06261895325928926,1.7852298043459653
1772786255897533000,3.604532958984375,-2.9812545296251773,0.20319054944477974,1.515247180675715
1772786255907549000,3.614548828125,-2.91024856403172,0.25159049628078933,1.1482562812797725
1772786255917565000,3.62456494140625,-2.3192624467670915,0.21807583775706588,0.8451208181355148
1772786255927581700,3.634581787109375,-1.6062240672826766,0.3411724213980138,0.6684430125631392
1772786255937598000,3.644597900390625,-0.9588438626229763,0.5958582533456385,0.757349230375886
1772786255947614000,3.654614013671875,-0.5555787037968635,0.7904012398239225,1.0542899305332452
1772786255957630000,3.6646298828125,-0.024438860207796096,1.0681227141179144,0.6569923748746513
1772786255967646000,3.67464599609375,0.1652759023964405,1.252158554302901,0.3461145539753139
1772786255977662700,3.684662841796875,-0.03709083651006222,1.2908527343563734,0.19808805694030596
1772786255987678700,3.6946787109375,-0.40704175475537774,1.396521870921552,0.13163762662620282
1772786255997695000,3.704695068359375,-0.6350152286052704,1.4534738844603299,0.14295071900752374
1772786256007711000,3.7147109375,-0.5468856942534447,1.331025024138391,0.03963208652467001
1772786256017727000,3.72472705078125,0.1792927373111248,0.9442632563456892,-0.32685404625348746
1772786256027743700,3.73474365234375,1.1708604734063148,0.4843447016011923,-0.8812188442159443
1772786256037759700,3.744759765625,1.8262673326551913,0.1982789581362158,-1.4506297470755873
1772786256047776000,3.75477587890625,1.9606372246563433,0.034325865308754144,-2.0461178519345817
1772786256057792000,3.7647919921875,1.4474322662085295,-0.142409990593791,-2.3935901041291654
1772786256067808000,3.77480810546875,0.4774626139372587,-0.42117870891839265,-2.545539345832169
1772786256077824800,3.78482470703125,-0.3461018406242132,-0.6854455122251063,-2.6448873165518045
1772786256087840800,3.7948408203125,-0.9193009567856788,-0.9257403421834111,-2.460244450384378
1772786256097857000,3.80485693359375,-1.2170733585268259,-1.1334802985608576,-1.9427182677365837
1772786256107873000,3.814873046875,-1.4331886368006468,-1.2882735315181315,-1.4484128016784785
1772786256117889000,3.824888916015625,-1.5812895325124263,-1.258602031353861,-1.0673747452948241
1772786256127904800,3.83490478515625,-1.358535839137435,-1.1573638629734515,-0.6049461074255407
1772786256137921800,3.844921875,-1.0775894845128058,-1.0856132164925336,-0.13572278618114067
1772786256147937800,3.854937744140625,-0.8467869247168303,-0.9317024654582142,0.2167483337466605
1772786256157954000,3.8649541015625,-0.4206698826134205,-0.6509528755147009,0.4444973329246044
1772786256167970000,3.874969970703125,0.003525836038589477,-0.3206962542761117,0.6219456844780594
1772786256177985800,3.88498583984375,0.3033990094512701,-0.21549868074543774,0.6931845089793205
1772786256188002800,3.8950029296875,0.5404869331270457,-0.13279416711702943,0.6919149274349212
1772786256198018800,3.905018798828125,0.7441963188141584,0.004299213297571987,0.7545229209087788
1772786256208035000,3.91503515625,0.8631921160727739,0.15543803366683423,0.8843053389891982
1772786256218051000,3.925051025390625,0.9603355624854564,0.3262030715314671,0.9393366866637021
1772786256228066800,3.93506689453125,1.0399772544771433,0.48599487996101376,0.9105702455803751
1772786256238083800,3.945083740234375,0.9097674047648906,0.6844592776667326,0.7439390561174601
1772786256248099800,3.955099853515625,0.839875537893176,0.7880122988607734,0.5110075945340097
1772786256258115800,3.96511572265625,0.8875006278991698,0.8914808566417545,0.3794687612403184
1772786256268132000,3.975132080078125,0.973394950544834,0.9156170806411653,0.21393839089246466
1772786256278147800,3.98514794921875,1.2128256379544735,0.7702301931284368,0.03317278628349304
1772786256288164900,3.995164794921875,1.3848562753081322,0.5218598644705489,0.024373795614950358
1772786256298180900,4.005180908203125,1.5480869356125593,0.2626919917380437,0.0727225602529943
1772786256308196900,4.01519677734375,1.9533768782645462,0.28896762065263465,-0.5041445768967271
1772786256318212900,4.025212890625,1.991242790800333,0.29781309907771647,-0.940977366542816
1772786256328228900,4.035228759765625,1.8481360501140356,0.1919271779567003,-1.0860939126815645
1772786256338244900,4.045244873046875,1.7106109089523553,0.03311453502392396,-1.1104201062951236
1772786256348262000,4.055261962890625,1.5897966640949248,-0.15867619360415264,-1.1237979857191442
1772786256358278000,4.06527783203125,1.266754796540737,-0.3773904205963015,-0.939807299850136
1772786256368294000,4.0752939453125,1.0013853657543659,-0.6049100497314706,-0.8293059938881546
1772786256378310000,4.085309814453125,0.8007324450284242,-0.7438287276107818,-0.7960714674800634
1772786256388326000,4.095325927734375,0.6806728179305791,-0.8116601548213511,-0.6958736019328237
1772786256398343000,4.105343017578125,0.6071066464602947,-0.8449987991910427,-0.48221762644462285
1772786256408359000,4.11535888671875,0.3274737125217914,-0.9032190060347318,-0.22853046841183677
1772786256418374700,4.125374755859375,-0.004055412870645523,-0.9480672517385333,-0.07192183832935989
1772786256428391000,4.135390869140625,-0.11307517503798008,-0.9556295036863535,0.17913299843845887
1772786256438407000,4.145406982421875,-0.251628490203619,-1.026998822699487,0.4320589993730187
1772786256448423000,4.1554228515625,-0.5241378558725118,-1.118431636380404,0.5562578451674431
1772786256458440000,4.16543994140625,-0.5880372043311596,-1.1544866270367056,0.5284594088660552
1772786256468455700,4.17545556640625,-0.32749826244115826,-1.1140352280523627,0.43561833582241083
1772786256478472000,4.185471923828125,0.004235445612668991,-1.0048416436880827,0.3801324858460575
1772786256488488000,4.195488037109375,0.22110592616796493,-0.9254989346429705,0.3924946854215115
1772786256498504000,4.20550390625,0.314089330291748,-0.8964638326860964,0.25946312935203314
1772786256508521000,4.21552099609375,0.28647826978862284,-0.9117742876078933,-0.06312973405933008
1772786256518536700,4.22553662109375,0.10989829856753348,-0.9911543329887091,-0.4609343076582998
1772786256528552700,4.235552734375,-0.048183308410644526,-1.0865815500680356,-0.7787931465514004
1772786256538569000,4.24556884765625,-0.12448738041222095,-1.196306172569096,-0.882622354338318
1772786256548585000,4.2555849609375,-0.3478782026469707,-1.3340361886531114,-0.9741530023705214
1772786256558601000,4.26560107421875,-0.5136550403028727,-1.5967495519727468,-1.2392039417922496
1772786256568617700,4.27561767578125,-0.359047246915102,-1.8492311518743634,-1.4514591836370527
1772786256578634500,4.285634521484375,0.008286766830086707,-1.9698354072429238,-1.5073581809915602
1772786256588650500,4.295650390625,0.47509237767457957,-1.8860675752319394,-1.4430305241182446
1772786256598666500,4.30566650390625,0.7006319023758173,-1.733155625976622,-1.3060165473490952
1772786256608682500,4.3156826171875,0.6847042654037475,-1.5510525074198842,-1.3318281572148203
1772786256618699500,4.325699462890625,0.257879951813817,-1.242200931651145,-1.6145593494296073
1772786256628715500,4.335715576171875,-0.7084469600409269,-0.740456328568235,-2.1371667808644474
1772786256638731500,4.3457314453125,-1.8950690662026404,0.2673300816011615,-2.341229363903403
1772786256648747500,4.35574755859375,-2.848072970625758,1.213815233513713,-1.629327002711594
1772786256658763500,4.365763427734375,-3.4938194366037845,1.575017174244672,-0.4446847817881033
1772786256668779300,4.375779296875,-3.6205484584629533,1.6981417418710887,0.6828585644718259
1772786256678796500,4.385796630859375,-3.076541534516215,1.8376710624620318,1.7343660246796906
1772786256688812500,4.3958125,-2.4568331806361674,1.801293634918332,2.491182901744544
1772786256698828500,4.40582861328125,-1.864373483687639,1.6679786587975918,2.755766442850232
1772786256708844500,4.415844482421875,-1.4787082789599895,1.7184996163755655,2.737541342590749
1772786256718860300,4.4258603515625,-1.006038159996271,1.2076389560315757,1.8475708174467085
1772786256728876300,4.435876220703125,-0.25049744034707544,0.7706774254392832,0.1616276090219617
1772786256738893600,4.4458935546875,0.2575005971074104,0.48753155147638166,-1.1310459840860216
1772786256748909600,4.45590966796875,0.6659428663104772,0.336187070733495,-1.8675749100774526
1772786256758925300,4.46592529296875,0.8672475289434194,0.3242122995730489,-2.082233705932647
1772786256768941300,4.47594140625,0.9456588023573159,0.46634380201902237,-2.05352973562628
1772786256778957300,4.485957275390625,0.7608978627681732,0.7934414112374186,-1.62716164137125
1772786256788974600,4.495974609375,0.6634574792355299,1.16636097002998,-0.8703723829656839
1772786256798990600,4.505990478515625,0.87804481728971,1.539379605282843,-0.1164291616410017
1772786256809006300,4.51600634765625,1.3290981477290391,1.8054668289497493,0.6307727687299252
1772786256819022300,4.526022216796875,1.8671417793571947,1.8779802764967082,1.2368231841355561
1772786256829038300,4.536038330078125,2.1159026051700116,1.7414906158626078,1.5900355874173342
1772786256839054600,4.5460546875,2.1536989596009253,1.535431452178955,1.7352978987023233
1772786256849071600,4.556071533203125,1.9758610972732304,1.469254368046671,1.8284730260059237
1772786256859087400,4.56608740234375,1.6014993768483399,1.6014792108431457,1.8893240928098558
1772786256869103400,4.576103271484375,1.2728022600114344,1.839834085714817,1.8926240111380814
1772786256879119400,4.586119384765625,1.0604846204549074,2.1131118054077027,1.8632631843581795
1772786256889135400,4.59613525390625,0.9111468764245509,2.28925236229822,1.7889719134837387
1772786256899151600,4.606151611328125,0.6020861879497766,2.3493472039073704,1.5785960556447505
1772786256909168400,4.61616845703125,0.28649697448909284,2.2888243461444975,1.2283759660467504
1772786256919184400,4.626184326171875,0.11814064173400401,2.149016208612174,0.7965215493351221
1772786256929200400,4.636200439453125,0.026932430589199065,1.9116369007743894,0.4400197491191327
1772786256939216400,4.64621630859375,0.0019359364986419676,1.6934556298814714,0.21434625930730253
1772786256949232600,4.656232666015625,0.042265608799457545,1.1331931521825491,0.04511866014301777
1772786256959249400,4.66624951171875,0.10781973872780799,0.3121739251244813,-0.28929632288403806
1772786256969265400,4.676265380859375,0.4359890322983265,0.060681208396051074,-1.070533720782399
1772786256979281400,4.686281494140625,0.4508867417007684,-0.07456585003212093,-1.6724014436759054
1772786256989297400,4.69629736328125,0.5726175168812274,-0.18452462834892794,-1.9430670811742543
1772786256999313400,4.7063134765625,0.8119365606099367,-0.19008794329818338,-1.7256142706863582
1772786257009329700,4.71632958984375,0.49381344475746153,-0.05630100228413939,-1.1291617047093807
1772786257019346400,4.726346435546875,0.2413496727734804,0.04050243505183607,-0.5891719074495136
1772786257029362400,4.736362548828125,0.06912555867433548,0.12989084689095615,-0.06820457137189805
1772786257039378400,4.74637841796875,-0.12890870398581028,0.1998883660942316,0.40346119285486637
1772786257049394400,4.75639453125,-0.08596680335998534,0.23987773705739526,0.7645699754096568
1772786257059410700,4.76641064453125,0.07643851203620433,0.21485388003587721,1.0596098834469914
1772786257069426400,4.776426513671875,0.15482406648695468,-0.11557027978934346,1.1152849358525128
1772786257079443500,4.786443359375,0.24553660306930541,-0.1444669231235981,1.1794601055778562
1772786257089459500,4.79645947265625,0.3566688273459673,-0.09215579419322312,1.2703745944730938
1772786257099475500,4.806475341796875,0.3950532107979059,-0.04217588468939066,1.4050417158551514
1772786257109491500,4.816491455078125,0.28822540571689603,-0.0715027361344546,1.400748256444931
1772786257119507500,4.826507568359375,0.07499298940300941,-0.24876177566088734,1.2586496698878704
1772786257129523500,4.8365234375,-0.029898294657468794,-0.3764755707737058,1.1254983598962425
1772786257139540500,4.84654052734375,-0.051665305307507514,-0.32785452853292224,0.9375899160616099
1772786257149556500,4.856556396484375,-0.05189560693204403,-0.3871066357076168,0.6968254958301782
1772786257159572500,4.866572509765625,0.016838322076201437,-0.5915573412813246,0.39786545520704236
1772786257169588500,4.87658837890625,0.04055705131590366,-0.7154790506348013,0.049987809682497754
1772786257179604500,4.8866044921875,-0.011060907718539237,-0.6454813122358173,-0.17520663704127074
1772786257189620500,4.896620361328125,-0.10090367572903633,-0.5427773090865463,-0.35878030307460573
1772786257199637500,4.906637451171875,-0.07332768653929234,-0.521327913018316,-0.524871942300722
1772786257209653500,4.916653564453125,0.061471244528889656,-0.5294035943809896,-0.6026833135927095
1772786257219669500,4.92666943359375,0.20961597938239573,-0.4848115153953433,-0.49750955932904034
1772786257229685500,4.936685546875,0.2646159820705652,-0.3817432089783251,-0.23180938048465177
1772786257239701500,4.946701416015625,0.2527513567537069,-0.3263512112978846,0.016345999381458386
1772786257249718500,4.956718505859375,0.09911211613714695,-0.3107669078707695,0.1828226650029421
1772786257259734300,4.966734375,0.0028887071788311004,-0.4808360358931124,0.3799554487787187
1772786257269750300,4.976750244140625,-0.105344873046875,-0.7250828183475881,0.5296898274438455
1772786257279766500,4.9867666015625,-0.21997779892086983,-0.947081528636813,0.5331601704355329
1772786257289782500,4.996782470703125,-0.31976912949383257,-1.0786944500800222,0.48259088020380586
1772786257299798500,5.006798583984375,-0.4249363078862428,-1.0832532093629241,0.4318482792317867
1772786257309815300,5.016815185546875,-0.5829524484127759,-1.0130499384544789,0.4181320712314918
1772786257319831300,5.026831298828125,-0.615765169212222,-0.9941631594158709,0.4959319712813943
1772786257329847600,5.03684765625,-0.49225160226821896,-0.9787691178638488,0.610913856723532
1772786257339863600,5.046863525390625,-0.41592473391294477,-0.9819599497944116,0.7484539762586355
1772786257349879600,5.056879638671875,-0.4879711484700441,-0.9343561217721551,0.8691145649243146
1772786257359895600,5.0668955078125,-0.39086394241452216,-0.8118853418793529,0.8084449191018939
1772786257369912300,5.076912353515625,-0.04208616057932377,-0.7003926137272268,0.6367234207626432
1772786257379928300,5.08692822265625,-0.12844342456161975,-0.4195313070375472,0.5468977134848013
1772786257389944600,5.096944580078125,-0.5120686478942632,-0.0994656057499349,0.6728219582997262
1772786257399960600,5.106960693359375,-0.8892103544265031,0.07634761888235807,0.8429296647667884
1772786257409976600,5.1169765625,-1.2730559425115584,0.15228205385394394,0.8850525771599262
1772786257419992300,5.126992431640625,-1.6404764654964208,0.2526495768796652,0.8829382153544575
1772786257430009300,5.13700927734375,-2.0224971762418744,0.3062791679974645,0.8260997451927512
1772786257440025600,5.147025634765625,-2.24112180698812,0.40680809212997554,0.6267890328560024
1772786257450041600,5.15704150390625,-1.9345833304673432,0.49921106601729986,0.3451241546984762
1772786257460057600,5.1670576171875,-1.306339787954092,0.5747613239768892,0.2018204301353544
1772786257470073300,5.1770732421875,-0.47854865560829635,0.6888871040463447,0.3184045266097411
1772786257480089300,5.18708935546875,0.08591419638991356,0.8044303496982902,0.4637639781262725
1772786257490106600,5.197106689453125,0.3806944305777549,0.9133305040739477,0.6011021453484893
1772786257500122600,5.20712255859375,0.4711842643201351,1.0155847176291048,0.7816372108709067
1772786257510138600,5.217138671875,0.5169026439219713,1.179910918085277,0.9073992143288254
1772786257520154400,5.227154296875,0.5705769509643316,1.368656397265941,0.9525026769027113
1772786257530170400,5.23717041015625,0.5783610289692879,1.5297453693665564,0.881869928535819
1772786257540186400,5.247186279296875,0.44646717169284816,1.5664802320457993,0.6684203623399138
1772786257550203600,5.25720361328125,0.30915070484578605,1.5313653717838227,0.295882204080373
1772786257560219600,5.2672197265625,0.1867991674184799,1.4711194312661886,-0.2245304937891662
1772786257570235400,5.2772353515625,0.13049451187252997,1.2940133903443813,-0.856024708661437
1772786257580251600,5.287251708984375,0.22512626772522926,1.0675563124068081,-1.5813333716541529
1772786257590267600,5.297267578125,0.37947511791586874,0.8138832376983016,-2.2223773590296507
1772786257600283600,5.30728369140625,0.3335439723461866,0.5231462510192767,-2.5312217744052408
1772786257610300700,5.31730078125,0.09003799832165241,0.22401856221165506,-2.378290974318981
1772786257620316700,5.327316650390625,0.04062719394266605,0.10641100444104522,-2.799992830328643
1772786257630332700,5.337332763671875,-0.45148879924714563,-0.10660722113288938,-2.93880128929913
1772786257640348700,5.3473486328125,-0.8957038080990314,-0.45833895740285513,-2.8632626487120985
1772786257650364700,5.35736474609375,-1.0482459011286496,-0.6602009616576134,-2.333180497482419
1772786257660380700,5.367380615234375,-0.9260083454698324,-0.8932133795227855,-1.400315125724673
1772786257670397700,5.377397705078125,-0.5443816024780274,-1.0221434916228056,-0.872579391490668
1772786257680413700,5.38741357421875,-0.29393209292590616,-1.0250629592660814,-0.659926309434697
1772786257690429700,5.3974296875,-0.17382979573011398,-0.9782036660008132,-0.43460952410604803
1772786257700445700,5.40744580078125,0.07757365354597567,-0.8781886096745729,-0.12065874376846476
1772786257710461700,5.417461669921875,0.5072597863078117,-0.7000916580192744,0.08026276476578786
1772786257720477700,5.427477783203125,0.886905584615469,-0.5711333792706951,0.22318536279052495
1772786257730493700,5.43749365234375,0.9227151491433382,-0.5120371933100745,0.4775643938113004
1772786257740510700,5.4475107421875,0.8856044388890266,-0.4733929898781702,0.6474586036581546
1772786257750526700,5.457526611328125,0.7873410485357045,-0.3654256228405982,0.6781516288898884
1772786257760542700,5.467542724609375,0.6439513992547988,-0.1502039689382538,0.5944654838129878
1772786257770558700,5.477558837890625,0.5910960073798894,0.06953607570398598,0.5613027439994737
1772786257780574700,5.48757470703125,0.6473281822115182,0.2075054900344461,0.5796934466168284
1772786257790590700,5.4975908203125,0.8039782950818538,0.19846593207567928,0.47257780103776603
1772786257800607700,5.507607666015625,0.9178922590315342,0.17082085970509797,0.17280434340620413
1772786257810623700,5.517623779296875,0.965823053985834,0.14135796079020946,-0.11647930265935137
1772786257820639500,5.527639404296875,1.0091074844390153,0.08529626542096957,-0.35010742300376296
1772786257830655700,5.53765576171875,0.9926303968906403,-0.004362798319384456,-0.5246281601401046
1772786257840671700,5.547671630859375,0.838318371579051,-0.19234313834644853,-0.7523495223924517
1772786257850687700,5.557687744140625,0.6286684899270534,-0.3622285438323393,-1.0083538895927369
1772786257860704800,5.567704833984375,0.42323184205591674,-0.5576616840833798,-1.219968349315971
1772786257870720500,5.577720458984375,0.30892215678691864,-0.7091385955668985,-1.3487046193443237
1772786257880736800,5.58773681640625,0.5143997211903333,-0.8670733414202928,-1.3618158837214112
1772786257890752800,5.597752685546875,0.7924772423803805,-1.015142234558612,-1.2072218996632844
1772786257900768800,5.607768798828125,1.024684408277273,-1.1020941034331917,-0.9154955000881105
1772786257910784800,5.61778466796875,1.0828799921363592,-1.1041913679733872,-0.6094208782194181
1772786257920801500,5.627801513671875,0.9644237085819244,-1.1273144694074988,-0.37639618539456277
1772786257930817500,5.637817626953125,0.7940209646910429,-1.2153446350380777,-0.21057048536194486
1772786257940833800,5.647833740234375,0.575604423737526,-1.34928490345031,-0.0692367822301574
1772786257950849800,5.657849853515625,0.44689562623798845,-1.37535326455608,0.048624658969976
1772786257960865800,5.66786572265625,0.19106676173508166,-1.3142448619902134,0.17607826877664773
1772786257970881800,5.6778818359375,0.15209318021833895,-1.253749330625683,0.30232487741373476
1772786257980897800,5.687897705078125,0.3951765449166298,-1.1616994079597294,0.3619082989020273
1772786257990914800,5.697914794921875,0.6272814194828271,-1.125183156467229,0.31265820151008666
1772786258000930800,5.707930908203125,0.6857640035897493,-1.1040712487250566,0.175857940556854
1772786258010946800,5.71794677734375,0.5914087265908717,-1.0393826495848595,-0.036250951619818804
1772786258020962800,5.727962890625,0.34326690945923327,-1.0151282060332596,-0.1796411488899961
1772786258030978600,5.737978515625,0.06924830827116966,-0.9937398925025015,-0.2354589342344552
1772786258040994600,5.74799462890625,-0.17314941225051877,-0.9689660281866789,-0.31440014980658887
1772786258051011800,5.75801171875,-0.2618663911014795,-0.9957504286073148,-0.4228715939087793
1772786258061027800,5.76802783203125,-0.2248755078345537,-1.0382022806938738,-0.4886677889646962
1772786258071043800,5.7780439453125,-0.20137071360647676,-1.0608097607560456,-0.5621474511953071
1772786258081059600,5.7880595703125,-0.24018004447221755,-1.0765954319741575,-0.6442101963214576
1772786258091075600,5.79807568359375,-0.22097791587412355,-1.042903590252623,-0.6713444330930709
1772786258101091600,5.808091552734375,-0.20708207699060438,-1.080458025686443,-0.6941955126527697
1772786258111108900,5.81810888671875,-0.21199965964853762,-1.157481205742806,-0.7926862089559435
1772786258121124900,5.828124755859375,-0.4522258813500404,-1.2478348458848894,-1.0735882860474288
1772786258131140600,5.838140625,-0.8764847283661364,-1.328043524109572,-1.727767503197491
1772786258141156600,5.848156494140625,-1.4359721300393342,-1.263516691402346,-2.52945125760138
1772786258151172600,5.858172607421875,-2.319086505678296,-0.8957385140862315,-3.008580927968025
1772786258161188600,5.868188720703125,-3.3051679193168875,-0.22132594386050478,-2.455043082349002
1772786258171204900,5.878204833984375,-3.7921442115306854,0.5688902765190228,-1.1899011278323828
1772786258181221600,5.8882216796875,-3.5041871013611554,1.0567042251333594,-0.02515022334754467
1772786258191237600,5.898237548828125,-2.6837223663806915,1.0623439115207642,0.83666278639175
1772786258201253600,5.908253662109375,-2.04598677290082,1.0593831620190293,1.3590277143076062
1772786258211269600,5.91826953125,-1.3724462910681963,1.1449673958022146,1.6861153501212596
1772786258221286000,5.928285888671875,-0.8043295927375554,1.2604052813835442,1.8303300520494579
1772786258231302000,5.938302001953125,-0.3476695283323526,1.189492912357673,1.59157287998721
1772786258241318700,5.948318603515625,0.08757306951284408,0.9248688200458883,0.8492468850895762
1772786258251334700,5.958334716796875,0.6242442437440157,0.7256619334097951,-0.011955536737013607
1772786258261350700,5.9683505859375,1.0639046580314635,0.5779745869349688,-0.5705659911789
1772786258271367000,5.978366943359375,1.3043027291685343,0.45941027642879634,-0.7972951640561222
1772786258281383000,5.9883828125,1.3292910399526356,0.46258616651855405,-0.8157828607745468
1772786258291398700,5.998398681640625,1.21572311296165,0.5346039029704407,-0.7404686765931546
1772786258301414700,6.00841455078125,1.0528431657910347,0.6274636441819369,-0.6388126481268555
1772786258311431700,6.018431640625,0.8330804709255695,0.7864492873277514,-0.4907315896267071
1772786258321447700,6.02844775390625,0.7631909421414137,0.9289544819243252,-0.28673065538080406
1772786258331464000,6.0384638671875,0.8112690366119146,1.1263742659479379,0.0027586761745507825
1772786258341479700,6.048479736328125,0.765862791699171,1.331529612659663,0.2696239464256912
1772786258351495700,6.05849560546875,1.102571365556121,1.4619767782591282,0.5865390016626566
1772786258361511700,6.06851171875,1.5123270554453134,1.5265468655861913,0.9502555555630475
1772786258371528700,6.07852880859375,1.6761919220000505,1.588287428575754,1.2457374352142214
1772786258381544700,6.088544677734375,1.6826900518476962,1.597799791678041,1.4292320081293581
1772786258391560700,6.098560791015625,1.5261737944900988,1.5366525184065103,1.469164205545187
1772786258401576700,6.10857666015625,1.1513660838633775,1.442949567836523,1.3463101254232226
1772786258411592700,6.1185927734375,0.6718401076555252,1.3097218316078185,1.1257671669002622
1772786258421608700,6.128608642578125,0.5434539662390947,1.1725381973601876,1.0765526157457381
1772786258431624700,6.138624755859375,0.6263391701966524,1.0040653986185788,1.2372457934617995
1772786258441641700,6.148641845703125,0.5196890597701073,0.9074847737204282,1.3855803517989813
1772786258451657700,6.15865771484375,0.21316578081846235,0.9149326785735785,1.4019441882312298
1772786258461673700,6.168673828125,-0.22118483662307262,1.0192772885367274,1.3477974413715301
1772786258471689700,6.178689697265625,-0.5396691870033741,1.1213467201095073,1.3314075937151908
1772786258481705700,6.188705810546875,-0.6207938110291957,1.19661808806248,1.3492388723514974
1772786258491721700,6.1987216796875,-0.49218204416334627,1.3063833348348737,1.3994804284662008
1772786258501737700,6.20873779296875,-0.32510815243422986,1.3751824380338191,1.3792831513509154
1772786258511754800,6.218754638671875,-0.18598726651370523,1.3619862718522548,1.249449441474676
1772786258521770800,6.228770751953125,-0.09770984812378883,1.2052718615740536,0.9549150718066841
1772786258531786800,6.238786865234375,-0.11730945160686969,0.9533003300864249,0.587393426534906
1772786258541802800,6.248802734375,-0.09648819737434387,0.7296556792210787,0.19359832603931426
1772786258551818500,6.258818603515625,-0.1559948638319969,0.598263268660754,-0.19656751457583158
1772786258561834800,6.268834716796875,-0.25128654489815233,0.46059349486399437,-0.5293285563834011
1772786258571851800,6.278851806640625,-0.2616512870460749,0.320345614207536,-0.6625901948817073
1772786258581867800,6.28886767578125,-0.19592823029160497,0.24912710184194145,-0.581519383402355
1772786258591883800,6.2988837890625,0.023857260927557945,0.27929420350342987,-0.40527109182104465
1772786258601899500,6.3088994140625,0.24851941827237606,0.4690627421215176,-0.16599336648341267
1772786258611915500,6.31891552734375,0.524005169403553,0.703491018133983,0.1424571907363832
1772786258621931500,6.328931640625,0.8562088330566883,0.9377130309846252,0.4526542628299445
1772786258631947500,6.338947509765625,1.050656469401717,1.128391743250191,0.6748778679162264
1772786258641964800,6.34896484375,1.037180317234993,1.2747300132036208,0.8242567476745695
1772786258651980500,6.35898046875,0.8748474825531244,1.3164512859933077,0.8976594722114503
1772786258661996500,6.36899658203125,0.584988922676444,1.2738985308155417,0.8839994879104196
1772786258672012500,6.379012451171875,0.34813480775654315,1.229156302769482,0.8207236781775951
1772786258682028500,6.389028564453125,0.332879370957613,1.203365516496077,0.819454169698432
1772786258692044500,6.39904443359375,0.42937633616030213,1.1573243346806614,0.846569190312922
1772786258702060800,6.409060791015625,0.5242039068460465,1.1317722525339573,0.8175327731817961
1772786258712077600,6.41907763671875,0.5477595544785261,1.0555533015325664,0.748485028984025
1772786258722093600,6.429093505859375,0.5009329213738442,0.9893119199924171,0.6900679113287478
1772786258732109600,6.439109619140625,0.4422732271343469,0.9271752703573555,0.5955092572448775
1772786258742125600,6.44912548828125,0.2965548426449299,0.8539632460869848,0.4425282248087227
1772786258752141600,6.4591416015625,0.16894377725422383,0.7594268403675407,0.27125695445500314
1772786258762157600,6.469157470703125,0.002167407166957855,0.6325859556317329,-0.016038988392055035
1772786258772173600,6.479173583984375,-0.15161796392202376,0.5005111888304352,-0.36171778129860754
1772786258782190600,6.489190673828125,-0.4118371723383665,0.3902820143407211,-0.3309694091504439
1772786258792206600,6.49920654296875,-0.5138116921693087,0.41224743363969024,-0.6880667275741696
1772786258802222600,6.50922265625,-0.34568507651686664,0.4397533532679081,-1.0004280650295316
1772786258812238600,6.519238525390625,-0.43092648821175095,0.33372144780494273,-0.8480155166637152
1772786258822254600,6.529254638671875,-0.4083481611788273,0.15708664112407714,-0.539390844986029
1772786258832270600,6.5392705078125,-0.22993220670223236,-0.0001613097752444446,-0.42306357281692325
1772786258842286600,6.54928662109375,-0.006059738430380821,-0.11324397399993613,-0.40041908521261066
1772786258852303600,6.5593037109375,0.29103052626550197,-0.1782002476329915,-0.4166486277407035
1772786258862319600,6.569319580078125,0.5917793134689331,-0.20519805334229022,-0.4337147672234103
1772786258872335600,6.579335693359375,0.5012719440698623,-0.2181388199906796,-0.4620488813040778
1772786258882351600,6.5893515625,0.17970014906823634,-0.16734023278141394,-0.3519598459374159
1772786258892367600,6.59936767578125,-0.13655249673724174,-0.04733277426222339,-0.15343582699894903
1772786258902383600,6.609383544921875,-0.5583879159986972,0.05495473877433687,-0.04727828586231917
1772786258912399600,6.619399658203125,-1.136844222036004,0.11425653030965477,-0.022034392881952226
1772786258922416600,6.629416748046875,-1.7179975120723248,0.15171773450206966,-0.1566968746215105
1772786258932432600,6.6394326171875,-1.7101158189117907,0.16422297754371537,-0.06296869827872142
1772786258942448600,6.64944873046875,-1.2793909907519816,0.17163959220945835,0.2908893459628336
1772786258952464600,6.659464599609375,-0.7923392952144146,0.22370255506504325,0.5902401212029159
1772786258962480600,6.669480712890625,-0.4412006294667721,0.3405349272120744,0.7365393012549728
1772786258972496400,6.679496337890625,-0.2998229045301676,0.46467904714457686,0.7471681742317974
1772786258982512400,6.689512451171875,-0.24462884057462214,0.5641535668533295,0.682853742166236
1772786258992529700,6.69952978515625,-0.03621230010986328,0.612242949902825,0.5344171116940677
1772786259002545700,6.709545654296875,0.287020706102252,0.5447437868539243,0.3809802983144298
1772786259012561700,6.719561767578125,0.5809229884117841,0.4370100824417546,0.23287377657946198
1772786259022577400,6.729577392578125,0.6101911684721708,0.38920682285726066,0.06768127815015614
1772786259032593400,6.739593505859375,0.44696869147419926,0.3536434151101857,-0.14423220105227083
1772786259042609700,6.749609619140625,0.29046996977329254,0.3741809570305049,-0.28013408839367326
1772786259052625700,6.759625732421875,0.10029109678864478,0.39571068832594897,-0.35106158192344006
1772786259062642700,6.769642578125,-0.06782558199167252,0.37508495666552333,-0.4426436313493177
1772786259072658400,6.779658447265625,-0.09925590852200984,0.3029521424666047,-0.588140299379453
1772786259082674400,6.78967431640625,0.02502513566315174,0.22930165371373296,-0.7340444887645542
1772786259092690700,6.799690673828125,0.33887948815524577,0.17217030155267565,-0.6913165231503546
1772786259102706700,6.809706787109375,0.6457891360759734,0.12627285732319576,-0.5272662900913506
1772786259112722700,6.81972265625,0.8266057219535112,0.1436863032730762,-0.3290054521337151
1772786259122738700,6.82973876953125,0.8779922103196383,0.24164240864235906,-0.17465813631303606
1772786259132755500,6.83975537109375,0.7267687986731529,0.32350634326078,-0.06668846772052348
1772786259142771500,6.849771484375,0.43139878189861774,0.3805825677011162,0.024815219239518044
1772786259152787700,6.85978759765625,0.10852350308299064,0.41138994002752005,0.10953158414699136
1772786259162803700,6.8698037109375,-0.21256080066263675,0.37673495236225424,0.17052118263877927
1772786259172819700,6.87981982421875,-0.4119049768775701,0.3014809922018088,0.1549705622855574
1772786259182835500,6.88983544921875,-0.39266660792231556,0.19807835753019898,0.11103278249017894
1772786259192851500,6.8998515625,-0.2784790877282619,0.13624242614107207,0.07514591494239867
1772786259202868700,6.90986865234375,-0.17783669328391552,0.1035505369760096,0.056195569148287175
1772786259212884700,6.919884765625,-0.11516367174983023,0.1405596865519881,0.04467719998583197
1772786259222900700,6.929900634765625,-0.1099240175306797,0.14724321943651883,0.05922719192914665
1772786259232916500,6.93991650390625,-0.14230185404419898,0.08280289596896619,0.05406907851360738
1772786259242932500,6.949932373046875,-0.11990355975329875,-0.0068073236609809094,0.04608925874084234
1772786259252948500,6.959948486328125,-0.0800783298432827,-0.12335514324558898,-0.013590060869976878
1772786259262964500,6.969964599609375,-0.04741700021326541,-0.1806106149766594,-0.08474829441569745
1772786259272981800,6.979981689453125,-0.02343698968887329,-0.13407728399643673,-0.15389270392097532
1772786259282997500,6.98999755859375,0.0007119476616382598,-0.0697447865512222,-0.18644436263144015
1772786259293013500,7.000013427734375,-0.049430093601346016,0.008727642465382815,-0.20175686337985096
1772786259303029500,7.010029541015625,-0.1760977406620979,0.1252732152939774,-0.190098208963871
1772786259313045500,7.02004541015625,-0.16009645393192767,0.2140766485856846,-0.1889844755683094
1772786259323061800,7.030061767578125,0.023075170639157296,0.2726855624860152,-0.17324176670908928
1772786259333077800,7.040077880859375,0.20129004958570001,0.3260262171272188,-0.1832427170459181
1772786259343094500,7.050094482421875,0.3792325413316488,0.3162028883796185,-0.19980492559447882
1772786259353110500,7.060110595703125,0.45762569456696506,0.1531811124523636,-0.27053696961738166
1772786259363126500,7.07012646484375,0.2812812856674194,-0.05288856349214911,-0.4256068275589496
1772786259373142500,7.080142578125,-0.056524435776472086,-0.17170597197655588,-0.6016830139763653
1772786259383158800,7.09015869140625,-0.2853215009689331,-0.13449578340314328,-0.6691163087148219
1772786259393174500,7.100174560546875,-0.48644963799118995,-0.09467765908734872,-0.6381500925648957
1772786259403190500,7.1101904296875,-0.5319903229385614,0.020881697449181228,-0.6170022367265076
1772786259413207600,7.12020751953125,-0.40830958273410795,0.2629050682331435,-0.5336586945421994
1772786259423223600,7.1302236328125,-0.4060790472030639,0.2838460581215098,-0.3237663093712181
