time,seconds_elapsed,z,y,x
1772786252341776400,0.0487763671875,-0.054438017308712006,-0.006294874474406242,-0.017215054482221603
1772786252351792400,0.05879248046875,-0.06423310190439224,-0.030231041833758354,-0.01204784493893385
1772786252361809400,0.068809326171875,-0.05290427803993225,-0.05787358433008194,-0.00278643611818552
1772786252371825400,0.078825439453125,-0.03346536308526993,-0.08752086758613586,0.017229124903678894
1772786252381841400,0.08884130859375,-0.0004480239003896713,-0.12410258501768112,0.04941315948963165
1772786252391857400,0.098857421875,0.04483332857489586,-0.15024159848690033,0.09927114099264145
1772786252401874200,0.108874267578125,0.07954151183366776,-0.15731096267700195,0.15075376629829407
1772786252411890200,0.11889013671875,0.09374556690454483,-0.15210950374603271,0.17090989649295807
1772786252421906400,0.128906494140625,0.0897260531783104,-0.1422307789325714,0.1459435522556305
1772786252431922400,0.13892236328125,0.07500149309635162,-0.12239866703748703,0.07451508939266205
1772786252441939500,0.148939453125,0.05933624505996704,-0.06496520340442657,-0.0011759423650801182
1772786252451955200,0.158955078125,0.042979057878255844,0.01704287901520729,-0.04642235487699509
1772786252461971200,0.16897119140625,0.016133060678839684,0.0983465239405632,-0.0668322890996933
1772786252471987500,0.178987548828125,-0.015165455639362335,0.14998185634613037,-0.07553417980670929
1772786252482004500,0.18900439453125,-0.04740461707115173,0.1855720728635788,-0.07402869313955307
1772786252492020500,0.1990205078125,-0.08388609439134598,0.21040615439414978,-0.08469017595052719
1772786252502036200,0.2090361328125,-0.1129707470536232,0.21211403608322144,-0.12165484577417374
1772786252512052200,0.21905224609375,-0.140546515583992,0.22552606463432312,-0.13550594449043274
1772786252522069500,0.229069580078125,-0.15931034088134766,0.22039894759655,-0.10715047270059586
1772786252532085500,0.23908544921875,-0.17801597714424133,0.21862012147903442,-0.1085444986820221
1772786252542101500,0.2491015625,-0.1891130954027176,0.18532927334308624,-0.16739103198051453
1772786252552117200,0.2591171875,-0.18078747391700745,0.10347885638475418,-0.22282302379608154
1772786252562134300,0.26913427734375,-0.17561720311641693,0.018043847754597664,-0.2908574640750885
1772786252572150500,0.279150634765625,-0.17733046412467957,-0.054417286068201065,-0.33221444487571716
1772786252582166300,0.289166259765625,-0.19203324615955353,-0.10787998139858246,-0.3407687842845917
1772786252592182300,0.299182373046875,-0.20066580176353455,-0.17125250399112701,-0.2935364544391632
1772786252602198300,0.3091982421875,-0.2093959003686905,-0.213654562830925,-0.2580711543560028
1772786252612215300,0.31921533203125,-0.2077046036720276,-0.2233407199382782,-0.2470897138118744
1772786252622231300,0.329231201171875,-0.19952178001403809,-0.22455298900604248,-0.24658505618572235
1772786252632247300,0.339247314453125,-0.18511700630187988,-0.18017300963401794,-0.2295999377965927
1772786252642263300,0.34926318359375,-0.16954709589481354,-0.11266320943832397,-0.2066618651151657
1772786252652280300,0.3592802734375,-0.13483163714408875,-0.06132184714078903,-0.19135208427906036
1772786252662296300,0.36929638671875,-0.07864399254322052,-0.027723941951990128,-0.18750381469726562
1772786252672312300,0.379312255859375,-0.010561004281044006,-0.017451951280236244,-0.20216302573680878
1772786252682328300,0.389328369140625,0.05470694974064827,0.0008969614282250404,-0.22983671724796295
1772786252692345000,0.399344970703125,0.10892903059720993,0.01548656728118658,-0.24971731007099152
1772786252702361300,0.409361328125,0.17577891051769257,0.017831480130553246,-0.21274837851524353
1772786252712377300,0.41937744140625,0.21022728085517883,0.03216838836669922,-0.1599397212266922
1772786252722393300,0.429393310546875,0.24409736692905426,-0.0006798398680984974,-0.15313029289245605
1772786252732410000,0.43941015625,0.28818944096565247,-0.06078845262527466,-0.177102729678154
1772786252742426000,0.449426025390625,0.3572521209716797,-0.12365129590034485,-0.17676717042922974
1772786252752442400,0.4594423828125,0.4443316161632538,-0.2063724547624588,-0.12686696648597717
1772786252762458400,0.469458251953125,0.5123064517974854,-0.26764407753944397,-0.05416346341371536
1772786252772474400,0.479474365234375,0.567983090877533,-0.2768058776855469,0.024456391111016273
1772786252782491100,0.4894912109375,0.6050998568534851,-0.26129215955734253,0.08203446865081787
1772786252792507100,0.499507080078125,0.6240937113761902,-0.2558516263961792,0.09425167739391327
1772786252802523400,0.5095234375,0.6188477873802185,-0.25423240661621094,0.06073446571826935
1772786252812539400,0.519539306640625,0.5945054888725281,-0.2634827196598053,-0.007570968009531498
1772786252822556200,0.52955615234375,0.5517958402633667,-0.2703736424446106,-0.08215092867612839
1772786252832572200,0.539572265625,0.4906374216079712,-0.28186190128326416,-0.13378039002418518
1772786252842588200,0.549588134765625,0.41384702920913696,-0.28662601113319397,-0.17000417411327362
1772786252852604200,0.559604248046875,0.3292190134525299,-0.2922898232936859,-0.20383663475513458
1772786252862621200,0.56962109375,0.2504861056804657,-0.2938437759876251,-0.22812600433826447
1772786252872637200,0.57963720703125,0.15392598509788513,-0.30735617876052856,-0.23574331402778625
1772786252882653200,0.589653076171875,0.058784548193216324,-0.31484153866767883,-0.24576692283153534
1772786252892669200,0.599669189453125,-0.027510035783052444,-0.31305068731307983,-0.26260629296302795
1772786252902686500,0.6096865234375,-0.08496107906103134,-0.30570435523986816,-0.2518969178199768
1772786252912702200,0.6197021484375,-0.11091917753219604,-0.2959550619125366,-0.20044438540935516
1772786252922718200,0.62971826171875,-0.09094680100679398,-0.3052945137023926,-0.12372776865959167
1772786252932734200,0.639734130859375,-0.04080290347337723,-0.32703518867492676,-0.045000430196523666
1772786252942750200,0.649750244140625,0.009963604621589184,-0.343784362077713,0.0223168283700943
1772786252952767500,0.659767578125,0.041353803128004074,-0.3581671714782715,0.07820488512516022
1772786252962783200,0.669783203125,0.05671465024352074,-0.3568164110183716,0.13143295049667358
1772786252972799200,0.67979931640625,0.057385243475437164,-0.3344626724720001,0.18220654129981995
1772786252982815200,0.689815185546875,0.04438395798206329,-0.301975816488266,0.20421677827835083
1772786252992832300,0.699832275390625,0.03903041034936905,-0.2856467366218567,0.19372692704200745
1772786253002848300,0.70984814453125,0.0707894042134285,-0.2850440740585327,0.1736152619123459
1772786253012864300,0.7198642578125,0.12887997925281525,-0.30552008748054504,0.16318610310554504
1772786253022880300,0.72988037109375,0.17644697427749634,-0.35174721479415894,0.17320385575294495
1772786253032897300,0.739897216796875,0.1916867345571518,-0.40084609389305115,0.1871117204427719
1772786253042913300,0.749913330078125,0.19019830226898193,-0.43561792373657227,0.24184288084506989
1772786253052929300,0.75992919921875,0.19764649868011475,-0.40552690625190735,0.33658143877983093
1772786253062945300,0.7699453125,0.20857690274715424,-0.2982374429702759,0.3898974061012268
1772786253072961300,0.779961181640625,0.194492369890213,-0.05561026558279991,0.33274367451667786
1772786253082978300,0.789978271484375,0.15880520641803741,0.2815840244293213,0.15378057956695557
1772786253092994300,0.799994384765625,0.13235090672969818,0.5745154023170471,-0.043865833431482315
1772786253103010300,0.81001025390625,0.14419691264629364,0.7288309335708618,-0.13932257890701294
1772786253113026000,0.820026123046875,0.1543908417224884,0.7677790522575378,-0.09559866786003113
1772786253123043300,0.830043212890625,0.14861764013767242,0.7518035173416138,0.07424096763134003
1772786253133059300,0.840059326171875,0.17710968852043152,0.6670075058937073,0.2863958179950714
1772786253143075300,0.850075439453125,0.24220585823059082,0.5815557241439819,0.45349135994911194
1772786253153091000,0.860091064453125,0.32092034816741943,0.5030438899993896,0.5600200295448303
1772786253163108400,0.8701083984375,0.41872307658195496,0.36833399534225464,0.6267172694206238
1772786253173124400,0.880124267578125,0.5058134198188782,0.1484558880329132,0.6399970054626465
1772786253183140400,0.890140380859375,0.5903943181037903,-0.11246838420629501,0.6059463620185852
1772786253193156400,0.90015625,0.6758511662483215,-0.36755144596099854,0.5648658275604248
1772786253203172000,0.910172119140625,0.7482872605323792,-0.5916356444358826,0.545796811580658
1772786253213189400,0.920189453125,0.7670072913169861,-0.7390937209129333,0.5370154976844788
1772786253223205400,0.930205322265625,0.7414864897727966,-0.81891930103302,0.5443761944770813
1772786253233221400,0.940221435546875,0.6849397420883179,-0.8173967599868774,0.5634111762046814
1772786253243237400,0.9502373046875,0.6138303875923157,-0.718136727809906,0.5777139067649841
1772786253253254100,0.960254150390625,0.5219215154647827,-0.5583036541938782,0.5541923642158508
1772786253263270100,0.970270263671875,0.413851261138916,-0.38793402910232544,0.4689174294471741
1772786253273286400,0.980286376953125,0.3212355077266693,-0.2189071625471115,0.3494811952114105
1772786253283302400,0.990302490234375,0.2512039542198181,-0.0697576105594635,0.2482730895280838
1772786253293318100,1.000318115234375,0.20285844802856445,0.03274841234087944,0.2138105034828186
1772786253303335200,1.010335205078125,0.19645540416240692,0.1113113984465599,0.2574927508831024
1772786253313351200,1.02035107421875,0.21717755496501923,0.16820955276489258,0.36899569630622864
1772786253323367400,1.030367431640625,0.22081038355827332,0.191433385014534,0.47358202934265137
1772786253333383400,1.040383544921875,0.19768473505973816,0.15844973921775818,0.5247160196304321
1772786253343400200,1.050400146484375,0.18109244108200073,0.07099232077598572,0.5103977918624878
1772786253353416200,1.060416259765625,0.18506531417369843,-0.07627769559621811,0.4539679288864136
1772786253363432200,1.07043212890625,0.2028277963399887,-0.24307040870189667,0.3960005044937134
1772786253373448400,1.080448486328125,0.23361679911613464,-0.35293322801589966,0.3637463450431824
1772786253383465200,1.09046533203125,0.2732353210449219,-0.43090498447418213,0.3774493634700775
1772786253393481200,1.100481201171875,0.2902999818325043,-0.49821868538856506,0.4109337627887726
1772786253403497200,1.110497314453125,0.2684013247489929,-0.5793004035949707,0.42304953932762146
1772786253413513200,1.12051318359375,0.23852038383483887,-0.6293076276779175,0.3991454839706421
1772786253423529200,1.130529296875,0.2023993879556656,-0.6669266819953918,0.35087624192237854
1772786253433546200,1.140546142578125,0.13296973705291748,-0.6728736758232117,0.3280807435512543
1772786253443562200,1.150562255859375,0.07419297844171524,-0.679654598236084,0.3336382508277893
1772786253453578200,1.160578125,0.06465542316436768,-0.6656564474105835,0.3220089077949524
1772786253463594200,1.17059423828125,0.09682135283946991,-0.631395161151886,0.2686695158481598
1772786253473611300,1.180611328125,0.13205929100513458,-0.5253962278366089,0.18700066208839417
1772786253483627300,1.190627197265625,0.1220969408750534,-0.4739314317703247,0.15043386816978455
1772786253493643300,1.200643310546875,0.0395403653383255,-0.41391271352767944,0.061222828924655914
1772786253503659300,1.2106591796875,-0.018272068351507187,-0.3127954304218292,-0.07154454290866852
1772786253513675300,1.22067529296875,-0.0226434376090765,-0.2315007895231247,-0.12424513697624207
1772786253523692300,1.2306923828125,-0.0030625457875430584,-0.10413243621587753,-0.08688152581453323
1772786253533708300,1.240708251953125,0.002710377797484398,0.09536952525377274,-0.040411122143268585
1772786253543724300,1.250724365234375,-0.018324334174394608,0.3929993510246277,-0.056527771055698395
1772786253553740300,1.260740234375,-0.012024149298667908,0.6547590494155884,-0.07543925195932388
1772786253563757000,1.270757080078125,0.06674256920814514,0.7669960856437683,-0.05579470843076706
1772786253573773000,1.28077294921875,0.14629538357257843,0.7888420820236206,-0.026948513463139534
1772786253583789000,1.2907890625,0.18762178719043732,0.6851570010185242,0.022943146526813507
1772786253593805000,1.30080517578125,0.20055927336215973,0.5007645487785339,0.1300794780254364
1772786253603821000,1.310821044921875,0.1937200129032135,0.27675434947013855,0.28821903467178345
1772786253613838000,1.320838134765625,0.16391676664352417,0.02546672895550728,0.44059884548187256
1772786253623854000,1.33085400390625,0.11261122673749924,-0.1869824230670929,0.5648142695426941
1772786253633870000,1.3408701171875,0.09511206299066544,-0.3232865631580353,0.6386712789535522
1772786253643886000,1.350885986328125,0.08872073888778687,-0.3208753168582916,0.5929131507873535
1772786253653903000,1.360903076171875,-0.06047459691762924,-0.1854783594608307,0.4505831301212311
1772786253663919000,1.370919189453125,-0.3371378779411316,0.08740325272083282,0.24312207102775574
1772786253673935000,1.38093505859375,-0.37014323472976685,0.39363566040992737,-0.06513168662786484
1772786253683951000,1.390951171875,-0.12905581295490265,0.5689153671264648,-0.31632691621780396
1772786253693967000,1.400967041015625,0.22691883146762848,0.5379243493080139,-0.42021462321281433
1772786253703984000,1.410984130859375,0.6539723873138428,0.45857226848602295,-0.3804190158843994
1772786253714000000,1.420999755859375,1.0212228298187256,0.41802093386650085,-0.19276490807533264
1772786253724016000,1.43101611328125,1.2477116584777832,0.4086764454841614,0.07930521667003632
1772786253734032100,1.4410322265625,1.3450050354003906,0.26703810691833496,0.37098753452301025
1772786253744049200,1.451049072265625,1.4027926921844482,0.06009050831198692,0.5661213397979736
1772786253754065200,1.461065185546875,1.46487295627594,-0.11699283868074417,0.6129175424575806
1772786253764081000,1.471080810546875,1.5379668474197388,-0.27923181653022766,0.5599315166473389
1772786253774097200,1.48109716796875,1.6233222484588623,-0.4178038239479065,0.4332185983657837
1772786253784113200,1.491113037109375,1.6823581457138062,-0.5331951379776001,0.2521026134490967
1772786253794130200,1.501130126953125,1.6847010850906372,-0.6377915740013123,0.05506371334195137
1772786253804146200,1.511146240234375,1.6100672483444214,-0.7028195261955261,-0.13447211682796478
1772786253814162000,1.521161865234375,1.4950162172317505,-0.742030918598175,-0.28603798151016235
1772786253824178000,1.531177978515625,1.3688443899154663,-0.7889744639396667,-0.3256325125694275
1772786253834195200,1.5411953125,1.2357484102249146,-0.7541465163230896,-0.2937055230140686
1772786253844211200,1.551211181640625,1.1305309534072876,-0.7252381443977356,-0.2633010149002075
1772786253854227000,1.56122705078125,1.0489484071731567,-0.6699743866920471,-0.2474524974822998
1772786253864243000,1.571242919921875,0.9839910268783569,-0.560006856918335,-0.2507137954235077
1772786253874259000,1.581259033203125,0.9070423245429993,-0.3667214810848236,-0.2846836447715759
1772786253884276200,1.591276123046875,0.8126705288887024,-0.1436878740787506,-0.3436662554740906
1772786253894292200,1.601292236328125,0.7049927711486816,0.05806243047118187,-0.43148666620254517
1772786253904308000,1.611307861328125,0.6063580513000488,0.21020695567131042,-0.5338993072509766
1772786253914324000,1.621323974609375,0.522169828414917,0.2994139492511749,-0.6097674369812012
1772786253924341200,1.63134130859375,0.4511774480342865,0.3285529315471649,-0.6258635520935059
1772786253934357200,1.641357177734375,0.3778960406780243,0.30138733983039856,-0.5679571032524109
1772786253944373200,1.651373291015625,0.305253267288208,0.267616331577301,-0.4617598354816437
1772786253954389000,1.661388916015625,0.2544421851634979,0.1855650097131729,-0.34536564350128174
1772786253964405000,1.671405029296875,0.19479723274707794,0.06094425916671753,-0.2732941210269928
1772786253974422000,1.681422119140625,0.1473379135131836,-0.043670281767845154,-0.26903364062309265
1772786253984438300,1.691438232421875,0.10986510664224625,-0.10059268772602081,-0.31800171732902527
1772786253994454300,1.701454345703125,0.09134805202484131,-0.10916353017091751,-0.3957275450229645
1772786254004470000,1.711469970703125,0.09097255021333694,-0.0812501385807991,-0.47013092041015625
1772786254014487000,1.721487060546875,0.08915359526872635,-0.03297681733965874,-0.5299386382102966
1772786254024503000,1.7315029296875,0.07877898961305618,0.0308477021753788,-0.565109133720398
1772786254034519300,1.741519287109375,0.04475606232881546,0.10407111048698425,-0.5750945210456848
1772786254044535000,1.75153515625,-0.010207854211330414,0.2198115438222885,-0.5591257214546204
1772786254054551000,1.761551025390625,-0.06972269713878632,0.36320847272872925,-0.5380672216415405
1772786254064568000,1.771568115234375,-0.12209775298833847,0.47169604897499084,-0.5219175219535828
1772786254074584000,1.781583984375,-0.16246815025806427,0.557223379611969,-0.5048232674598694
1772786254084600300,1.791600341796875,-0.19497975707054138,0.6106855273246765,-0.4693393409252167
1772786254094616000,1.801615966796875,-0.23346200585365295,0.6301702260971069,-0.4096743166446686
1772786254104632000,1.811632080078125,-0.27460065484046936,0.644505500793457,-0.3190394937992096
1772786254114649000,1.821649169921875,-0.3110646903514862,0.6648392081260681,-0.22315530478954315
1772786254124665000,1.8316650390625,-0.35837602615356445,0.6572936773300171,-0.16533595323562622
1772786254134681000,1.84168115234375,-0.40860697627067566,0.6170607805252075,-0.1461673229932785
1772786254144697000,1.851697021484375,-0.44498947262763977,0.5290195941925049,-0.1579107940196991
1772786254154714000,1.861714111328125,-0.4551863968372345,0.3903914988040924,-0.17105798423290253
1772786254164730000,1.871730224609375,-0.4541754722595215,0.26076772809028625,-0.1454692780971527
1772786254174746000,1.88174609375,-0.43432608246803284,0.13833630084991455,-0.06974725425243378
1772786254184762000,1.89176220703125,-0.3969952166080475,0.047526780515909195,0.043633636087179184
1772786254194778000,1.901778076171875,-0.3624586760997772,0.0041706799529492855,0.17033761739730835
1772786254204795100,1.911795166015625,-0.33070847392082214,-0.0018752282485365868,0.2639243006706238
1772786254214811100,1.92181103515625,-0.29837843775749207,-0.050229690968990326,0.30803394317626953
1772786254224827100,1.9318271484375,-0.25769463181495667,-0.16671663522720337,0.3328114449977875
1772786254234843100,1.941843017578125,-0.24428026378154755,-0.20412401854991913,0.3551523983478546
1772786254244860200,1.951860107421875,-0.2666076719760895,-0.18393538892269135,0.3863646686077118
1772786254254876200,1.961876220703125,-0.29159098863601685,-0.11523820459842682,0.45071306824684143
1772786254264892200,1.97189208984375,-0.29047510027885437,-0.04485858231782913,0.516895055770874
1772786254274908200,1.981908203125,-0.2590506374835968,-0.02678743191063404,0.5714081525802612
1772786254284924000,1.991923828125,-0.20882050693035126,-0.057976506650447845,0.5856613516807556
1772786254294941200,2.001941162109375,-0.16942544281482697,-0.12325562536716461,0.5613561272621155
1772786254304957200,2.011957275390625,-0.1395314633846283,-0.2134273201227188,0.5380390882492065
1772786254314973200,2.02197314453125,-0.1008661687374115,-0.2657463252544403,0.5263144373893738
1772786254324989200,2.0319892578125,-0.07014927268028259,-0.2977631092071533,0.4850251078605652
1772786254335005000,2.0420048828125,-0.04638725519180298,-0.3440779149532318,0.3856217563152313
1772786254345022200,2.052022216796875,0.00493079237639904,-0.39086246490478516,0.2675449252128601
1772786254355038200,2.0620380859375,0.06420008838176727,-0.4664520025253296,0.17785021662712097
1772786254365054200,2.07205419921875,0.1256227046251297,-0.5049152374267578,0.16321322321891785
1772786254375070200,2.0820703125,0.1757974475622177,-0.45449408888816833,0.25235649943351746
1772786254385086000,2.0920859375,0.21018365025520325,-0.33602631092071533,0.4125711917877197
1772786254395103000,2.10210302734375,0.22922848165035248,-0.17494691908359528,0.5626989603042603
1772786254405119200,2.112119140625,0.30187898874282837,-0.019924582913517952,0.6247756481170654
1772786254415135200,2.12213525390625,0.4547426104545593,0.09807566553354263,0.5691566467285156
1772786254425151200,2.132151123046875,0.6498444676399231,0.18068720400333405,0.3910180628299713
1772786254435168000,2.14216796875,0.8567319512367249,0.22172492742538452,0.1617397964000702
1772786254445184000,2.15218408203125,1.0555438995361328,0.20853188633918762,-0.03162967413663864
1772786254455200300,2.1622001953125,1.2185993194580078,0.15399520099163055,-0.14697757363319397
1772786254465216300,2.17221630859375,1.3138890266418457,0.04170702025294304,-0.15897537767887115
1772786254475232000,2.18223193359375,1.3399131298065186,-0.052783314138650894,-0.054150182753801346
1772786254485249000,2.1922490234375,1.3215465545654297,-0.12075091153383255,0.16298478841781616
1772786254495265000,2.20226513671875,1.2485742568969727,-0.17644469439983368,0.44235268235206604
1772786254505281300,2.21228125,1.145060658454895,-0.2621782422065735,0.6904173493385315
1772786254515297300,2.22229736328125,1.036635160446167,-0.39228394627571106,0.8128536939620972
1772786254525313000,2.23231298828125,0.9633340835571289,-0.4982495605945587,0.8243308663368225
1772786254535330000,2.242330078125,0.9054793119430542,-0.5441257357597351,0.7539309859275818
1772786254545346000,2.252345947265625,0.8364161252975464,-0.5137438178062439,0.6026674509048462
1772786254555362000,2.262362060546875,0.7234095931053162,-0.39616072177886963,0.39750298857688904
1772786254565378300,2.27237841796875,0.5713769197463989,-0.19169066846370697,0.1843869537115097
1772786254575395600,2.2823955078125,0.4024635851383209,0.026083245873451233,0.0026565988082438707
1772786254585411600,2.29241162109375,0.23341810703277588,0.21869316697120667,-0.10462085902690887
1772786254595427600,2.302427490234375,0.0865502655506134,0.37585970759391785,-0.15991227328777313
1772786254605443600,2.312443603515625,-0.02978726476430893,0.4966292679309845,-0.17699219286441803
1772786254615459300,2.322459228515625,-0.11197981983423233,0.5612862706184387,-0.1594999134540558
1772786254625476400,2.332476318359375,-0.15811827778816223,0.5919469594955444,-0.09697476029396057
1772786254635492600,2.34249267578125,-0.16105839610099792,0.5910137891769409,0.02266230620443821
1772786254645508600,2.352508544921875,-0.127057284116745,0.5409631729125977,0.1758641004562378
1772786254655524600,2.362524658203125,-0.0444411002099514,0.4813957214355469,0.32714489102363586
1772786254665540400,2.372540283203125,0.06388085335493088,0.4250243306159973,0.42686936259269714
1772786254675557400,2.382557373046875,0.18516777455806732,0.3386981785297394,0.46553730964660645
1772786254685573600,2.39257373046875,0.3094761371612549,0.25164052844047546,0.4569329023361206
1772786254695589600,2.402589599609375,0.43406394124031067,0.16523008048534393,0.4309867024421692
1772786254705605600,2.412605712890625,0.5459156632423401,0.07142476737499237,0.39899468421936035
1772786254715621400,2.422621337890625,0.6517834663391113,-0.017568040639162064,0.3716965615749359
1772786254725638400,2.432638427734375,0.7525683641433716,-0.08913064002990723,0.36982089281082153
1772786254735654400,2.442654296875,0.842691957950592,-0.11849797517061234,0.37328678369522095
1772786254745670700,2.452670654296875,0.9317895770072937,-0.10079354792833328,0.3872590661048889
1772786254755686400,2.462686279296875,1.010188341140747,-0.07215043902397156,0.3704288601875305
1772786254765703400,2.472703369140625,1.0759955644607544,-0.018710114061832428,0.3500854969024658
1772786254775719400,2.482719482421875,1.1451730728149414,0.031279291957616806,0.31804409623146057
1772786254785735400,2.4927353515625,1.2290014028549194,0.0692538395524025,0.25317350029945374
1772786254795751700,2.502751708984375,1.3534760475158691,0.08958970010280609,0.15756556391716003
1772786254805767400,2.512767333984375,1.4440836906433105,0.08836837857961655,0.08698087930679321
1772786254815784400,2.522784423828125,1.4719510078430176,0.06827328354120255,0.08455648273229599
1772786254825800400,2.532800537109375,1.490687608718872,0.03795558959245682,0.12221917510032654
1772786254835816400,2.54281640625,1.5117802619934082,0.013088010251522064,0.1442783772945404
1772786254845832400,2.55283251953125,1.5283746719360352,0.0008446599822491407,0.14136114716529846
1772786254855848400,2.562848388671875,1.5336072444915771,-0.006646151188760996,0.12277329713106155
1772786254865865500,2.572865478515625,1.534501552581787,0.014672188088297844,0.09492222219705582
1772786254875881500,2.582881591796875,1.5411838293075562,0.016944441944360733,0.0607064850628376
1772786254885897500,2.5928974609375,1.5769239664077759,0.019954081624746323,0.05080804601311684
1772786254895913500,2.60291357421875,1.6442227363586426,0.04442201927304268,0.05465836077928543
1772786254905929500,2.612929443359375,1.7068434953689575,0.06600774079561234,0.05657637119293213
1772786254915946500,2.622946533203125,1.7482123374938965,0.06512785702943802,0.052137721329927444
1772786254925962500,2.63296240234375,1.7692805528640747,0.042960502207279205,0.047081977128982544
1772786254935978500,2.642978515625,1.769443154335022,0.05093136429786682,0.015981294214725494
1772786254945994500,2.652994384765625,1.7799298763275146,0.1156507059931755,-0.025403695181012154
1772786254956010500,2.663010498046875,1.7934012413024902,0.20080360770225525,-0.04891541227698326
1772786254966027500,2.673027587890625,1.8005880117416382,0.28429344296455383,-0.039562124758958817
1772786254976043500,2.68304345703125,1.809529185295105,0.34916114807128906,-0.0109645901247859
1772786254986059500,2.6930595703125,1.814193606376648,0.36855483055114746,0.010811544954776764
1772786254996075300,2.7030751953125,1.8143954277038574,0.3311724364757538,0.028961356729269028
1772786255006091300,2.71309130859375,1.7973895072937012,0.20903056859970093,0.06412041187286377
1772786255016108500,2.723108642578125,1.762431025505066,0.02163614146411419,0.14077508449554443
1772786255026124500,2.73312451171875,1.7099050283432007,-0.20303106307983398,0.22282786667346954
1772786255036140500,2.743140625,1.6305599212646484,-0.39723506569862366,0.2945992350578308
1772786255046156300,2.75315625,1.5347545146942139,-0.5194973349571228,0.322307825088501
1772786255056172300,2.76317236328125,1.455540657043457,-0.5485396385192871,0.30776748061180115
1772786255066189600,2.773189453125,1.3973466157913208,-0.4736846089363098,0.2638287842273712
1772786255076205600,2.78320556640625,1.3551796674728394,-0.29128289222717285,0.18634682893753052
1772786255086221600,2.7932216796875,1.3580130338668823,-0.001680899178609252,0.07269402593374252
1772786255096237300,2.8032373046875,1.4148458242416382,0.27791449427604675,-0.03678135573863983
1772786255106254600,2.813254638671875,1.5037122964859009,0.48212701082229614,-0.09235992282629013
1772786255116270600,2.8232705078125,1.5711796283721924,0.6312036514282227,-0.09466682374477386
1772786255126286600,2.83328662109375,1.5953813791275024,0.7498267292976379,-0.0484258197247982
1772786255136302600,2.843302490234375,1.5922468900680542,0.7900651097297668,0.025922320783138275
1772786255146318300,2.853318359375,1.584943175315857,0.7354186177253723,0.10141201317310333
1772786255156335400,2.86333544921875,1.6072584390640259,0.5866323709487915,0.13956144452095032
1772786255166351600,2.8733515625,1.6469093561172485,0.3604978024959564,0.14542706310749054
1772786255176367600,2.88336767578125,1.661838412284851,0.14431141316890717,0.14031127095222473
1772786255186383400,2.89338330078125,1.63825261592865,-0.0410187691450119,0.11028067022562027
1772786255196399400,2.9033994140625,1.5798946619033813,-0.12685269117355347,0.04314102977514267
1772786255206416400,2.91341650390625,1.5014499425888062,-0.1583174169063568,-0.0542832612991333
1772786255216432600,2.9234326171875,1.4116235971450806,-0.14560574293136597,-0.14771753549575806
1772786255226448600,2.93344873046875,1.2930186986923218,-0.17086955904960632,-0.24110527336597443
1772786255236464400,2.94346435546875,1.163394808769226,-0.1710611879825592,-0.31055575609207153
1772786255246480400,2.95348046875,1.0748015642166138,-0.16080935299396515,-0.32378342747688293
1772786255256497400,2.963497314453125,1.0128686428070068,-0.13911432027816772,-0.2958999276161194
1772786255266513700,2.973513671875,0.9734745621681213,-0.12436359375715256,-0.25004827976226807
1772786255276529700,2.98352978515625,0.9576451778411865,-0.1152210533618927,-0.21322546899318695
1772786255286545400,2.99354541015625,0.9744718670845032,-0.12028425931930542,-0.19991286098957062
1772786255296561400,3.0035615234375,1.032118558883667,-0.13766634464263916,-0.22034671902656555
1772786255306578400,3.013578369140625,1.1138405799865723,-0.15401096642017365,-0.25852900743484497
1772786255316594400,3.023594482421875,1.217728614807129,-0.19455818831920624,-0.29180657863616943
1772786255326610700,3.033610595703125,1.3299249410629272,-0.20669448375701904,-0.3188512325286865
1772786255336626400,3.04362646484375,1.4519153833389282,-0.20968841016292572,-0.3354721963405609
1772786255346642400,3.053642333984375,1.582832932472229,-0.21018242835998535,-0.35174062848091125
1772786255356659500,3.063659423828125,1.6918771266937256,-0.23767754435539246,-0.3874551057815552
1772786255366675500,3.073675537109375,1.7703276872634888,-0.27260810136795044,-0.42040374875068665
1772786255376691500,3.08369140625,1.8154981136322021,-0.29971083998680115,-0.44417834281921387
1772786255386707500,3.09370751953125,1.8113006353378296,-0.3127337098121643,-0.44370508193969727
1772786255396723500,3.103723388671875,1.7644751071929932,-0.30545154213905334,-0.41628292202949524
1772786255406740500,3.113740478515625,1.6725094318389893,-0.28591033816337585,-0.3367851674556732
1772786255416756500,3.123756591796875,1.5493381023406982,-0.2393573373556137,-0.22834420204162598
1772786255426772500,3.1337724609375,1.4003210067749023,-0.1718142330646515,-0.13796557486057281
1772786255436788500,3.14378857421875,1.2232784032821655,-0.13014040887355804,-0.0851682499051094
1772786255446804500,3.153804443359375,1.0382107496261597,-0.11835138499736786,-0.09113799035549164
1772786255456821500,3.163821533203125,0.8528324365615845,-0.05670911818742752,-0.15869639813899994
1772786255466837500,3.17383740234375,0.6775394082069397,-0.01639445312321186,-0.25973114371299744
1772786255476853200,3.183853271484375,0.5206164717674255,0.02980300784111023,-0.3429090678691864
1772786255486869500,3.193869384765625,0.39747533202171326,0.04971546307206154,-0.3829486072063446
1772786255496885500,3.203885498046875,0.32711654901504517,0.06949526071548462,-0.39346134662628174
1772786255506902500,3.213902587890625,0.30710580945014954,0.06923666596412659,-0.39423155784606934
1772786255516918500,3.22391845703125,0.3184698820114136,0.05138063803315163,-0.3913419842720032
1772786255526934300,3.233934326171875,0.35313624143600464,0.04701518639922142,-0.3752511739730835
1772786255536950300,3.2439501953125,0.4019220471382141,0.05851501226425171,-0.35210463404655457
1772786255546966500,3.253966552734375,0.45386752486228943,0.07306972146034241,-0.33545374870300293
1772786255556983600,3.263983642578125,0.4947618842124939,0.0929928794503212,-0.3300584852695465
1772786255566999600,3.27399951171875,0.5155744552612305,0.10085639357566833,-0.32598596811294556
1772786255577015000,3.28401513671875,0.5051015019416809,0.084047831594944,-0.3124048709869385
1772786255587030800,3.29403076171875,0.46903106570243835,0.06502646952867508,-0.282929003238678
1772786255597046800,3.304046875,0.4215574562549591,0.06285446882247925,-0.22419902682304382
1772786255607063800,3.314063720703125,0.36097586154937744,0.06696852296590805,-0.15048885345458984
1772786255617080000,3.324080078125,0.29396048188209534,0.07484285533428192,-0.08512571454048157
1772786255627096000,3.334095947265625,0.22476303577423096,0.06501366198062897,-0.04388028010725975
1772786255637111800,3.34411181640625,0.15168549120426178,0.062291692942380905,-0.03174343332648277
1772786255647127800,3.3541279296875,0.0797838643193245,0.037743207067251205,-0.053845006972551346
1772786255657143800,3.364143798828125,0.04385538771748543,0.09389912337064743,-0.077717624604702
1772786255667161000,3.3741611328125,0.049196355044841766,0.15519177913665771,-0.060433175414800644
1772786255677176800,3.3841767578125,0.09119509160518646,0.1355997771024704,-0.00989004597067833
1772786255687192800,3.39419287109375,0.12874433398246765,0.06577568501234055,0.033050764352083206
1772786255697208800,3.404208740234375,0.1566353738307953,0.02381405234336853,0.04885987937450409
1772786255707224800,3.414224853515625,0.1773185431957245,-0.026418225839734077,0.046483274549245834
1772786255717242000,3.4242421875,0.1923590898513794,-0.0459652803838253,0.04766862466931343
1772786255727257900,3.4342578125,0.2049901932477951,-0.0410245843231678,0.07236332446336746
1772786255737273900,3.44427392578125,0.21218939125537872,-0.04576418921351433,0.0817817747592926
1772786255747289900,3.454289794921875,0.22302019596099854,-0.029812384396791458,0.06632185727357864
1772786255757305900,3.464305908203125,0.1746649593114853,-0.07161518931388855,0.02074163407087326
1772786255767323000,3.474322998046875,0.10147009789943695,-0.03481324017047882,-0.0070806764997541904
1772786255777339000,3.4843388671875,0.03629264980554581,0.02949582226574421,0.00013476680032908916
1772786255787355000,3.49435498046875,-0.02711162157356739,0.06164097413420677,-0.014163478277623653
1772786255797371000,3.504370849609375,-0.07341843098402023,0.0772586390376091,-0.05533963441848755
1772786255807387000,3.514386962890625,-0.10561231523752213,0.10191977769136429,-0.0843806117773056
1772786255817404000,3.52440380859375,-0.14718405902385712,0.09293552488088608,-0.08455602824687958
1772786255827420000,3.534419921875,-0.1963481456041336,0.05906357243657112,-0.05202818289399147
1772786255837436000,3.544435791015625,-0.23041945695877075,0.0602559894323349,-0.011166540905833244
1772786255847452000,3.554451904296875,-0.26183971762657166,0.0797756239771843,-0.0033315205946564674
1772786255857468000,3.564468017578125,-0.27924925088882446,0.10662788152694702,-0.04209669679403305
1772786255867485000,3.57448486328125,-0.26467350125312805,0.13014599680900574,-0.07646586000919342
1772786255877500700,3.584500732421875,-0.23099929094314575,0.15917660295963287,-0.05364637449383736
1772786255887517000,3.594516845703125,-0.1937991827726364,0.21943195164203644,0.02480022981762886
1772786255897533000,3.604532958984375,-0.15738041698932648,0.3102211058139801,0.14706581830978394
1772786255907549000,3.614548828125,-0.12323922663927078,0.3878117799758911,0.27853381633758545
1772786255917565000,3.62456494140625,-0.0861809030175209,0.4741882085800171,0.35016950964927673
1772786255927581700,3.634581787109375,-0.016016196459531784,0.5516289472579956,0.35231679677963257
1772786255937598000,3.644597900390625,0.0994369387626648,0.6345677971839905,0.3293644189834595
1772786255947614000,3.654614013671875,0.2678435146808624,0.6918233633041382,0.2898705303668976
1772786255957630000,3.6646298828125,0.415743350982666,0.6737092733383179,0.2060825228691101
1772786255967646000,3.67464599609375,0.5342268943786621,0.5964624285697937,0.11810020357370377
1772786255977662700,3.684662841796875,0.6317170262336731,0.4740268886089325,0.09178850054740906
1772786255987678700,3.6946787109375,0.7319197654724121,0.33578699827194214,0.16483074426651
1772786255997695000,3.704695068359375,0.8230440616607666,0.20542849600315094,0.3224080204963684
1772786256007711000,3.7147109375,0.8865945339202881,0.04976380243897438,0.5074335336685181
1772786256017727000,3.72472705078125,0.9032976031303406,-0.14708612859249115,0.6436489820480347
1772786256027743700,3.73474365234375,0.8782567381858826,-0.3579064607620239,0.686958372592926
1772786256037759700,3.744759765625,0.8212326169013977,-0.5376390218734741,0.6445258259773254
1772786256047776000,3.75477587890625,0.7211859226226807,-0.6447963714599609,0.527627170085907
1772786256057792000,3.7647919921875,0.6074107885360718,-0.6066434979438782,0.3878002166748047
1772786256067808000,3.77480810546875,0.4699069559574127,-0.45866069197654724,0.24866923689842224
1772786256077824800,3.78482470703125,0.31209132075309753,-0.27308979630470276,0.11066810041666031
1772786256087840800,3.7948408203125,0.16836081445217133,-0.0813823938369751,0.018292095512151718
1772786256097857000,3.80485693359375,0.041954006999731064,0.07484851032495499,-0.012407840229570866
1772786256107873000,3.814873046875,-0.08309446275234222,0.18243089318275452,0.006143740378320217
1772786256117889000,3.824888916015625,-0.19157655537128448,0.28971168398857117,0.0522761195898056
1772786256127904800,3.83490478515625,-0.2550666034221649,0.31317731738090515,0.12189541012048721
1772786256137921800,3.844921875,-0.27425989508628845,0.2901999056339264,0.21331696212291718
1772786256147937800,3.854937744140625,-0.24722053110599518,0.2385694682598114,0.3133799135684967
1772786256157954000,3.8649541015625,-0.1767307072877884,0.15594227612018585,0.393665075302124
1772786256167970000,3.874969970703125,-0.06431841105222702,0.07089714705944061,0.44823405146598816
1772786256177985800,3.88498583984375,0.05784614384174347,-0.004766277503222227,0.47315317392349243
1772786256188002800,3.8950029296875,0.17309710383415222,-0.06470897048711777,0.47035953402519226
1772786256198018800,3.905018798828125,0.2902030944824219,-0.11523237824440002,0.4435633420944214
1772786256208035000,3.91503515625,0.42116856575012207,-0.16083449125289917,0.4111441373825073
1772786256218051000,3.925051025390625,0.5486125349998474,-0.21050015091896057,0.373850554227829
1772786256228066800,3.93506689453125,0.6784642934799194,-0.25006434321403503,0.3471513092517853
1772786256238083800,3.945083740234375,0.7945250272750854,-0.23661622405052185,0.3312385082244873
1772786256248099800,3.955099853515625,0.8811709880828857,-0.21678444743156433,0.3309825658798218
1772786256258115800,3.96511572265625,0.966369092464447,-0.18123957514762878,0.3311687409877777
1772786256268132000,3.975132080078125,1.0396898984909058,-0.12863680720329285,0.32767653465270996
1772786256278147800,3.98514794921875,1.0847132205963135,-0.07325459271669388,0.29829418659210205
1772786256288164900,3.995164794921875,1.1327489614486694,0.01197481993585825,0.2524055242538452
1772786256298180900,4.005180908203125,1.1696969270706177,0.07580803334712982,0.18169446289539337
1772786256308196900,4.01519677734375,1.144840955734253,0.07592760026454926,0.07704900950193405
1772786256318212900,4.025212890625,1.0762670040130615,0.088249571621418,-0.014864117838442326
1772786256328228900,4.035228759765625,0.995515763759613,0.1032618060708046,-0.08367007970809937
1772786256338244900,4.045244873046875,0.9046253561973572,0.09373562037944794,-0.13481475412845612
1772786256348262000,4.055261962890625,0.814683735370636,0.06367439031600952,-0.17117249965667725
1772786256358278000,4.06527783203125,0.739173948764801,0.04154118150472641,-0.18081580102443695
1772786256368294000,4.0752939453125,0.6741294860839844,0.013660550117492676,-0.16674205660820007
1772786256378310000,4.085309814453125,0.5950950384140015,-0.006689638365060091,-0.15257692337036133
1772786256388326000,4.095325927734375,0.5166716575622559,-0.024277687072753906,-0.14967568218708038
1772786256398343000,4.105343017578125,0.465494304895401,-0.030186979100108147,-0.1510084569454193
1772786256408359000,4.11535888671875,0.4276989698410034,-0.015041584149003029,-0.13926498591899872
1772786256418374700,4.125374755859375,0.40245234966278076,-0.003153934609144926,-0.09965242445468903
1772786256428391000,4.135390869140625,0.40236157178878784,-0.03320957347750664,-0.06562308222055435
1772786256438407000,4.145406982421875,0.4225711524486542,-0.06927725672721863,-0.027473939582705498
1772786256448423000,4.1554228515625,0.4614298641681671,-0.08536382019519806,0.007895768620073795
1772786256458440000,4.16543994140625,0.5030445456504822,-0.07308797538280487,0.028490671887993813
1772786256468455700,4.17545556640625,0.5318778157234192,-0.0702517107129097,0.03099004738032818
1772786256478472000,4.185471923828125,0.5607072114944458,-0.09329969435930252,0.01901307702064514
1772786256488488000,4.195488037109375,0.6051633358001709,-0.13707834482192993,0.011168735101819038
1772786256498504000,4.20550390625,0.6476389169692993,-0.18674792349338531,0.01254169549793005
1772786256508521000,4.21552099609375,0.6692893505096436,-0.22026966512203217,0.031196605414152145
1772786256518536700,4.22553662109375,0.6500014662742615,-0.232962965965271,0.08201516419649124
1772786256528552700,4.235552734375,0.5934247374534607,-0.24834246933460236,0.1401788592338562
1772786256538569000,4.24556884765625,0.537124752998352,-0.24701644480228424,0.18851518630981445
1772786256548585000,4.2555849609375,0.4647967517375946,-0.20682962238788605,0.2426822930574417
1772786256558601000,4.26560107421875,0.3583150804042816,-0.12836089730262756,0.29050612449645996
1772786256568617700,4.27561767578125,0.2175251692533493,-0.07149095833301544,0.3231460750102997
1772786256578634500,4.285634521484375,0.08298632502555847,-0.031764086335897446,0.33226004242897034
1772786256588650500,4.295650390625,-0.02605227380990982,-0.03833650052547455,0.3199000358581543
1772786256598666500,4.30566650390625,-0.11068018525838852,-0.08408527076244354,0.29954156279563904
1772786256608682500,4.3156826171875,-0.12331608682870865,-0.12176687270402908,0.26163971424102783
1772786256618699500,4.325699462890625,-0.08604016155004501,-0.06857290118932724,0.20136283338069916
1772786256628715500,4.335715576171875,-0.06450557708740234,0.17172040045261383,0.08929301798343658
1772786256638731500,4.3457314453125,-0.07199210673570633,0.58751380443573,-0.07769626379013062
1772786256648747500,4.35574755859375,-0.058941550552845,1.0047578811645508,-0.21358750760555267
1772786256658763500,4.365763427734375,0.007723744492977858,1.3873058557510376,-0.2823241353034973
1772786256668779300,4.375779296875,0.031695656478405,1.6082770824432373,-0.27823883295059204
1772786256678796500,4.385796630859375,0.08482266217470169,1.619322657585144,-0.22246091067790985
1772786256688812500,4.3958125,0.19651935994625092,1.5049800872802734,-0.1278606355190277
1772786256698828500,4.40582861328125,0.3446640968322754,1.2886022329330444,-0.022297820076346397
1772786256708844500,4.415844482421875,0.5108858346939087,1.0417131185531616,0.10027523338794708
1772786256718860300,4.4258603515625,0.6231513619422913,0.7630653977394104,0.2015729695558548
1772786256728876300,4.435876220703125,0.6311272382736206,0.5109226107597351,0.2295263111591339
1772786256738893600,4.4458935546875,0.5733197331428528,0.3153133988380432,0.21904638409614563
1772786256748909600,4.45590966796875,0.47554734349250793,0.15573573112487793,0.1902805119752884
1772786256758925300,4.46592529296875,0.36186110973358154,0.03199540078639984,0.15765266120433807
1772786256768941300,4.47594140625,0.2371702790260315,-0.06356574594974518,0.1463877558708191
1772786256778957300,4.485957275390625,0.13506442308425903,-0.07546395063400269,0.17460687458515167
1772786256788974600,4.495974609375,0.08120172470808029,-0.047870934009552,0.2324794977903366
1772786256798990600,4.505990478515625,0.06197253614664078,-0.014110570773482323,0.2738880515098572
1772786256809006300,4.51600634765625,0.07965806126594543,-0.009394912049174309,0.25145596265792847
1772786256819022300,4.526022216796875,0.116564080119133,-0.027643242850899696,0.14923249185085297
1772786256829038300,4.536038330078125,0.15116600692272186,-0.05895349383354187,-0.0005902956472709775
1772786256839054600,4.5460546875,0.1697419434785843,-0.09775638580322266,-0.17046764492988586
1772786256849071600,4.556071533203125,0.18786634504795074,-0.12735821306705475,-0.32505401968955994
1772786256859087400,4.56608740234375,0.20773476362228394,-0.12461195886135101,-0.44990020990371704
1772786256869103400,4.576103271484375,0.2519285976886749,-0.1135539785027504,-0.5436965227127075
1772786256879119400,4.586119384765625,0.3297725319862366,-0.11367128789424896,-0.6008387207984924
1772786256889135400,4.59613525390625,0.42363297939300537,-0.14541883766651154,-0.6193543672561646
1772786256899151600,4.606151611328125,0.5065861940383911,-0.1587563008069992,-0.5953406095504761
1772786256909168400,4.61616845703125,0.5805725455284119,-0.13748030364513397,-0.5524224638938904
1772786256919184400,4.626184326171875,0.633788526058197,-0.11008138954639435,-0.501418948173523
1772786256929200400,4.636200439453125,0.6547555923461914,-0.08641654253005981,-0.45247188210487366
1772786256939216400,4.64621630859375,0.654944658279419,-0.08180920034646988,-0.40975484251976013
1772786256949232600,4.656232666015625,0.6283873319625854,-0.08407208323478699,-0.3688441514968872
1772786256959249400,4.66624951171875,0.5843376517295837,-0.10824398696422577,-0.33906179666519165
1772786256969265400,4.676265380859375,0.4689639210700989,-0.15406447649002075,-0.34204718470573425
1772786256979281400,4.686281494140625,0.29540249705314636,-0.18258871138095856,-0.3482767939567566
1772786256989297400,4.69629736328125,0.08187208324670792,-0.2313368022441864,-0.37721285223960876
1772786256999313400,4.7063134765625,-0.09441334009170532,-0.29254060983657837,-0.44038960337638855
1772786257009329700,4.71632958984375,-0.20497766137123108,-0.3190518319606781,-0.4526348114013672
1772786257019346400,4.726346435546875,-0.2889045178890228,-0.39230474829673767,-0.4172842800617218
1772786257029362400,4.736362548828125,-0.34060898423194885,-0.4573875963687897,-0.36689114570617676
1772786257039378400,4.74637841796875,-0.3583884537220001,-0.4794901907444,-0.3139417767524719
1772786257049394400,4.75639453125,-0.36224204301834106,-0.4801812767982483,-0.282329797744751
1772786257059410700,4.76641064453125,-0.3686060905456543,-0.4572557210922241,-0.2739209830760956
1772786257069426400,4.776426513671875,-0.3839077949523926,-0.3952450752258301,-0.2813951373100281
1772786257079443500,4.786443359375,-0.39071333408355713,-0.30743148922920227,-0.32163292169570923
1772786257089459500,4.79645947265625,-0.3899569809436798,-0.21724966168403625,-0.38488033413887024
1772786257099475500,4.806475341796875,-0.38202494382858276,-0.12279779464006424,-0.45157870650291443
1772786257109491500,4.816491455078125,-0.3735063076019287,-0.0438435934484005,-0.4808971881866455
1772786257119507500,4.826507568359375,-0.381011426448822,0.02156672812998295,-0.4559902548789978
1772786257129523500,4.8365234375,-0.415454626083374,0.04764200747013092,-0.4217451810836792
1772786257139540500,4.84654052734375,-0.4274311065673828,0.09168241173028946,-0.38449135422706604
1772786257149556500,4.856556396484375,-0.41402608156204224,0.1276550590991974,-0.3466201424598694
1772786257159572500,4.866572509765625,-0.4199346899986267,0.1388443410396576,-0.32289204001426697
1772786257169588500,4.87658837890625,-0.4312952160835266,0.14040520787239075,-0.3113882541656494
1772786257179604500,4.8866044921875,-0.42365753650665283,0.1499248892068863,-0.28118178248405457
1772786257189620500,4.896620361328125,-0.40431153774261475,0.15619850158691406,-0.21590982377529144
1772786257199637500,4.906637451171875,-0.3937721252441406,0.1400480717420578,-0.13663454353809357
1772786257209653500,4.916653564453125,-0.3948914408683777,0.09210024774074554,-0.06240371987223625
1772786257219669500,4.92666943359375,-0.40411704778671265,0.01944979652762413,-0.008432610891759396
1772786257229685500,4.936685546875,-0.4157606363296509,-0.05348965898156166,0.017360636964440346
1772786257239701500,4.946701416015625,-0.4336257874965668,-0.11139284074306488,0.0318487323820591
1772786257249718500,4.956718505859375,-0.4504135549068451,-0.13230344653129578,0.055120229721069336
1772786257259734300,4.966734375,-0.4845999777317047,-0.14298012852668762,0.07909300178289413
1772786257269750300,4.976750244140625,-0.5339712500572205,-0.12599529325962067,0.08284086734056473
1772786257279766500,4.9867666015625,-0.5996232032775879,-0.07889052480459213,0.06822448968887329
1772786257289782500,4.996782470703125,-0.6717722415924072,-0.013061441481113434,0.044297583401203156
1772786257299798500,5.006798583984375,-0.7556843161582947,0.059296272695064545,0.02369963936507702
1772786257309815300,5.016815185546875,-0.8227176666259766,0.13285145163536072,0.01942313462495804
1772786257319831300,5.026831298828125,-0.8688113689422607,0.18677625060081482,0.025272110477089882
1772786257329847600,5.03684765625,-0.8937172889709473,0.19887419044971466,0.049176376312971115
1772786257339863600,5.046863525390625,-0.9179928302764893,0.17776206135749817,0.11172635108232498
1772786257349879600,5.056879638671875,-0.9257487654685974,0.19173941016197205,0.2047436386346817
1772786257359895600,5.0668955078125,-0.917306661605835,0.22703716158866882,0.2497582584619522
1772786257369912300,5.076912353515625,-0.9351661205291748,0.2321549504995346,0.19767268002033234
1772786257379928300,5.08692822265625,-0.9613557457923889,0.2690381407737732,0.1221776157617569
1772786257389944600,5.096944580078125,-0.948649525642395,0.3425464630126953,0.050848037004470825
1772786257399960600,5.106960693359375,-0.909770131111145,0.42818644642829895,-0.009682335890829563
1772786257409976600,5.1169765625,-0.8800705671310425,0.4937595725059509,-0.03760531172156334
1772786257419992300,5.126992431640625,-0.8478288650512695,0.5266032814979553,-0.013950801454484463
1772786257430009300,5.13700927734375,-0.8093933463096619,0.5953104496002197,0.04992911219596863
1772786257440025600,5.147025634765625,-0.772319495677948,0.681495726108551,0.133452907204628
1772786257450041600,5.15704150390625,-0.7454604506492615,0.7317333221435547,0.20941504836082458
1772786257460057600,5.1670576171875,-0.7133343815803528,0.7173671722412109,0.25101882219314575
1772786257470073300,5.1770732421875,-0.6607609391212463,0.6302322745323181,0.24475933611392975
1772786257480089300,5.18708935546875,-0.5831261277198792,0.5027298331260681,0.21461345255374908
1772786257490106600,5.197106689453125,-0.4966660737991333,0.3348076641559601,0.19524401426315308
1772786257500122600,5.20712255859375,-0.3962603807449341,0.12949787080287933,0.1996077299118042
1772786257510138600,5.217138671875,-0.2791774272918701,-0.0822327509522438,0.2223745733499527
1772786257520154400,5.227154296875,-0.1468374878168106,-0.282147079706192,0.2499927133321762
1772786257530170400,5.23717041015625,-0.0014965434093028307,-0.4738723039627075,0.29047220945358276
1772786257540186400,5.247186279296875,0.142303004860878,-0.6281905770301819,0.3500300347805023
1772786257550203600,5.25720361328125,0.2778480648994446,-0.7403650879859924,0.4172666072845459
1772786257560219600,5.2672197265625,0.39268481731414795,-0.7815403938293457,0.4724845886230469
1772786257570235400,5.2772353515625,0.4807656407356262,-0.7439373731613159,0.48609840869903564
1772786257580251600,5.287251708984375,0.5149343609809875,-0.6506975889205933,0.4312015175819397
1772786257590267600,5.297267578125,0.50071120262146,-0.5221079587936401,0.3276953399181366
1772786257600283600,5.30728369140625,0.46813783049583435,-0.34509506821632385,0.21605391800403595
1772786257610300700,5.31730078125,0.41413822770118713,-0.21861061453819275,0.13060320913791656
1772786257620316700,5.327316650390625,0.2868439555168152,-0.15059088170528412,0.06373687833547592
1772786257630332700,5.337332763671875,0.09799468517303467,-0.05439165607094765,0.026424922049045563
1772786257640348700,5.3473486328125,-0.11822540313005447,0.08792846649885178,0.008126222528517246
1772786257650364700,5.35736474609375,-0.305266410112381,0.22941769659519196,-0.0016065659001469612
1772786257660380700,5.367380615234375,-0.42414045333862305,0.3290841579437256,-0.005200969986617565
1772786257670397700,5.377397705078125,-0.513226330280304,0.3304674029350281,-0.02211550436913967
1772786257680413700,5.38741357421875,-0.5814679265022278,0.2709197402000427,-0.03104170225560665
1772786257690429700,5.3974296875,-0.6169212460517883,0.1719079464673996,-0.01397083979099989
1772786257700445700,5.40744580078125,-0.6116148233413696,0.031827546656131744,0.00608051149174571
1772786257710461700,5.417461669921875,-0.5494616627693176,-0.1655140221118927,0.022312745451927185
1772786257720477700,5.427477783203125,-0.4649360179901123,-0.3523811399936676,0.040135663002729416
1772786257730493700,5.43749365234375,-0.3655010163784027,-0.5130115747451782,0.060039594769477844
1772786257740510700,5.4475107421875,-0.2578408122062683,-0.6286879777908325,0.09353796392679214
1772786257750526700,5.457526611328125,-0.15341852605342865,-0.6903380155563354,0.14170177280902863
1772786257760542700,5.467542724609375,-0.059367090463638306,-0.6972274780273438,0.19353699684143066
1772786257770558700,5.477558837890625,0.032104503363370895,-0.6622071862220764,0.2389124631881714
1772786257780574700,5.48757470703125,0.1301169991493225,-0.6009725332260132,0.26232507824897766
1772786257790590700,5.4975908203125,0.23081699013710022,-0.5173673629760742,0.24740098416805267
1772786257800607700,5.507607666015625,0.30789491534233093,-0.42249777913093567,0.20371581614017487
1772786257810623700,5.517623779296875,0.3436390459537506,-0.3153153955936432,0.14297549426555634
1772786257820639500,5.527639404296875,0.36936935782432556,-0.19055041670799255,0.06591075658798218
1772786257830655700,5.53765576171875,0.37139150500297546,-0.07301634550094604,-0.009112890809774399
1772786257840671700,5.547671630859375,0.3495013117790222,0.03844187408685684,-0.07354521006345749
1772786257850687700,5.557687744140625,0.30874961614608765,0.14322209358215332,-0.11095063388347626
1772786257860704800,5.567704833984375,0.24350614845752716,0.22437840700149536,-0.11818232387304306
1772786257870720500,5.577720458984375,0.15847328305244446,0.2688547968864441,-0.10227659344673157
1772786257880736800,5.58773681640625,0.07346060872077942,0.24405433237552643,-0.08381187915802002
1772786257890752800,5.597752685546875,0.0032652742229402065,0.18707174062728882,-0.08227283507585526
1772786257900768800,5.607768798828125,-0.03697642311453819,0.0890602171421051,-0.09512019157409668
1772786257910784800,5.61778466796875,-0.05458177998661995,-0.018781553953886032,-0.10661759227514267
1772786257920801500,5.627801513671875,-0.05263542756438255,-0.12905821204185486,-0.09596306085586548
1772786257930817500,5.637817626953125,-0.05803631618618965,-0.22502867877483368,-0.07183562219142914
1772786257940833800,5.647833740234375,-0.06958317756652832,-0.28624144196510315,-0.048036303371191025
1772786257950849800,5.657849853515625,-0.0731843039393425,-0.31153133511543274,-0.011471903882920742
1772786257960865800,5.66786572265625,-0.07091908901929855,-0.30880293250083923,0.04566624388098717
1772786257970881800,5.6778818359375,-0.04605395719408989,-0.2908942401409149,0.10510213673114777
1772786257980897800,5.687897705078125,0.012336661107838154,-0.2816910445690155,0.13369126617908478
1772786257990914800,5.697914794921875,0.07920490950345993,-0.2966843843460083,0.13419193029403687
1772786258000930800,5.707930908203125,0.1526796668767929,-0.3097075819969177,0.11798718571662903
1772786258010946800,5.71794677734375,0.21822592616081238,-0.3204209506511688,0.11305634677410126
1772786258020962800,5.727962890625,0.27402621507644653,-0.31706687808036804,0.12476472556591034
1772786258030978600,5.737978515625,0.3264524042606354,-0.3020029664039612,0.16066306829452515
1772786258040994600,5.74799462890625,0.3619225025177002,-0.25726693868637085,0.21175289154052734
1772786258051011800,5.75801171875,0.37673288583755493,-0.20707857608795166,0.2553595006465912
1772786258061027800,5.76802783203125,0.3784760534763336,-0.1495196372270584,0.279766321182251
1772786258071043800,5.7780439453125,0.37457558512687683,-0.09416184574365616,0.29016703367233276
1772786258081059600,5.7880595703125,0.35802769660949707,-0.04984426498413086,0.2940824627876282
1772786258091075600,5.79807568359375,0.3341130316257477,-0.03337420895695686,0.29332825541496277
1772786258101091600,5.808091552734375,0.31238308548927307,-0.048257287591695786,0.2951870262622833
1772786258111108900,5.81810888671875,0.2937721014022827,-0.08926784247159958,0.30118048191070557
1772786258121124900,5.828124755859375,0.29506418108940125,-0.08504977822303772,0.298148512840271
1772786258131140600,5.838140625,0.28487518429756165,0.001233438029885292,0.2618890404701233
1772786258141156600,5.848156494140625,0.20911261439323425,0.20829381048679352,0.17215682566165924
1772786258151172600,5.858172607421875,0.11626335233449936,0.49851498007774353,0.06335949897766113
1772786258161188600,5.868188720703125,0.05600479990243912,0.761053740978241,0.025748953223228455
1772786258171204900,5.878204833984375,0.05121483653783798,0.9716083407402039,0.08286017179489136
1772786258181221600,5.8882216796875,0.07772789150476456,1.0731277465820312,0.1610928773880005
1772786258191237600,5.898237548828125,0.12871704995632172,1.0705574750900269,0.21923448145389557
1772786258201253600,5.908253662109375,0.21150359511375427,0.9990186095237732,0.24249447882175446
1772786258211269600,5.91826953125,0.2749571204185486,0.833015501499176,0.2755086123943329
1772786258221286000,5.928285888671875,0.3505256474018097,0.6030448079109192,0.3315393328666687
1772786258231302000,5.938302001953125,0.41575711965560913,0.37595731019973755,0.3927805721759796
1772786258241318700,5.948318603515625,0.4304247200489044,0.19914793968200684,0.41413018107414246
1772786258251334700,5.958334716796875,0.38882720470428467,0.06270541250705719,0.387938529253006
1772786258261350700,5.9683505859375,0.32862570881843567,-0.06543436646461487,0.3221817910671234
1772786258271367000,5.978366943359375,0.2700396478176117,-0.17836490273475647,0.24406833946704865
1772786258281383000,5.9883828125,0.21197408437728882,-0.2522505819797516,0.1633763611316681
1772786258291398700,5.998398681640625,0.1611173003911972,-0.2803463935852051,0.09611797332763672
1772786258301414700,6.00841455078125,0.11133845150470734,-0.27699756622314453,0.05859857052564621
1772786258311431700,6.018431640625,0.06535551697015762,-0.23733696341514587,0.04901944845914841
1772786258321447700,6.02844775390625,0.03645239397883415,-0.17409434914588928,0.059958502650260925
1772786258331464000,6.0384638671875,0.025752877816557884,-0.09910345822572708,0.09352897852659225
1772786258341479700,6.048479736328125,0.0396931953728199,0.012727728113532066,0.1289932280778885
1772786258351495700,6.05849560546875,0.08020786195993423,0.07213859260082245,0.13271605968475342
1772786258361511700,6.06851171875,0.13754525780677795,0.0783904418349266,0.11021094024181366
1772786258371528700,6.07852880859375,0.21021093428134918,0.06874580681324005,0.05852990224957466
1772786258381544700,6.088544677734375,0.2838452458381653,0.059434421360492706,-0.009702760726213455
1772786258391560700,6.098560791015625,0.34517547488212585,0.07743978500366211,-0.07674571126699448
1772786258401576700,6.10857666015625,0.39163047075271606,0.12780842185020447,-0.1147875189781189
1772786258411592700,6.1185927734375,0.41414323449134827,0.2172810435295105,-0.11788877099752426
1772786258421608700,6.128608642578125,0.42200854420661926,0.2652592658996582,-0.12784206867218018
1772786258431624700,6.138624755859375,0.4287932217121124,0.2520236372947693,-0.15955260396003723
1772786258441641700,6.148641845703125,0.452449768781662,0.21240675449371338,-0.2000468671321869
1772786258451657700,6.15865771484375,0.47604990005493164,0.175410658121109,-0.21804530918598175
1772786258461673700,6.168673828125,0.49852120876312256,0.14687412977218628,-0.19927026331424713
1772786258471689700,6.178689697265625,0.5232124924659729,0.13739168643951416,-0.16099238395690918
1772786258481705700,6.188705810546875,0.5533771514892578,0.11879855394363403,-0.12417349964380264
1772786258491721700,6.1987216796875,0.5872179269790649,0.08001493662595749,-0.09481853991746902
1772786258501737700,6.20873779296875,0.6294475197792053,0.037776313722133636,-0.07622654736042023
1772786258511754800,6.218754638671875,0.6695714592933655,-0.0018139705061912537,-0.06357786059379578
1772786258521770800,6.228770751953125,0.6895372271537781,-0.023723531514406204,-0.0598214715719223
1772786258531786800,6.238786865234375,0.6797388792037964,-0.039666011929512024,-0.0500764325261116
1772786258541802800,6.248802734375,0.6268108487129211,-0.05932089313864708,-0.056130312383174896
1772786258551818500,6.258818603515625,0.5571742653846741,-0.04181833565235138,-0.08069850504398346
1772786258561834800,6.268834716796875,0.46359893679618835,-0.002541192341595888,-0.0860358476638794
1772786258571851800,6.278851806640625,0.35359519720077515,0.023247260600328445,-0.06805524230003357
1772786258581867800,6.28886767578125,0.24405907094478607,0.04521673917770386,-0.03979482129216194
1772786258591883800,6.2988837890625,0.15469962358474731,0.05692106485366821,-0.01626499556005001
1772786258601899500,6.3088994140625,0.09497695416212082,0.07792484760284424,0.0021564557682722807
1772786258611915500,6.31891552734375,0.06825825572013855,0.080475352704525,0.016087185591459274
1772786258621931500,6.328931640625,0.06790386140346527,0.05576689541339874,0.013173872604966164
1772786258631947500,6.338947509765625,0.08899369835853577,0.024449985474348068,-0.0018721884116530418
1772786258641964800,6.34896484375,0.12023374438285828,0.005079132039099932,-0.01625225879251957
1772786258651980500,6.35898046875,0.14936579763889313,0.013054500333964825,-0.030650904402136803
1772786258661996500,6.36899658203125,0.16634298861026764,0.05977149307727814,-0.03577277809381485
1772786258672012500,6.379012451171875,0.1730664074420929,0.1426496058702469,-0.043613921850919724
1772786258682028500,6.389028564453125,0.1766335815191269,0.22839580476284027,-0.06590747088193893
1772786258692044500,6.39904443359375,0.17972418665885925,0.29981404542922974,-0.10748207569122314
1772786258702060800,6.409060791015625,0.1774309128522873,0.34827151894569397,-0.15690158307552338
1772786258712077600,6.41907763671875,0.17298050224781036,0.38166674971580505,-0.2036168873310089
1772786258722093600,6.429093505859375,0.15857993066310883,0.3933972716331482,-0.2452550083398819
1772786258732109600,6.439109619140625,0.14148801565170288,0.37462759017944336,-0.27045944333076477
1772786258742125600,6.44912548828125,0.12813295423984528,0.3587321937084198,-0.2992303967475891
1772786258752141600,6.4591416015625,0.12037543207406998,0.3440701365470886,-0.32201480865478516
1772786258762157600,6.469157470703125,0.09253985434770584,0.3126142621040344,-0.3245926797389984
1772786258772173600,6.479173583984375,0.03054838627576828,0.27208495140075684,-0.3128446936607361
1772786258782190600,6.489190673828125,-0.010107779875397682,0.26724690198898315,-0.28430017828941345
1772786258792206600,6.49920654296875,-0.08450505137443542,0.20152756571769714,-0.24101395905017853
1772786258802222600,6.50922265625,-0.1863451898097992,0.09269101172685623,-0.18942710757255554
1772786258812238600,6.519238525390625,-0.2697463631629944,0.016932597383856773,-0.12193436175584793
1772786258822254600,6.529254638671875,-0.32969972491264343,-0.05796059966087341,-0.0446397103369236
1772786258832270600,6.5392705078125,-0.3891012668609619,-0.12638039886951447,0.00490973237901926
1772786258842286600,6.54928662109375,-0.4479086697101593,-0.18735365569591522,0.016434336081147194
1772786258852303600,6.5593037109375,-0.5021724104881287,-0.22089003026485443,-0.017602460458874702
1772786258862319600,6.569319580078125,-0.5529622435569763,-0.26922425627708435,-0.08318864554166794
1772786258872335600,6.579335693359375,-0.6127691268920898,-0.31259116530418396,-0.13380494713783264
1772786258882351600,6.5893515625,-0.6620206832885742,-0.34725087881088257,-0.16810820996761322
1772786258892367600,6.59936767578125,-0.692223310470581,-0.3755142092704773,-0.18416599929332733
1772786258902383600,6.609383544921875,-0.7270335555076599,-0.3831452429294586,-0.1544017642736435
1772786258912399600,6.619399658203125,-0.7703360319137573,-0.32256314158439636,-0.0675017461180687
1772786258922416600,6.629416748046875,-0.8309386372566223,-0.1896647810935974,0.0571022629737854
1772786258932432600,6.6394326171875,-0.8880327939987183,-0.08115934580564499,0.17264802753925323
1772786258942448600,6.64944873046875,-0.914383053779602,-0.01873582974076271,0.24343261122703552
1772786258952464600,6.659464599609375,-0.9116591811180115,0.025058787316083908,0.2601780295372009
1772786258962480600,6.669480712890625,-0.8855588436126709,0.07812520116567612,0.23993490636348724
1772786258972496400,6.679496337890625,-0.8514000773429871,0.1419481337070465,0.21863920986652374
1772786258982512400,6.689512451171875,-0.8108540177345276,0.21605311334133148,0.203782856464386
1772786258992529700,6.69952978515625,-0.7663997411727905,0.27135685086250305,0.18402884900569916
1772786259002545700,6.709545654296875,-0.7266377210617065,0.2878255844116211,0.14423546195030212
1772786259012561700,6.719561767578125,-0.6911404132843018,0.2720775008201599,0.09212087094783783
1772786259022577400,6.729577392578125,-0.6603273749351501,0.260628879070282,0.0510089248418808
1772786259032593400,6.739593505859375,-0.6349560022354126,0.2500039339065552,0.03578496351838112
1772786259042609700,6.749609619140625,-0.6119837760925293,0.23583361506462097,0.042790159583091736
1772786259052625700,6.759625732421875,-0.5899045467376709,0.239585742354393,0.06946943700313568
1772786259062642700,6.769642578125,-0.5699847936630249,0.2610647976398468,0.09747970849275589
1772786259072658400,6.779658447265625,-0.560649573802948,0.3119572699069977,0.1172771155834198
1772786259082674400,6.78967431640625,-0.5673187971115112,0.3584762513637543,0.11934930086135864
1772786259092690700,6.799690673828125,-0.5743297934532166,0.37762650847435,0.10338018834590912
1772786259102706700,6.809706787109375,-0.5705046653747559,0.3741006553173065,0.06231233850121498
1772786259112722700,6.81972265625,-0.5594879984855652,0.3542465269565582,0.004685262218117714
1772786259122738700,6.82973876953125,-0.5370444059371948,0.3230901062488556,-0.06697511672973633
1772786259132755500,6.83975537109375,-0.5069411396980286,0.3056972920894623,-0.13263534009456635
1772786259142771500,6.849771484375,-0.4755818247795105,0.28753867745399475,-0.17144766449928284
1772786259152787700,6.85978759765625,-0.4486551284790039,0.2670254111289978,-0.17522349953651428
1772786259162803700,6.8698037109375,-0.42369675636291504,0.2650473713874817,-0.14975039660930634
1772786259172819700,6.87981982421875,-0.3982483744621277,0.27131006121635437,-0.11015452444553375
1772786259182835500,6.88983544921875,-0.37246018648147583,0.26567962765693665,-0.08308935165405273
1772786259192851500,6.8998515625,-0.3502100110054016,0.24474477767944336,-0.06700599193572998
1772786259202868700,6.90986865234375,-0.32695046067237854,0.20604589581489563,-0.05870930105447769
1772786259212884700,6.919884765625,-0.29262712597846985,0.16906310617923737,-0.05708210915327072
1772786259222900700,6.929900634765625,-0.2421501874923706,0.1270550638437271,-0.04765325039625168
1772786259232916500,6.93991650390625,-0.19254454970359802,0.08682934939861298,-0.02672293409705162
1772786259242932500,6.949932373046875,-0.14391286671161652,0.03941771388053894,-0.00435553677380085
1772786259252948500,6.959948486328125,-0.10662966966629028,-0.008798284456133842,0.01580911874771118
1772786259262964500,6.969964599609375,-0.08540531247854233,-0.04906456917524338,0.024959169328212738
1772786259272981800,6.979981689453125,-0.07533083856105804,-0.07289080321788788,0.027632450684905052
1772786259282997500,6.98999755859375,-0.0668763741850853,-0.08443520963191986,0.029242776334285736
1772786259293013500,7.000013427734375,-0.051889702677726746,-0.0863681361079216,0.035806939005851746
1772786259303029500,7.010029541015625,-0.03581025451421738,-0.06933735311031342,0.051640287041664124
1772786259313045500,7.02004541015625,-0.0200499314814806,-0.09667949378490448,0.13571122288703918
1772786259323061800,7.030061767578125,-0.001325733494013548,-0.11956319957971573,0.21213334798812866
1772786259333077800,7.040077880859375,0.018063943833112717,-0.1166321188211441,0.2251031994819641
1772786259343094500,7.050094482421875,0.03579986095428467,-0.08460991084575653,0.1591358184814453
1772786259353110500,7.060110595703125,0.030839189887046814,-0.04338737577199936,0.05483071878552437
1772786259363126500,7.07012646484375,-0.002147650346159935,0.032132502645254135,-0.05230409651994705
1772786259373142500,7.080142578125,-0.05088376626372337,0.12088260799646378,-0.13279707729816437
1772786259383158800,7.09015869140625,-0.09652122855186462,0.19291508197784424,-0.18161235749721527
1772786259393174500,7.100174560546875,-0.13462333381175995,0.259061336517334,-0.20789429545402527
1772786259403190500,7.1101904296875,-0.15805447101593018,0.2628002464771271,-0.18741585314273834
1772786259413207600,7.12020751953125,-0.17538951337337494,0.18706713616847992,-0.07342936843633652
1772786259423223600,7.1302236328125,-0.16129150986671448,0.11621022969484329,0.03303015977144241
