time,seconds_elapsed,z,y,x
1772619244507756500,0.072756591796875,0.1206774667352438,-0.20168255603462457,0.05549655403345823
1772619244517787400,0.082787353515625,0.07481178761720657,-0.1305979722470045,0.057746744113042946
1772619244527818500,0.092818603515625,0.04635492393970489,-0.059031157900393004,0.09509659688547253
1772619244537849300,0.102849365234375,-0.022564883029460907,0.03269493963867426,0.14704576063565908
1772619244547880400,0.11288037109375,-0.04411386701464653,0.0992380806043744,0.13047909510768949
1772619244557911300,0.122911376953125,0.00793897630572319,0.09890841025859116,0.10409231570251286
1772619244567942400,0.1329423828125,0.09399228890538215,0.09040946198254823,0.09042217533364892
1772619244577973200,0.14297314453125,0.1535766967743635,0.08159837901741265,0.1108306840468198
1772619244588004400,0.15300439453125,0.20863807426095007,0.031714404168725015,0.10194807021543383
1772619244598035500,0.163035400390625,0.2285012971162796,-0.014575637841224669,0.0623410861659795
1772619244608066600,0.173066650390625,0.2133037279844284,-0.03823591489195823,-0.010281374713405966
1772619244618097700,0.18309765625,0.17497604315578935,-0.06555208410173655,-0.08460245620422065
1772619244628128500,0.19312841796875,0.1660778664290905,-0.07764934913069009,-0.11827807744331657
1772619244638159600,0.20315966796875,0.14525661219656466,-0.07817015813440084,-0.1539331089965999
1772619244648190500,0.2131904296875,0.10225742842555045,-0.0794330176770687,-0.1381899617459625
1772619244658222300,0.223222412109375,0.04280395345985889,-0.09268237535059451,-0.14529920922927558
1772619244668253400,0.23325341796875,0.003007365122437477,-0.13506342722326517,-0.1836828620288521
1772619244678284300,0.2432841796875,-0.0029898294657468793,-0.17783698554486035,-0.21178338654935358
1772619244688315400,0.2533154296875,-0.0012017770051956176,-0.22176497459858655,-0.2438346945222467
1772619244698346500,0.263346435546875,-0.0012409399718046187,-0.2379755201652646,-0.2721967195231467
1772619244708377300,0.27337744140625,0.01927519383430481,-0.26606238148659467,-0.2745302039720118
1772619244718408400,0.283408447265625,0.02559972068071365,-0.26047669030874965,-0.23794088724330067
1772619244728439300,0.293439208984375,-0.008030161720514297,-0.23720891970694064,-0.18123736857287584
1772619244738470700,0.303470703125,-0.07970598939955234,-0.18180851952433585,-0.11372048720419406
1772619244748501500,0.31350146484375,-0.11847323468923568,-0.14901947186142206,-0.07040814583078027
1772619244758532600,0.32353271484375,-0.12906184872090815,-0.12538316020816564,-0.034831805536895986
1772619244768563500,0.3335634765625,-0.09670739308297634,-0.06142798990905284,0.025811390670016407
1772619244778594600,0.343594482421875,-0.03209317435324192,-0.009815876093506813,0.07631978102736174
1772619244788625400,0.35362548828125,0.0035989012748003004,0.00715162532031536,0.09863375803567469
1772619244798656500,0.363656494140625,0.05350596473813057,0.027869126917421817,0.10194682810641825
1772619244808687400,0.373687255859375,0.09262450768351554,0.017704875777661798,0.08201346262432635
1772619244818718500,0.383718505859375,0.09471884961426258,0.007331073540449142,0.07812412703558802
1772619244828749300,0.393749267578125,0.09841711961030959,0.03402326563298702,0.10326660546809434
1772619244838780400,0.403780517578125,0.10384440535604954,0.03921469679623842,0.08245864910855889
1772619244848811300,0.413811279296875,0.09683014267981052,0.02370879236757755,0.08576448572091758
1772619244858842400,0.42384228515625,0.11742577146291733,0.01941460230499506,0.09826755507178604
1772619244868873500,0.43387353515625,0.11848200251758098,0.03818096983432769,0.15046696725599468
1772619244878904300,0.443904296875,0.059708326509594914,0.03180705088824034,0.19139292494952678
1772619244888935400,0.453935302734375,0.022142273703217506,0.029329262597858903,0.1775133065484464
1772619244898966500,0.463966552734375,-0.02844926489293575,0.03259031022042036,0.1470761557739228
1772619244908997600,0.47399755859375,-0.06746493198573589,0.03895633812099695,0.14712898193970322
1772619244919028500,0.484028564453125,-0.0477706359565258,0.040780923199653624,0.14615516847148538
1772619244929059600,0.4940595703125,-0.01455868670642376,0.052017772006988525,0.14523147775530815
1772619244939090400,0.50409033203125,0.0633820465862751,0.034466917747259136,0.12042816814929246
1772619244949121500,0.51412158203125,0.09031506169736385,0.027325813820958136,0.08843538543060421
1772619244959152400,0.52415234375,0.0634299773812294,0.019315525844693184,0.057765960270166394
1772619244969183500,0.53418359375,0.05981178688406944,-0.010899871937930584,0.013331848325207828
1772619244979214300,0.54421435546875,0.06827332575917243,-0.019684066896140575,-0.0514768700633198
1772619244989245400,0.554245361328125,0.057958852493762966,-0.03128916449397802,-0.04222264644056559
1772619244999276300,0.5642763671875,0.09356266531646251,-0.05869418103098869,-0.05921798570938408
1772619245009307400,0.574307373046875,0.14109189373254774,-0.09143851276934147,-0.03837298527508974
1772619245019338500,0.58433837890625,0.17186054148375987,-0.11928835046440363,-0.02012121620438993
1772619245029369300,0.594369384765625,0.2119090587556362,-0.15641513507068155,-0.01846658086515963
1772619245039400400,0.604400390625,0.24343173974454402,-0.14953063625395296,-0.03390336558036506
1772619245049431600,0.614431640625,0.2596229960888624,-0.15239713160097598,-0.03367781319618225
1772619245059462700,0.624462646484375,0.29202479799985886,-0.14357961889505386,-0.022026976760476828
1772619245069493500,0.634493408203125,0.30566520081758497,-0.13361644328534603,0.02248188092112541
1772619245079524600,0.644524658203125,0.27156886994838714,-0.0929597309872508,0.07387282626666128
1772619245089555500,0.654555419921875,0.24191782805025577,-0.05303688592165708,0.09825535317733883
1772619245099586600,0.664586669921875,0.1697591852903366,-0.07064034715145825,0.13550766385942697
1772619245109617400,0.674617431640625,0.17747370519042013,-0.06949468424767255,0.18682839351296424
1772619245119648500,0.6846484375,0.22463293125033376,-0.05121346988677978,0.2297664947465062
1772619245129679400,0.694679443359375,0.3002121961086988,-0.07726034981310367,0.27478454405926167
1772619245139710500,0.70471044921875,0.37041912027895446,-0.09640314943939447,0.3165769093237817
1772619245149741300,0.7147412109375,0.44710839220583437,-0.13403642226308585,0.33841625455766916
1772619245159772400,0.7247724609375,0.5324222846150398,-0.16876812842637298,0.37659064852073787
1772619245169803300,0.73480322265625,0.5750082114100455,-0.194764447209239,0.4243668374352157
1772619245179834400,0.74483447265625,0.6123492232888936,-0.20916180587410926,0.4247529141433537
1772619245189865500,0.754865478515625,0.5378606762766838,-0.24063977093845604,0.43616774986609813
1772619245199896300,0.764896240234375,0.42591713561713695,-0.24665625474900005,0.4369768012266606
1772619245209927700,0.774927734375,0.3314426161527633,-0.24283377385139465,0.44715880721881984
1772619245219958500,0.78495849609375,0.27154139741957184,-0.22753771278113125,0.46791678695678707
1772619245229989600,0.79498974609375,0.25613866110444067,-0.26055501624196764,0.4784780745901167
1772619245240020500,0.8050205078125,0.2608124981343746,-0.3121726830154657,0.4114871898569166
1772619245250051600,0.815051513671875,0.2809545379310846,-0.38423517192453144,0.35776232167109845
1772619245260082400,0.82508251953125,0.29816870758235453,-0.4820429274648428,0.2755200187269598
1772619245270113500,0.835113525390625,0.2858095767468214,-0.566012419527769,0.20061565745547413
1772619245280144400,0.845144287109375,0.24034429512321948,-0.6228159645065665,0.15675547294095157
1772619245290175500,0.855175537109375,0.16564882736206055,-0.6607160715728998,0.10872859720103442
1772619245300206300,0.865206298828125,0.07044716266691685,-0.6857809547245503,0.06946984206736087
1772619245310237400,0.875237548828125,-0.024455226820707318,-0.7327794372648,0.05509791010469198
1772619245320268300,0.885268310546875,-0.1795318067640066,-0.7142980241566896,0.08155088661387562
1772619245330299400,0.89529931640625,-0.3494914830625057,-0.665676616589725,0.10348207484968006
1772619245340331500,0.90533154296875,-0.4778203413337469,-0.6280901055172086,0.14708470440655946
1772619245350361300,0.915361328125,-0.5743611456781625,-0.5557318485319614,0.15829868379496037
1772619245360393200,0.925393310546875,-0.5783657051444053,-0.5189931864604354,0.18472038838304577
1772619245370424600,0.935424560546875,-0.5189461324483156,-0.48710459476858375,0.2119434724818915
1772619245380455400,0.945455322265625,-0.40111119566261766,-0.5097442965999245,0.2178478011548519
1772619245390486500,0.955486572265625,-0.2586982824593782,-0.5253688589721918,0.18463855531848966
1772619245400517400,0.965517333984375,-0.08711246626377105,-0.585778757879883,0.15523644668012856
1772619245410548500,0.975548583984375,0.05546235950291156,-0.6423511244513094,0.14114084744080901
1772619245420579300,0.985579345703125,0.17244097172021866,-0.7041418101929128,0.1184085719551891
1772619245430610400,0.9956103515625,0.295217456561327,-0.7530071095183491,0.09430873444341123
1772619245440641300,1.005641357421875,0.39564357790648935,-0.7997162537232041,0.07852759326994418
1772619245450672400,1.01567236328125,0.46952889832854267,-0.8169703169934451,0.06396927188970149
1772619245460703500,1.025703369140625,0.5464122315227985,-0.8273328671842813,0.044689840271696445
1772619245470734300,1.035734375,0.5715934345304966,-0.8478406715534627,0.02332870700880885
1772619245480765400,1.045765380859375,0.5625047036677598,-0.8427854339905083,0.007574380777031183
1772619245490796300,1.05579638671875,0.5847264723479747,-0.8584466751113533,0.0027586510583758354
1772619245500827400,1.065827392578125,0.6119932494580745,-0.8676987798422574,0.01242832361422479
1772619245510858200,1.075858154296875,0.6545932047784329,-0.9015896512672305,0.035997049923986196
1772619245520889600,1.0858896484375,0.7078881571143865,-0.9694437287010252,0.03581920913904905
1772619245530920400,1.09592041015625,0.7895680769354104,-1.0186756693817673,0.0361793476883322
1772619245540951600,1.10595166015625,0.8639479028761387,-1.0759912555359303,0.01654796082749963
1772619245550982400,1.115982421875,0.8820575600624084,-1.1200187594413757,-0.016733400397002697
1772619245561013500,1.126013427734375,0.8310311371803283,-1.1407662177853286,-0.01075038046464324
1772619245571044400,1.13604443359375,0.7245370940983294,-1.1297424272067844,-0.0008927110560238361
1772619245581075500,1.146075439453125,0.6222147837430239,-1.0988029529333114,0.0534515311371535
1772619245591106300,1.156106201171875,0.5249620317369699,-1.060545556861907,0.08270729010738431
1772619245601137400,1.166137451171875,0.423845005518198,-1.0356883251115678,0.09133388335108757
1772619245611168500,1.17616845703125,0.3359060253024101,-1.0118230270080268,0.10077164684720337
1772619245621199400,1.186199462890625,0.24959903020262716,-0.973258026292175,0.11083981720134616
1772619245631230500,1.19623046875,0.15038696082234382,-0.9231355665124952,0.15486578673683107
1772619245641261300,1.20626123046875,0.08304360938966274,-0.8471342768497765,0.22983780641704796
1772619245651292400,1.21629248046875,0.03871697640717029,-0.8111329891420901,0.2718446181498468
1772619245661323300,1.2263232421875,0.0384510189473629,-0.7787868629410862,0.30416780186668035
1772619245671354400,1.236354248046875,0.056956397452950475,-0.7743769375443458,0.3135418524768203
1772619245681385500,1.246385498046875,0.08607026373445988,-0.8056225551575422,0.30869010159671306
1772619245691416600,1.25641650390625,0.09372808501124381,-0.805856802304834,0.29138072794266046
1772619245701447400,1.266447509765625,0.09335691361129284,-0.8050472394876181,0.24415654688775537
1772619245711478500,1.276478515625,0.08541735278367996,-0.8263266127511858,0.19643493770472703
1772619245721509400,1.28650927734375,0.03955693436264991,-0.8362970948845148,0.15938202205225824
1772619245731540500,1.29654052734375,-0.021076105776429176,-0.826413998773694,0.12450206652469932
1772619245741571300,1.3065712890625,-0.019879589468240737,-0.7928961984448134,0.1255502604033798
1772619245751602400,1.3166025390625,-0.022176175972819328,-0.7356715054444968,0.20120923943445085
1772619245761633300,1.32663330078125,-0.053290860682725906,-0.7072073352433741,0.24799276404976844
1772619245771664400,1.336664306640625,-0.0440583374351263,-0.6649250675700604,0.2651434400107711
1772619245781695500,1.346695556640625,0.0012649053692817688,-0.6676330113545059,0.3175562757499516
1772619245791726300,1.356726318359375,0.06402151353359221,-0.7449059283882379,0.34530630633234977
1772619245801757400,1.36675732421875,0.1404191090375185,-0.8185594858810306,0.32021168562956154
1772619245811788300,1.376788330078125,0.1698597230553627,-0.8802405737683177,0.3000439268697053
1772619245821819400,1.3868193359375,0.13604162460565566,-0.8975529430970549,0.3060495970252901
1772619245831850200,1.396850341796875,0.02123451120853424,-0.9148603439897298,0.33758572201766074
1772619245841881600,1.406881591796875,-0.16435469589829443,-0.9318692003272473,0.3241074509590864
1772619245851912400,1.416912353515625,-0.40551673714518544,-0.9036091743960976,0.330896307381615
1772619245861943600,1.426943603515625,-0.6145382577657699,-0.8929489564329385,0.28736513562574983
1772619245871974400,1.436974365234375,-0.7496896555334329,-0.8914920356228947,0.2392278583139181
1772619245882005500,1.447005615234375,-0.8095587255626916,-0.9012871611893176,0.19835911070033907
1772619245892036400,1.457036376953125,-0.8654366801291704,-0.897117328158766,0.1412623549286276
1772619245902067500,1.4670673828125,-0.9490075282633305,-0.8810939757272601,0.0186965902287513
1772619245912098300,1.477098388671875,-1.0832342124015093,-0.8147901964753865,-0.06438837408460676
1772619245922129400,1.48712939453125,-1.3187772447228432,-0.6759346834927797,-0.0737885455166921
1772619245932160300,1.49716015625,-1.5833558173924684,-0.4937373107813298,-0.019694040300883352
1772619245942191400,1.50719140625,-1.8262153102070091,-0.3030237463980913,0.12515388149693607
1772619245952222500,1.517222412109375,-1.989993083000183,-0.10833747899159789,0.27904114205781366
1772619245962253300,1.52725341796875,-1.9415455706954001,0.07604308297783136,0.39803840062115337
1772619245972284400,1.537284423828125,-1.6981132464289663,0.1826040538161993,0.41170711621791123
1772619245982315300,1.547315185546875,-1.279994801864028,0.20805223719701169,0.4176617868386209
1772619245992346400,1.557346435546875,-0.7613157959192991,0.14572569101303814,0.34833003806769847
1772619246002377500,1.56737744140625,-0.312455591610074,0.03909077815562487,0.2153587242854759
1772619246012408600,1.57740869140625,-0.02041091986596584,-0.034543197853863235,0.04256871993187815
1772619246022439400,1.587439453125,0.1466799229979515,-0.07013137471601366,-0.15424473222903906
1772619246032470500,1.597470458984375,0.2382914542466402,-0.1017372039437294,-0.3007575915643945
1772619246042501400,1.60750146484375,0.2938017445445061,-0.09057546619921922,-0.4366266726147383
1772619246052532500,1.617532470703125,0.3512742748260498,-0.04731178627312183,-0.5601542315514758
1772619246062563300,1.627563232421875,0.4262801237106323,-0.01532937881797552,-0.6540652353815734
1772619246072594400,1.637594482421875,0.5325123009860515,0.01880319240838289,-0.6780731568261981
1772619246082625300,1.647625244140625,0.6633429129451512,0.052719490535557266,-0.6935401174839586
1772619246092656400,1.657656494140625,0.7427835294067859,0.0894350639924407,-0.6637097734961658
1772619246102687200,1.667687255859375,0.7669821511179208,0.15551029518544673,-0.5772372125711291
1772619246112718300,1.67771826171875,0.786170835712552,0.28033903638124463,-0.4434488467849791
1772619246122749400,1.68774951171875,0.7681517794191837,0.38105829545408487,-0.3148575747178867
1772619246132780300,1.6977802734375,0.736026456362009,0.4694494033515453,-0.1740149430386722
1772619246142811400,1.707811279296875,0.6488818413943052,0.5412529490634799,-0.08589702605940401
1772619246152842500,1.717842529296875,0.5634095435529947,0.6164449681699276,-0.01777501840442419
1772619246162873600,1.72787353515625,0.4422697200030088,0.6520785916090012,0.03953209218233823
1772619246172904400,1.737904541015625,0.2396948913037777,0.6742465842753649,0.05153108446858823
1772619246182935600,1.747935546875,0.09284896408915519,0.7195002689749002,0.12092245447225868
1772619246192966400,1.75796630859375,0.002998597294092178,0.8069713394179939,0.2521340285729617
1772619246202997500,1.76799755859375,-0.024099837511777876,0.8436845747873186,0.3569534895062446
1772619246213028400,1.7780283203125,0.01206862345635891,0.8483592886000871,0.4486488996461034
1772619246223059500,1.7880595703125,0.07787526684105396,0.7777969751209021,0.4649384287331253
1772619246233090300,1.79809033203125,0.25843115595579147,0.693593966563046,0.4160159923929721
1772619246243121400,1.808121337890625,0.4716448675692081,0.5440004942059516,0.34165947426259513
1772619246253152300,1.81815234375,0.7788157967746258,0.4013143170192838,0.2648064631413668
1772619246263183400,1.828183349609375,1.0321551825493573,0.2496992757067084,0.20210494616515934
1772619246273215200,1.83821533203125,1.226584698715806,0.10489742154031992,0.16960085292346774
1772619246283245300,1.848245361328125,1.2810972101479767,-0.0066793316334486,0.12514628271237016
1772619246293277400,1.85827734375,1.2245429637551306,-0.08413345045298337,0.07424122118763625
1772619246303308500,1.86830859375,1.1030611948996782,-0.13657149369865654,-0.0028632804766297337
1772619246313339400,1.87833935546875,0.9772492878854274,-0.20291180556863544,-0.07348433840572834
1772619246323370500,1.88837060546875,0.8419102585911751,-0.2587070502877235,-0.1297568452477455
1772619246333401300,1.8984013671875,0.7401625332534313,-0.2502975338608026,-0.1181331160146743
1772619246343432400,1.908432373046875,0.6946428910940885,-0.2631631529137492,-0.08255027291476726
1772619246353463600,1.918463623046875,0.692124186271429,-0.25983254718631504,-0.03378529215864837
1772619246363494700,1.92849462890625,0.6344792220324278,-0.2704696765348315,0.026807196774333714
1772619246373525500,1.938525390625,0.542092030236125,-0.28104572334587574,0.050783919363096355
1772619246383556600,1.948556640625,0.4984796830028295,-0.3161462628215551,0.03678374332226813
1772619246393587700,1.958587646484375,0.4439215788632631,-0.3385597546815872,0.04571647990569472
1772619246403618600,1.96861865234375,0.3914408655196428,-0.3807899999067187,0.05528539550080895
1772619246413649700,1.978649658203125,0.2893979566276073,-0.4070601671949029,0.07013897350057959
1772619246423680500,1.988680419921875,0.23285481615066528,-0.3987167017415166,0.056018312885239716
1772619246433711600,1.998711669921875,0.20178163249492645,-0.4271709350705147,0.03019610856026411
1772619246443742500,2.008742431640625,0.18451777848303316,-0.4850973465994,-0.0024557225890457627
1772619246453773600,2.018773681640625,0.1339496207624674,-0.5258750549286604,-0.03409165469408035
1772619246463804400,2.028804443359375,0.1366752463340759,-0.5451651540711522,-0.07782945493794977
1772619246473835500,2.03883544921875,0.16029636041820047,-0.5473714319437742,-0.09034954848885536
1772619246483866400,2.048866455078125,0.1799550006121397,-0.5917614855512976,-0.11385675386972725
1772619246493897700,2.058897705078125,0.16112462793588636,-0.6158844116777181,-0.12742686793021857
1772619246503928600,2.068928466796875,0.10430383956134319,-0.6276321326166391,-0.13266725280173122
1772619246513959700,2.078959716796875,0.057770636445283886,-0.6367351842656731,-0.11748327380381524
1772619246523990500,2.088990478515625,0.0279547593742609,-0.6315978213772178,-0.08336838436461985
1772619246534021600,2.099021728515625,0.03658288698792457,-0.6670294925034046,-0.047649493794888254
1772619246544052500,2.109052490234375,0.06425123063623905,-0.7084133500322699,-0.014947101502120494
1772619246554083600,2.11908349609375,0.03656067515611648,-0.7620271590590476,-0.022865108085051176
1772619246564114700,2.12911474609375,-0.03059036857485771,-0.8334262156233191,-0.053077875519171355
1772619246574145500,2.1391455078125,-0.18436872540116309,-0.8705667364940046,-0.09471125082969666
1772619246584176600,2.1491767578125,-0.46498248707056045,-0.878281548655033,-0.12358363650552928
1772619246594207500,2.15920751953125,-0.7592991953998803,-0.8239914478018879,-0.13852313922308385
1772619246604238600,2.169238525390625,-1.0049176315337418,-0.7332911861792206,-0.15946626626960933
1772619246614269400,2.17926953125,-1.2241928351432085,-0.6366787779033184,-0.09481273844279348
1772619246624300500,2.189300537109375,-1.3629179997444152,-0.5785162195309996,0.030457462910190223
1772619246634331400,2.199331298828125,-1.3772715192675589,-0.5022688461527228,0.1094001397870481
1772619246644362800,2.20936279296875,-1.367234109377861,-0.5032385679677128,0.23525647046491502
1772619246654393600,2.2193935546875,-1.3023761450201272,-0.5547521898448466,0.36108788589723406
1772619246664424700,2.2294248046875,-1.1147148078143596,-0.5977396831780671,0.4158511572200805
1772619246674455600,2.23945556640625,-0.9340420143216848,-0.6588491086572408,0.4178709726098925
1772619246684486700,2.249486572265625,-0.7995423584610223,-0.7213660628467797,0.349809389905259
1772619246694517500,2.259517578125,-0.7914005530595779,-0.6900923881828784,0.26888079990819097
1772619246704548600,2.269548583984375,-0.9897656551092863,-0.5381833323597908,0.18429982488341629
1772619246714579500,2.279579345703125,-1.4568144270598888,-0.2893707763597369,0.13898695734255015
1772619246724610600,2.289610595703125,-2.04824244287312,0.022024200281500816,0.17846498125009239
1772619246734641700,2.2996416015625,-2.548905315133929,0.3370473042920232,0.35547852158285675
1772619246744672500,2.309672607421875,-2.7889976813226935,0.6972393373280763,0.5742052975293248
1772619246754703600,2.31970361328125,-2.7460604568719864,0.9750649295836686,0.8427218672350049
1772619246764734500,2.329734375,-2.345217556756735,1.206158873541653,0.9961083021342754
1772619246774765600,2.339765625,-1.666578875002265,1.3070733629256486,1.0387554575972258
1772619246784796400,2.34979638671875,-0.8914110793411731,1.1938903435990214,0.9962181922495364
1772619246794827500,2.35982763671875,-0.25112872398793695,0.9856289936959743,0.8836660912375897
1772619246804858600,2.369858642578125,0.28150632659494873,0.7980112033709883,0.755228584960103
1772619246814889700,2.3798896484375,0.684500267264247,0.6171469789594412,0.6499830806344747
1772619246824920600,2.389920654296875,0.9920090501219033,0.44136400333493947,0.5683717690702528
1772619246834951700,2.39995166015625,1.195101180693507,0.3028501433968544,0.5244388846457004
1772619246844982500,2.409982421875,1.3219435997992752,0.28287469233870505,0.5031653566010296
1772619246855013600,2.420013671875,1.3508686655104158,0.34180385116934775,0.5162190455719828
1772619246865044500,2.43004443359375,1.2283727511763571,0.46217005999833344,0.5815833520166576
1772619246875075600,2.44007568359375,0.9467886831700801,0.6568763472795486,0.5670638282768428
1772619246885106700,2.450106689453125,0.5951426524221897,0.8487889121890068,0.5127195130184292
1772619246895137500,2.460137451171875,0.2879267150312662,1.0078796962097287,0.4692168732373044
1772619246905168600,2.470168701171875,0.10768646773695945,1.1205986051559447,0.48184820861034094
1772619246915199500,2.480199462890625,0.02334288166463375,1.1846563590466976,0.47466479991227384
1772619246925230600,2.490230712890625,0.006679916155338287,1.2070911859557032,0.4110277191190049
1772619246935261400,2.500261474609375,0.05434475364983082,1.2114403210759161,0.3169789507860318
1772619246945292500,2.51029248046875,0.15814122821092605,1.1665662833437322,0.2013978938743472
1772619246955323400,2.520323486328125,0.2700532046884298,1.0611667575001715,0.08169106226954609
1772619246965354800,2.530354736328125,0.3311953633934259,0.9255600171804428,-0.07389923934955149
1772619246975385600,2.540385498046875,0.34669162321090696,0.839047562636435,-0.17939221563022584
1772619246985416700,2.550416748046875,0.31261399704217907,0.775116942256689,-0.24560904725100843
1772619246995447600,2.560447509765625,0.2903483892202377,0.7628340915277599,-0.25225750882215797
1772619247005478700,2.570478759765625,0.348237683609128,0.7691048423603176,-0.19509097574986517
1772619247015509500,2.580509521484375,0.508831565669179,0.7592410354718565,-0.10139116698503493
1772619247025540600,2.59054052734375,0.6662158380329608,0.7672355413570999,0.0015222776638343929
1772619247035571500,2.600571533203125,0.8144237012505531,0.7447060219019651,0.05070058846119791
1772619247045602600,2.6106025390625,0.9011082974910736,0.6889283128395676,0.08013966810908169
1772619247055633700,2.620633544921875,0.9726549458324909,0.581303804422915,0.06935808878857642
1772619247065664500,2.63066455078125,0.9993950687199831,0.48326340917050836,0.05432864276524633
1772619247075695600,2.640695556640625,0.971601052865386,0.3728022160232067,0.01819923516586423
1772619247085726500,2.6507265625,0.908136588692665,0.25973931594491,0.05482767832856625
1772619247095757600,2.660757568359375,0.8212894953668117,0.18010434595495461,0.1298796313771978
1772619247105788400,2.670788330078125,0.7530629313588142,0.10096651183217763,0.20520861126892267
1772619247115819500,2.680819580078125,0.7083323937505484,0.02131722105592489,0.2514509051470086
1772619247125850600,2.6908505859375,0.6642395695239305,-0.07907236767113208,0.2935798819547519
1772619247135881700,2.7008818359375,0.6409270829975605,-0.1764385169237852,0.2637343038652092
1772619247145912600,2.71091259765625,0.5749298854768276,-0.25485534329563375,0.20975454760286955
1772619247155943700,2.720943603515625,0.43406420171558857,-0.34589228952676054,0.1546878363540396
1772619247165974500,2.730974609375,0.2063409032344818,-0.4155766511276364,0.08962967324908823
1772619247176005600,2.741005615234375,-0.10520809492468833,-0.43867169551104307,0.07630012647882103
1772619247186036500,2.751036376953125,-0.36680151430368424,-0.4652639343604445,0.06475337147209793
1772619247196067600,2.761067626953125,-0.539374587970972,-0.49021191313415763,0.0840573530094698
1772619247206098400,2.771098388671875,-0.5799316392868757,-0.5123346053540706,0.09095412678588181
1772619247216129500,2.781129638671875,-0.511679356315732,-0.5229042224243283,0.09275580591298639
1772619247226160600,2.79116064453125,-0.3630722646474838,-0.5501672001421452,0.13957947987560182
1772619247236191500,2.80119140625,-0.2472358082026243,-0.5613488116309047,0.21173976660333574
1772619247246222600,2.81122265625,-0.15218845728635788,-0.5519613900825381,0.3222224409300834
1772619247256253400,2.82125341796875,-0.13986790489554404,-0.5034767606377601,0.4321657111505046
1772619247266284500,2.831284423828125,-0.07994564337432385,-0.4868249010443687,0.5216674837036058
1772619247276315400,2.8413154296875,0.01515256094634533,-0.49617578997462986,0.6064098598351702
1772619247286346800,2.8513466796875,0.2010731919646263,-0.50783174097687,0.6446988566212356
1772619247296377600,2.861377685546875,0.34752515142560003,-0.5952022736549377,0.6216130184575915
1772619247306408700,2.87140869140625,0.39762101545929907,-0.6674906802743673,0.6096008378962054
1772619247316439600,2.881439453125,0.36593700642883775,-0.6550719282060862,0.5532517952192575
1772619247326470700,2.891470703125,0.2896814497441053,-0.644749271634221,0.5001110835969448
1772619247336501500,2.90150146484375,0.1728396156489849,-0.6366343542397022,0.4711849949724972
1772619247346532600,2.91153271484375,0.09716098206937313,-0.6394879901051521,0.5233512720720842
1772619247356563700,2.921563720703125,-0.005550619864463806,-0.6222296890512109,0.5675910670213401
1772619247366594800,2.9315947265625,-0.10503040027022362,-0.6020166298449039,0.6618104426808655
1772619247376625700,2.941625732421875,-0.12082184364199637,-0.6046253510385752,0.797736258887127
1772619247386656800,2.95165673828125,-0.1497609378784895,-0.6191124338135123,0.9079040951110422
1772619247396688000,2.96168798828125,-0.15089900199770925,-0.7325111417174339,1.0201765023987739
1772619247406718700,2.97171875,-0.13140987315177916,-0.8845584369674324,1.0534024071089922
1772619247416749800,2.981749755859375,-0.05049976865947246,-1.0437237475290895,0.9880372969467193
1772619247426780700,2.99178076171875,0.07527297538816928,-1.192013151550293,0.9033904901441187
1772619247436811800,3.001811767578125,0.247402396941185,-1.2686141606718302,0.757452544619888
1772619247446842600,3.011842529296875,0.2862520598173141,-1.281576225836575,0.41080271472409363
1772619247456873700,3.021873779296875,0.1426233410835266,-1.2886281901746988,0.038094003936927766
1772619247466904600,3.031904541015625,-0.2678261762887239,-1.1777443877011537,-0.2692822203159332
1772619247476935700,3.041935791015625,-0.911900325140357,-0.8968266746491194,-0.41499242149889465
1772619247486966500,3.051966552734375,-1.6895523388326168,-0.4434101222097873,-0.38548612183369696
1772619247496997600,3.06199755859375,-2.3161089511722324,0.05847323175668716,-0.1978927718302235
1772619247507028500,3.072028564453125,-2.6889363016366956,0.5122191622808575,0.09085782680455595
1772619247517059800,3.082059814453125,-2.87197874687016,0.8140151204496622,0.3663505191331729
1772619247527090700,3.092090576171875,-2.8158704906791447,1.0179159370556474,0.5822280065957457
1772619247537121800,3.102121826171875,-2.4783850872308015,1.1852201304093002,0.6931757411509751
1772619247547152600,3.112152587890625,-1.8384902698904275,1.1821920147597789,0.5993856237541884
1772619247557183700,3.122183837890625,-1.036680551019311,1.0588824459552764,0.4553177829507738
1772619247567214800,3.13221484375,-0.26275720246136186,0.8750900591373443,0.2662871849521063
1772619247577245700,3.14224560546875,0.2535352006077766,0.7131997075259685,0.07099087762217968
1772619247587276800,3.15227685546875,0.595994300815463,0.6335971785008907,-0.16773023674599824
1772619247597307600,3.1623076171875,0.8506172966599463,0.5196034273132681,-0.37364049347825345
1772619247607338800,3.1723388671875,0.983466262704134,0.405239673769474,-0.5383994593285024
1772619247617369600,3.18236962890625,1.0944652159899473,0.33824557416588064,-0.7303668231651187
1772619247627400700,3.192400634765625,1.1868500696986912,0.28684476501345635,-0.9001425211988389
1772619247637431600,3.202431640625,1.2791413999050856,0.24721856480687857,-1.0347171419918537
1772619247647462700,3.212462646484375,1.3442244051903485,0.20848755987435577,-1.0676099422901868
1772619247657493500,3.222493408203125,1.3985346720486878,0.2876639724418521,-1.0047802688896657
1772619247667524600,3.232524658203125,1.3879945733338594,0.4498185279473662,-0.8221062916424124
1772619247677555700,3.2425556640625,1.3099515487104654,0.6897194632172584,-0.5739970250735059
1772619247687586800,3.2525869140625,1.1429735185712575,0.9134630444124341,-0.3811364387242123
1772619247697617700,3.26261767578125,0.8989613485902548,1.015995490387082,-0.2384049976237118
1772619247707648800,3.272648681640625,0.6097802495837211,1.120534892269969,-0.0554626152312383
1772619247717679600,3.2826796875,0.31908114722967146,1.2092135849371553,0.09897486309092492
1772619247727711700,3.292711669921875,0.05726560953259468,1.3117235268190501,0.19158592677097766
1772619247737741800,3.302741943359375,-0.16869301736354828,1.3262959497898816,0.2514156511705369
1772619247747773700,3.312773681640625,-0.3070359046489,1.2889625366955995,0.3222484521541744
1772619247757804500,3.322804443359375,-0.3149363025099039,1.194377542594075,0.3053104690957814
1772619247767835600,3.332835693359375,-0.15174831230342387,1.0388242850497365,0.2142024303898215
1772619247777866500,3.342866455078125,0.1654945135831833,0.7956810068577528,0.07073861989416182
1772619247787897600,3.352897705078125,0.49178632284402846,0.5515393652781844,-0.07899630676023661
1772619247797928700,3.3629287109375,0.7171990062952042,0.37264468737393613,-0.22089893235377966
1772619247807959800,3.372959716796875,0.8072522021859884,0.2610334474086761,-0.29486287096999586
1772619247817990700,3.38299072265625,0.7591255923986434,0.21800065362900495,-0.32816848985292013
1772619247828021800,3.393021728515625,0.5982832885354757,0.24372516973316669,-0.2844303242828697
1772619247838052900,3.403052978515625,0.3783844000697136,0.30074674137681723,-0.21743564015738664
1772619247848083700,3.413083740234375,0.14913959110975264,0.3849456582814455,-0.107617348023504
1772619247858114800,3.42311474609375,-0.032122984969615936,0.45763972309231754,-0.022509791841357946
1772619247868145700,3.433145751953125,-0.1454647019892931,0.47987785838544367,0.0446335069745779
1772619247878176800,3.4431767578125,-0.15727438224852083,0.4484744198620319,0.06377652579657733
1772619247888207600,3.45320751953125,-0.08312719601988793,0.3763701376378536,0.05329867866300046
1772619247898238700,3.46323876953125,0.024658640438318252,0.2592509479060769,0.0019148937106132505
1772619247908269600,3.47326953125,0.12235212194919586,0.14619623113423585,-0.06742160430066287
1772619247918300700,3.48330078125,0.19866671534478664,0.027339257824420926,-0.15300240401774645
1772619247928331500,3.49333154296875,0.2557651516169309,-0.0709545276671648,-0.22146182693354785
1772619247938362600,3.503362548828125,0.2706558467566967,-0.14772855526804923,-0.2513363023240119
1772619247948393500,3.5133935546875,0.24949615435004233,-0.1657175086840987,-0.28135763883925974
1772619247958424800,3.5234248046875,0.21141922941207886,-0.17809680552482604,-0.30759711872823536
1772619247968455700,3.53345556640625,0.23632103095650672,-0.22689766131192443,-0.29442089935615656
1772619247978486800,3.54348681640625,0.21900047832131384,-0.24879560486525296,-0.2646274533126503
1772619247988518000,3.553517822265625,0.18159166190326212,-0.242814484629035,-0.22559615025930105
1772619247998548700,3.563548828125,0.15028291592597962,-0.21805355286002157,-0.21613602880090474
1772619248008579800,3.573579833984375,0.11966507482230662,-0.2439657004907727,-0.18916428911462424
1772619248018610700,3.583610595703125,0.0987573113501072,-0.28686522327959535,-0.176105047185719
1772619248028641800,3.593641845703125,0.11381225714087485,-0.3230623258203268,-0.17882672723457216
1772619248038672600,3.603672607421875,0.16247954967617986,-0.3427525301963091,-0.18474048132300375
1772619248048703700,3.613703857421875,0.21264263372719286,-0.4062900596052408,-0.19081198325641452
1772619248058734600,3.623734619140625,0.2479337273389101,-0.4547288040816784,-0.19716887800246477
1772619248068765700,3.633765625,0.26755145100057126,-0.4467436505466699,-0.20717450451441108
1772619248078796500,3.643796630859375,0.25180852294564243,-0.4669204693958163,-0.19177746728770434
1772619248088827600,3.65382763671875,0.18914017758667467,-0.48538376232534647,-0.13996727361679076
1772619248098858500,3.6638583984375,0.09224106132388114,-0.46291123375445603,-0.11084361659362911
1772619248108889600,3.6738896484375,-0.022149287965893744,-0.45862610378116364,-0.10358063985332847
1772619248118920700,3.683920654296875,-0.1353296769440174,-0.4535226431623101,-0.1172946193639189
1772619248128951800,3.693951904296875,-0.2117307795792818,-0.43234570735990996,-0.13184884909093378
1772619248138982700,3.703982666015625,-0.2637047124445438,-0.42649113611280914,-0.15199936445504425
1772619248149013800,3.714013671875,-0.2990577653765678,-0.37660073152333495,-0.1874362962782383
1772619248159044900,3.724044921875,-0.30519524521827696,-0.3597629939690232,-0.13742613776661455
1772619248169075700,3.73407568359375,-0.3498392735868692,-0.3189975605994463,-0.10289280371963977
1772619248179106800,3.74410693359375,-0.43176703068912026,-0.29087855057418344,-0.0844798527378589
1772619248189137700,3.7541376953125,-0.5238771591097117,-0.29364217006862164,-0.031282150231301785
1772619248199168800,3.764168701171875,-0.6064660104691982,-0.2890186019212007,-0.0018067571610212326
1772619248209199600,3.77419970703125,-0.5870248124182224,-0.31100510054081676,-0.009731704941391944
1772619248219230700,3.784230712890625,-0.49992871276736256,-0.34266134478151794,0.04790573357827961
1772619248229261600,3.794261474609375,-0.3784130416423082,-0.44698271999955175,0.10670447096228598
1772619248239292700,3.804292724609375,-0.2852525273859501,-0.5229927774906158,0.09797069101706146
1772619248249323500,3.814323486328125,-0.2483943305879831,-0.5755953636482357,0.06661050711348653
1772619248259354600,3.824354736328125,-0.3526940784960985,-0.5760089128851891,-0.016631401327252385
1772619248269385500,3.834385498046875,-0.5960720422267913,-0.5094309928670525,-0.2869782552000135
1772619248279416800,3.844416748046875,-0.9729296711206435,-0.4569546634376049,-0.4668523725956678
1772619248289447700,3.85444775390625,-1.5239216316491364,-0.32578795139193534,-0.5376836392093449
1772619248299478800,3.864478759765625,-2.0543980428934097,-0.09237228648811578,-0.585288709340617
1772619248309509600,3.874509521484375,-2.392590133306384,0.21415128472447395,-0.3971878847390413
1772619248319540700,3.884540771484375,-2.452965399292111,0.5515037094429135,-0.10171009674109519
1772619248329571800,3.89457177734375,-2.280857020527124,0.8535138948842883,0.19256006903275846
1772619248339602700,3.904602783203125,-1.888443510583043,1.0872133451655506,0.42775691826492546
1772619248349633800,3.9146337890625,-1.3989286398023366,1.1615671598821877,0.5209401558097452
1772619248359664000,3.9246640625,-0.9185533532887696,1.070080716317892,0.5513956459585577
1772619248369695200,3.9346953125,-0.5043921219170093,0.9311877939343451,0.49610674332641064
1772619248379726000,3.94472607421875,-0.22195406742990015,0.8733259720742702,0.37783940647281705
1772619248389757200,3.954757080078125,-0.03393909448087215,0.7927794401973486,0.29231932396702465
1772619248399788000,3.9647880859375,0.1064864442974329,0.7254296590238809,0.2633151286050677
1772619248409819100,3.974819091796875,0.28029461271762846,0.6608426205620169,0.30109599320590497
1772619248419850000,3.98485009765625,0.42782033888995646,0.6835521727591752,0.3522404164444655
1772619248429881000,3.994881103515625,0.5278390484780073,0.699119744247198,0.369046882077679
1772619248439912200,4.004912109375,0.5520271487951278,0.7235860769838094,0.344101022195816
1772619248449943300,4.014943359375,0.49765901426970954,0.7787117518782615,0.3002844576273113
1772619248459974400,4.024974365234375,0.34406536636054513,0.8245534655988216,0.2326065404780209
1772619248470005200,4.035005126953125,0.17363398089706897,0.8845923392370343,0.23063429055698215
1772619248480036400,4.045036376953125,0.08751227923631667,0.9364803473845124,0.23408662296794353
1772619248490067200,4.055067138671875,0.08163666520118713,0.9969465065240859,0.2826960478361696
1772619248500098300,4.065098388671875,0.14772913978993893,0.9823381354570389,0.34122605128139255
1772619248510129200,4.075129150390625,0.24578327130675315,0.976106839852035,0.401692502681911
1772619248520160300,4.08516015625,0.3378694343298673,0.9520335980862379,0.42865225966945286
1772619248530191000,4.095191162109375,0.40038288138806816,0.9408569550335407,0.42110213655084366
1772619248540222200,4.10522216796875,0.42804654886126514,0.9110071756929159,0.4192830313649028
1772619248550253000,4.115253173828125,0.424411991751194,0.8877963959753513,0.37720490796156225
1772619248560284200,4.1252841796875,0.4160135812401771,0.9004849048957229,0.33161775352396067
1772619248570315000,4.13531494140625,0.452498853072524,0.8517427935585379,0.3285303089026361
1772619248580346000,4.14534619140625,0.5338993714302778,0.8191761564746498,0.3098205669313669
1772619248590377200,4.155377197265625,0.6737959178984165,0.775825675047934,0.286989872572571
1772619248600408000,4.165407958984375,0.8418424540519713,0.7173337385907769,0.25570903751552104
1772619248610439400,4.175439453125,0.9564169277369976,0.6388809641227126,0.23948804362006484
1772619248620470300,4.18547021484375,0.9918804553061723,0.5723007060170173,0.2537989661104977
1772619248630501400,4.19550146484375,0.936279564115405,0.5205477224260568,0.2546662504643202
1772619248640532200,4.2055322265625,0.8158686393618583,0.487180582614243,0.262867457902804
1772619248650563300,4.215563232421875,0.5999222879141569,0.4578419676661491,0.3055715311847627
1772619248660594200,4.22559423828125,0.38353520696163174,0.435579574714601,0.3245604554235935
1772619248670625300,4.235625244140625,0.20469079793989658,0.4242211453542113,0.3072309888295829
1772619248680656100,4.24565625,0.07944529263675212,0.39076135882288215,0.27670784027203915
1772619248690687200,4.255687255859375,0.014377484920620917,0.3246267986580729,0.25292693251632153
1772619248700718000,4.265718017578125,-0.002364975565671921,0.28000498212128877,0.21698482764996588
1772619248710749200,4.275749267578125,-0.03948270008265972,0.22917057467997073,0.18406404336616397
1772619248720780000,4.285780029296875,-0.05355857170820236,0.17622604321688412,0.12156177528910338
1772619248730811100,4.29581103515625,-0.0836596954613924,0.0885197027131915,0.046716377663239834
1772619248740842000,4.305842041015625,-0.13769231442213056,-0.0005833528459072112,-0.015610533846914767
1772619248750873000,4.315873046875,-0.20362521453499793,-0.04954056823849678,-0.05367839869558811
1772619248760904200,4.325904296875,-0.23266017036139963,-0.09174743258804083,-0.07470679287277161
1772619248770935300,4.335935302734375,-0.21279051776528357,-0.1315045656979084,-0.060102805719897144
1772619248780966400,4.34596630859375,-0.14433014500141142,-0.21518647299110888,-0.05393434621803462
1772619248790997200,4.355997314453125,-0.03569149110615253,-0.2692772518798709,-0.0346172129381448
1772619248801028400,4.3660283203125,0.0920125132650137,-0.30660131262391804,-0.055525414801761507
1772619248811059200,4.37605908203125,0.26025311068594453,-0.3655746028572321,-0.04808043255805969
1772619248821090300,4.38609033203125,0.39131285522580145,-0.3854939398139715,-0.015201295458897948
1772619248831121200,4.39612109375,0.3998369379431009,-0.4162307311221957,0.022728037701919675
1772619248841152300,4.40615234375,0.30430209577083583,-0.38141339250206946,0.05199103013053536
1772619248851183000,4.41618310546875,0.17455284930765627,-0.35697044064104555,0.09290127879828214
1772619248861214200,4.426214111328125,0.07448387083709239,-0.3460246837347746,0.11834617424346505
1772619248871245000,4.4362451171875,0.019262334352731704,-0.3414075453281402,0.15523425472304225
1772619248881276200,4.446276123046875,-0.038488428348302836,-0.3606628654181957,0.16613105792105196
1772619248891307000,4.45630712890625,-0.09624971244335175,-0.3965630308389663,0.16007153868637977
1772619248901338000,4.466338134765625,-0.14536474874615668,-0.4209142127633095,0.14191884607598185
1772619248911369000,4.476368896484375,-0.18420447475016116,-0.4639797397688031,0.1601905619561672
1772619248921400300,4.486400390625,-0.24111294140815734,-0.5025286661326885,0.1959215082898736
1772619248931431200,4.49643115234375,-0.2244616663366556,-0.4961956637188792,0.23239384757541118
1772619248941462300,4.506462158203125,-0.17612170605957508,-0.5093213950127363,0.25058650687001643
1772619248951493400,4.516493408203125,-0.0567547374010086,-0.5196189171433448,0.2842448847133666
1772619248961524200,4.526524169921875,0.12486498155295848,-0.5436746232524514,0.3067827336054295
1772619248971555300,4.536555419921875,0.28411972396373747,-0.5659142198503017,0.31633016802109776
1772619248981586200,4.546586181640625,0.37208383862078187,-0.585337589983642,0.3598454846207052
1772619248991617300,4.5566171875,0.3934755862176418,-0.6392667485699057,0.3469817652639001
1772619249001648000,4.566648193359375,0.30888591642975805,-0.7016735203832387,0.36944625665880737
1772619249011679200,4.57667919921875,0.19144494739770887,-0.7273202950760722,0.4382853996071964
1772619249021710000,4.5867099609375,0.10763678337633609,-0.7151020340159535,0.4868680825989693
1772619249031741200,4.5967412109375,0.08253390630185603,-0.7458917245551944,0.5229867861412465
1772619249041772000,4.60677197265625,0.07860708824694156,-0.7695072856813668,0.5271824112001806
1772619249051803100,4.61680322265625,0.04787818798422813,-0.7830123716816305,0.5333068854298443
1772619249061834000,4.626833984375,-0.03034720746874809,-0.7876040833860636,0.5393807985160499
1772619249071865000,4.636864990234375,-0.14934943446815013,-0.8071230228483677,0.5911757215525955
1772619249081896200,4.646896240234375,-0.23035481602847574,-0.8452791505023837,0.6260379952929913
1772619249091927300,4.65692724609375,-0.21316636534035205,-0.8721633580356836,0.6443135105654597
1772619249101958400,4.66695849609375,-0.11253449229001998,-0.9040691931232809,0.6468742278989404
1772619249111989200,4.6769892578125,0.04819149171710014,-0.9473714514940976,0.6181584210243076
1772619249122020400,4.687020263671875,0.2220049208343029,-0.953702408081293,0.5421967692522331
1772619249132051200,4.69705126953125,0.28676410099267957,-0.8895204432889818,0.4736841183118522
1772619249142082300,4.707082275390625,0.22370880214273928,-0.7783367810860276,0.403793420483917
1772619249152113200,4.717113037109375,0.027942484414577484,-0.6080670159250497,0.38022513256557283
1772619249162144300,4.727144287109375,-0.3160176680058241,-0.3368547043293714,0.4569067691752687
1772619249172175000,4.737175048828125,-0.8367465922176838,-0.04763151974678039,0.5392808818055317
1772619249182206200,4.747206298828125,-1.3867191465705633,0.2519739426404238,0.6652241235818713
1772619249192237000,4.757237060546875,-1.751553744715452,0.5265723895430564,0.776753457417339
1772619249202268200,4.76726806640625,-1.9423042801082133,0.7108411617010831,0.8405383126508444
1772619249212299000,4.777299072265625,-1.9477549467295407,0.8268772323712706,0.9765557526633143
1772619249222330000,4.787330078125,-1.7435691757023333,0.9399904013320803,1.0658686515808105
1772619249232361000,4.79736083984375,-1.4007844968020915,0.9481921202272177,1.0525178062941878
1772619249242392300,4.807392333984375,-0.9603379005730152,0.9295303821161389,0.9343146937832236
1772619249252423200,4.817423095703125,-0.48300388145148754,0.7870920422106981,0.7250327686607837
1772619249262454300,4.827454345703125,-0.11538052937090396,0.5752572177350521,0.429776916317828
1772619249272485400,4.8374853515625,0.15142565622031687,0.4305237526297569,0.20739629403892904
1772619249282516200,4.84751611328125,0.2950157965093851,0.3037719344168901,-0.019052198733389376
1772619249292547300,4.85754736328125,0.32086335447132586,0.17521774295717477,-0.25535479898406194
1772619249302578200,4.867578125,0.38366555534303187,0.06617956835031509,-0.4664175979075953
1772619249312609300,4.877609375,0.5078974996894597,-0.0424658075466752,-0.5214860627220943
1772619249322640100,4.88764013671875,0.6810527571588755,-0.07929244016259908,-0.5630866682741791
1772619249332671200,4.897671142578125,0.8926917668014764,-0.04938800802528858,-0.576865273986198
1772619249342702000,4.9077021484375,1.0995575706928968,0.040130350336432453,-0.5106438757881522
1772619249352733200,4.917733154296875,1.2959756303280592,0.2362836215555668,-0.38866935497969385
1772619249362764000,4.927763916015625,1.4051508753180504,0.4438461755394935,-0.2417871143426746
1772619249372795100,4.937795166015625,1.4067992270469665,0.6473389958664775,-0.1483170592131093
1772619249382826000,4.947825927734375,1.2418506569087504,0.7436331319734454,-0.09122150901779531
1772619249392857000,4.957857177734375,0.9773428113877772,0.8760369845986365,0.03278046249765903
1772619249402888000,4.967887939453125,0.609746931836009,0.9819491361394524,0.1717338463641703
1772619249412919000,4.9779189453125,0.1988596075683832,1.1016145032227038,0.2733934915596619
1772619249422950100,4.9879501953125,-0.09551029225289821,1.1628940245717763,0.37581677807141095
1772619249432981200,4.997981201171875,-0.23583587778806686,1.130443707343936,0.4207537249719724
1772619249443012400,5.008012451171875,-0.2842448116481304,1.0705205690398811,0.4375067433848977
1772619249453043200,5.018043212890625,-0.36240298708379265,0.9641796706929803,0.4352573204902932
1772619249463074300,5.02807421875,-0.4602829310774803,0.8258364911466837,0.3234653901958838
1772619249473105200,5.038105224609375,-0.5661830999195575,0.6624436260178684,0.2402150061877444
1772619249483136300,5.04813623046875,-0.6141267543554305,0.5735238180711865,0.1513300138261169
1772619249493167000,5.0581669921875,-0.6010813948214053,0.45252048038244247,0.072573434105888
1772619249503198200,5.0681982421875,-0.5323457122474908,0.3441258643761277,-0.001034384549036622
1772619249513229000,5.07822900390625,-0.36134149533212184,0.253801158067584,-0.07637845241203904
1772619249523260200,5.08826025390625,-0.16141922696828842,0.14143354677706957,-0.15246884513031692
1772619249533291000,5.098291015625,0.045320320194959636,0.046747722649574275,-0.22451522315479813
1772619249543322000,5.108322021484375,0.19892858115136622,-0.04704115263819694,-0.25386768396515397
1772619249553353000,5.11835302734375,0.35061376509070397,-0.09975304438918828,-0.27122341751158235
1772619249563384000,5.128384033203125,0.4365145174771547,-0.16360533883571624,-0.2798014954384416
1772619249573415200,5.138415283203125,0.5138029243409633,-0.17355360913723705,-0.26516915897391735
1772619249583446300,5.1484462890625,0.5750181482821702,-0.1997054107427597,-0.2597261642023921
1772619249593477400,5.158477294921875,0.5755202525854111,-0.24317542689591645,-0.31042167462967335
1772619249603508200,5.16850830078125,0.5387281067609787,-0.30952801372557875,-0.3535938768800348
1772619249613539300,5.178539306640625,0.5390367343187332,-0.34387305865883827,-0.41024347340613604
1772619249623570200,5.188570068359375,0.5656061768144369,-0.35502018335610624,-0.44737281529568135
1772619249633601300,5.198601318359375,0.5531535224765539,-0.3774719613999128,-0.44668373705297704
1772619249643632000,5.208632080078125,0.4744324524611234,-0.3664201137706637,-0.4329682231724262
1772619249653663200,5.218663330078125,0.335531346771121,-0.29750176810622214,-0.4557601198907941
1772619249663694000,5.228694091796875,0.2103273425221443,-0.2550269004702568,-0.43448359617143867
1772619249673725200,5.23872509765625,0.0819862092912197,-0.24783143600821494,-0.38435894443467256
1772619249683756000,5.248756103515625,0.013672551521658896,-0.20270868421196936,-0.3574954143632203
1772619249693787100,5.258787109375,-0.017716858476400376,-0.19094751926958559,-0.34622517474293707
1772619249703818000,5.26881787109375,-0.011973346388339995,-0.21900720032304524,-0.33609139180667696
1772619249713849000,5.27884912109375,0.08666530701816082,-0.24630524935424328,-0.3452216237235814
1772619249723880000,5.2888798828125,0.23017536780834197,-0.30071050101965663,-0.38154710188433527
1772619249733911000,5.2989111328125,0.38283378069400786,-0.3924555955201387,-0.41532735254168507
1772619249743942100,5.308942138671875,0.5456283876687288,-0.4486728650435805,-0.4472093683622777
1772619249753973200,5.31897314453125,0.6731804163485765,-0.5081418298393487,-0.4817145722933113
1772619249764004400,5.32900439453125,0.7176502571940422,-0.5394596359059214,-0.46135677085407073
1772619249774035200,5.33903515625,0.7116735208719969,-0.5849795703262091,-0.5167901965234428
1772619249784066300,5.34906640625,0.6323673444449901,-0.671782532249391,-0.5683253726452588
1772619249794097200,5.35909716796875,0.6075695877969265,-0.6822858060851693,-0.5236369936782866
1772619249804128300,5.369128173828125,0.5462520725250244,-0.7008405766904353,-0.4752450840182602
1772619249814159000,5.3791591796875,0.518469747108221,-0.6669742551848292,-0.3848503081481904
1772619249824190200,5.389190185546875,0.5066016146600246,-0.6207648771956563,-0.32893472498506304
1772619249834221000,5.399220947265625,0.5002700735509396,-0.570880317825079,-0.26816044974438846
1772619249844252200,5.409252197265625,0.48617491270303725,-0.5577125009551644,-0.24545382015667855
1772619249854283000,5.419282958984375,0.3858598505169153,-0.5290115993887186,-0.22947131119221448
1772619249864314000,5.429314208984375,0.2303910563856363,-0.47445466429293154,-0.24828721695169806
1772619249874345000,5.439344970703125,0.007357961547374725,-0.4113526036918163,-0.2574188371080905
1772619249884376000,5.4493759765625,-0.2001367878973484,-0.35942075640261173,-0.21191716899685561
1772619249894407200,5.4594072265625,-0.4782254150032997,-0.3057549249276519,-0.13188501638285816
1772619249904438300,5.469438232421875,-0.8317775716334581,-0.23148177423179148,-0.010760682662948965
1772619249914469000,5.47946923828125,-1.0762170271158218,-0.10623422310203313,0.16135661006085575
1772619249924500200,5.489500244140625,-1.1095955651044844,-0.03122515934705734,0.3280991509437561
1772619249934531300,5.49953125,-1.0397937146037817,-0.06226502525508403,0.5057781694479286
1772619249944562200,5.509562255859375,-0.877548558205366,-0.11412994478791952,0.47918870707750316
1772619249954593300,5.51959326171875,-0.6622691462337971,-0.22417963452488182,0.3827712368518114
1772619249964624100,5.5296240234375,-0.47631344390213487,-0.37648090453594923,0.3227408387809992
1772619249974655200,5.5396552734375,-0.469586181473732,-0.5501558019652962,0.2855830745145678
1772619249984686000,5.54968603515625,-0.502943676674366,-0.6509855356752872,0.3716384329408407
1772619249994717200,5.55971728515625,-0.6713222212612628,-0.6832382845044136,0.44884281478300686
1772619250004748000,5.569748046875,-0.7349380766034126,-0.6906219650149344,0.47428091516122217
1772619250014779100,5.579779052734375,-0.6490998680591583,-0.7091504321351647,0.4808624855086207
1772619250024810000,5.58981005859375,-0.49634442453980443,-0.7499763635203242,0.3951611281517893
1772619250034841000,5.599841064453125,-0.368439344638586,-0.7209735563978552,0.2871333726964891
1772619250044872000,5.609871826171875,-0.30224165610969067,-0.6828647750169038,0.14017046803869307
1772619250054903300,5.6199033203125,-0.4132394403517246,-0.5889940666645765,-0.013700170180946587
1772619250064934100,5.62993408203125,-0.6611158845454455,-0.4544064402595162,-0.15108400317579507
1772619250074965200,5.63996533203125,-1.0486772782832383,-0.24781390035152434,-0.22943119837753473
1772619250084996000,5.64999609375,-1.3431693431794642,0.059388008514046665,-0.20413784023225306
1772619250095027200,5.660027099609375,-1.4638707753121851,0.3944613823845982,-0.1220925211649388
1772619250105058300,5.670058349609375,-1.5388970824629067,0.7149518118903041,0.07045987601801752
1772619250115089200,5.680089111328125,-1.4819126279592514,0.9260422477394342,0.1897647392258048
1772619250125120300,5.690120361328125,-1.3546125282138586,1.0521288800418376,0.23218656150028108
1772619250135151000,5.700151123046875,-1.1558932058990001,1.1613181535571813,0.2690234232492745
1772619250145182200,5.71018212890625,-0.934515477052331,1.2372048769295214,0.2736103126481175
1772619250155213000,5.720213134765625,-0.559652821367979,1.273155895754695,0.35457682350277897
1772619250165244200,5.730244140625,-0.17979425709247587,1.2922840823337436,0.36153197640292345
1772619250175275000,5.74027490234375,0.19227847561240194,1.2858274535402654,0.32404848731346425
1772619250185306000,5.75030615234375,0.5349760607510805,1.185840015873313,0.2891184090338647
1772619250195337000,5.7603369140625,0.7972668147444725,1.0781418576985597,0.26660079921223223
1772619250205368000,5.7703681640625,0.935973859167099,1.0022437361493706,0.23863493392206728
1772619250215399200,5.780399169921875,0.9970511359423399,0.9553606966823339,0.215971851215139
1772619250225430300,5.79043017578125,1.0121955135822296,0.8855068237334489,0.22917145146280526
1772619250235461000,5.800461181640625,0.9014613487124442,0.854851573228836,0.22630101059302687
1772619250245492200,5.8104921875,0.772278503960371,0.8542132753252982,0.24793686914406715
1772619250255523300,5.8205234375,0.6430138261437416,0.8836778547406197,0.2874306020773947
1772619250265554200,5.83055419921875,0.5383832388460635,0.8524450966089964,0.2751770505081862
1772619250275585300,5.840585205078125,0.5242869089543819,0.8091092282295227,0.24937274716608224
1772619250285616000,5.8506162109375,0.5409463673323393,0.7543696300432086,0.24155600900053978
1772619250295647200,5.860647216796875,0.5655383722752332,0.7174182020038365,0.1851025926336646
1772619250305678000,5.870677978515625,0.5195213019877671,0.6029249768614768,0.090039240430668
1772619250315709200,5.880709228515625,0.3573386894315481,0.5246741547062993,0.0031538609210401774
1772619250325740000,5.890739990234375,0.12482348049879073,0.48575259563773865,-0.04851012921221554
1772619250335771100,5.900771240234375,-0.10537468366324901,0.5010083246976137,-0.04765343931764364
1772619250345802000,5.910802001953125,-0.3576823883026838,0.530611143539846,0.03403305637463927
1772619250355833600,5.92083349609375,-0.561885110464692,0.5897478076413274,0.1178860093858093
1772619250365864400,5.930864501953125,-0.6188754101872443,0.6246010943576693,0.22702822888903318
1772619250375895600,5.9408955078125,-0.5750923825621604,0.6337281114041805,0.32168285416066644
1772619250385926400,5.950926513671875,-0.4704027585536241,0.5733005307093262,0.3466467611558735
1772619250395957500,5.96095751953125,-0.27656536306142804,0.4789604512795806,0.27785430689342316
1772619250405988400,5.97098828125,-0.0586456657141447,0.35413638625890015,0.2295247218798846
1772619250416019700,5.981019775390625,0.15744447811841963,0.2455973933458328,0.234325911616534
1772619250426050600,5.991050537109375,0.3057505410134792,0.18536328939646482,0.24450711389109492
1772619250436081700,6.00108154296875,0.36206513343155383,0.1372480777859688,0.23373561757318675
1772619250446112500,6.011112548828125,0.4041419416606426,0.11630319717377424,0.2506901864401996
1772619250456143600,6.0211435546875,0.3907867855250835,0.08303104216903448,0.2610927033152431
1772619250466174700,6.0311748046875,0.2889554735571146,0.07545271586924791,0.2323819379419088
1772619250476205600,6.04120556640625,0.19070728077292443,0.08961948064863681,0.2357781562514603
1772619250486236700,6.051236572265625,0.13236907357275485,0.12367138785421848,0.2582422823201865
1772619250496267500,6.061267578125,0.019282792618870732,0.136926883007586,0.37150640405900776
1772619250506298600,6.071298583984375,-0.013684241959452628,0.19163199440240858,0.3342651262275874
1772619250516329500,6.08132958984375,-0.024632921475172043,0.1471498785972595,0.33823227629289027
1772619250526360600,6.091360595703125,0.07204115386009216,0.0844765648022294,0.3319333953443914
1772619250536391400,6.101391357421875,0.16135668312609194,-0.0009168225839734077,0.28292021198086437
1772619250546422500,6.111422607421875,0.24930384664833544,-0.07186462824940681,0.23916451075412332
1772619250556453400,6.121453369140625,0.3371311831831932,-0.14821516974121332,0.21707491708621382
1772619250566484500,6.131484375,0.3745359079480171,-0.21582477089464663,0.19471797771900892
1772619250576515600,6.141515625,0.4381581930309534,-0.24874212111234664,0.19741518091373145
1772619250586546700,6.151546630859375,0.5321469748049974,-0.30561054802089926,0.2105251666491851
1772619250596577500,6.16157763671875,0.6037164195001125,-0.34548780037909743,0.2397457812407985
1772619250606608600,6.171608642578125,0.6151064130425453,-0.38241818563044067,0.2639690624691546
1772619250616639500,6.181639404296875,0.5484317546516656,-0.3958762176185846,0.3221766655595973
1772619250626670600,6.191670654296875,0.4241419426381588,-0.3770864692136645,0.3644824602389708
1772619250636701700,6.20170166015625,0.3497627012193203,-0.3440957614988088,0.4315721291715279
1772619250646732500,6.211732666015625,0.3079962741136551,-0.3367632266536355,0.5506939274299889
1772619250656763600,6.221763671875,0.23848843812346457,-0.31444267377406354,0.5570463286640123
1772619250666794500,6.23179443359375,0.18184359083771703,-0.3625520401656627,0.5705011457817629
1772619250676825600,6.24182568359375,0.17701134837567806,-0.4351256934672594,0.5431097559113055
1772619250686856400,6.2518564453125,0.13566402346491813,-0.5041375626340509,0.518421889378503
1772619250696887600,6.261887451171875,0.09587620295584201,-0.5633873317211866,0.4744915987698361
1772619250706918400,6.27191845703125,0.036916064465045924,-0.5648202871337533,0.44149307307470587
1772619250716949500,6.281949462890625,-0.01578384458720684,-0.5393257803931832,0.44506826468035576
1772619250726980600,6.291980712890625,-0.09997370140254497,-0.4766460368573665,0.4354945633122697
1772619250737011700,6.30201171875,-0.18658523240685462,-0.43717999564856286,0.4393404616180807
1772619250747042600,6.31204248046875,-0.2894605004698038,-0.39856268022358415,0.4292551939986646
1772619250757073700,6.32207373046875,-0.43230303726196284,-0.3497188620775938,0.48921314788777376
1772619250767104500,6.3321044921875,-0.6018576398909091,-0.29083821856379505,0.4850507309786975
1772619250777135600,6.342135498046875,-0.6286591375768185,-0.24424480969309806,0.46968591552115974
1772619250787166700,6.352166748046875,-0.5732797801822423,-0.29776714104413987,0.5892220302015543
1772619250797197600,6.362197509765625,-0.43472237336337566,-0.3008566314920783,0.6074017204167321
1772619250807228700,6.372228759765625,-0.2525269003480673,-0.3461316512405872,0.5917012797966599
1772619250817259500,6.382259521484375,-0.10762567746043204,-0.4617991808593273,0.6230408593036234
1772619250827290600,6.39229052734375,-0.0024380408018827436,-0.4902636433213949,0.5907904850946739
1772619250837321500,6.402321533203125,0.010174772533774376,-0.5660106659621,0.5286334867913276
1772619250847352600,6.4123525390625,0.04668342524170875,-0.6709212392449379,0.43434974065870047
1772619250857383400,6.422383544921875,0.09633680620491504,-0.76855042334795,0.331270949380286
1772619250867414500,6.43241455078125,0.11134732833206652,-0.8435743924111128,0.24265845381710677
1772619250877445400,6.4424453125,0.10196458295881748,-0.8866828817754984,0.1378856085045263
1772619250887476700,6.452476806640625,0.01571720909178257,-0.8776786143258214,0.027460144257731734
1772619250897507600,6.462507568359375,-0.16855623924136162,-0.8136670376643538,-0.025896365539729592
1772619250907538700,6.47253857421875,-0.4659551314949989,-0.6493959283962846,-0.0224953249245882
1772619250917569500,6.482569580078125,-0.8442910162478685,-0.3648375207543373,-0.03853398452308029
1772619250927600600,6.4926005859375,-1.1888766070902348,-0.0767886406481266,0.007423062672838568
1772619250937631500,6.502631591796875,-1.5089245535254479,0.19824147567003964,0.10109609302859753
1772619250947662600,6.51266259765625,-1.7330132948964834,0.4467103327989578,0.13977050893567503
1772619250957693700,6.522693603515625,-1.7273884407520292,0.6846545810431242,0.2637458481725305
1772619250967724500,6.532724609375,-1.4909171876698732,0.8661816532775759,0.4216219226412475
1772619250977755600,6.542755615234375,-1.0615770918667315,0.9392357835724949,0.5128302433839067
1772619250987786500,6.552786376953125,-0.5429524464577437,0.9305445275947452,0.5123721243528649
1772619250997817600,6.562817626953125,-0.05005845463275909,0.7863605130657553,0.4611275286754593
1772619251007848400,6.572848388671875,0.3740478321701288,0.5496171650439501,0.3018415874088183
1772619251017879600,6.582879638671875,0.6659621555328369,0.3328194574639201,0.042200288478285074
1772619251027910400,6.592910400390625,0.8481997141242027,0.14280600417405365,-0.17903335572257636
1772619251037941500,6.60294140625,0.978613561975956,0.031389117737114426,-0.38703441072162237
1772619251047972600,6.61297265625,0.9534709374129772,-0.04581511797457933,-0.5655692423375324
1772619251058003700,6.623003662109375,0.7910679601043462,-0.02952244708240032,-0.7301100719250738
1772619251068034600,6.63303466796875,0.5562661015391349,0.05576192697137594,-0.8386161854818462
1772619251078065700,6.643065673828125,0.3116933750659227,0.23969664486944675,-0.8364984626755118
1772619251088096500,6.653096435546875,0.06159282508194446,0.4876750881329179,-0.718112540943548
1772619251098127600,6.663127685546875,-0.1546311742633581,0.7117740586370229,-0.5267148302210495
1772619251108158500,6.673158447265625,-0.30314474242925643,0.8780980087816714,-0.3349384954445064
1772619251118189600,6.683189453125,-0.3192494895339012,0.965714917436242,-0.20830792899113149
1772619251128220700,6.693220703125,-0.2463777300685644,0.9914148836210369,-0.12181805160511285
1772619251138251500,6.70325146484375,-0.14359773907363413,0.957495955145359,-0.05429068537503481
1772619251148282600,6.71328271484375,-0.07707213376462459,0.9276303937137126,-0.014934680411964654
1772619251158313500,6.7233134765625,-0.020662264278531073,0.835509451638162,-0.060047897194884715
1772619251168344600,6.733344482421875,0.028581951361894606,0.7254942486926913,-0.11712302565667777
1772619251178375400,6.74337548828125,0.03175239809155464,0.656379503673315,-0.19321666977796703
1772619251188406500,6.753406494140625,-0.05211655620634555,0.6068386431738734,-0.23490688984226435
1772619251198437400,6.763437255859375,-0.18554595248699188,0.6223723123922944,-0.22991068899016825
1772619251208468700,6.77346875,-0.34884032567739487,0.6846320769503712,-0.1553515244271606
1772619251218499600,6.78349951171875,-0.48834056630432604,0.7585714656472206,-0.05970719399843365
1772619251228530700,6.79353076171875,-0.5489776980966329,0.8145826912045478,0.03431687828470021
1772619251238561500,6.8035615234375,-0.5108271234005689,0.804647572645545,0.09802702431418
1772619251248592600,6.813592529296875,-0.383719331356883,0.7632976173862814,0.16678747600317
1772619251258623500,6.82362353515625,-0.24398177484273909,0.7007493912756443,0.22419315159358083
1772619251268654600,6.833654541015625,-0.10208324090242385,0.5941235385075211,0.2150028600525111
1772619251278685700,6.843685791015625,0.039538229662179944,0.4830246319785714,0.140762734843418
1772619251288716500,6.853716552734375,0.19326748664975166,0.34909897661358114,0.04695880811698735
1772619251298747600,6.86374755859375,0.3576630990803242,0.236671159568429,-0.03826514098644256
1772619251308778500,6.873778564453125,0.4371393713772297,0.15050386520028114,-0.10669468022063373
1772619251318809600,6.8838095703125,0.46233168030083177,0.08678221139609814,-0.14581402688361703
1772619251328840400,6.89384033203125,0.4669067331314087,0.04577361692041158,-0.16090528609678148
1772619251338871600,6.90387158203125,0.4827513679951429,0.06328443143069744,-0.11506938106250017
1772619251348902400,6.91390234375,0.5163572849988937,0.05446545742005109,-0.049741059246659274
1772619251358933000,6.92393310546875,0.5337754527896642,0.07162409749180078,0.012712547383084893
1772619251368963800,6.9339638671875,0.545391071781516,0.08434943129122256,0.05669708892963826
1772619251378995200,6.9439951171875,0.5420142888247966,0.07725859624743461,0.07964943690672516
1772619251389026000,6.954026123046875,0.5208271238893271,0.05230038834065199,0.07214154549464583
1772619251399057200,6.96405712890625,0.4853443070977926,0.042025662563741205,0.06288644508905708
1772619251409088300,6.974088134765625,0.37868484432101246,0.039943887853622434,-0.004527523894421756
1772619251419119000,6.984119140625,0.2923223196417093,0.004622106842696667,-0.06577917085587978
1772619251429150200,6.994150146484375,0.22192016516029833,-0.01039630632996559,-0.10072075691018254
1772619251439181000,7.00418115234375,0.1260667585581541,-0.02300210540294647,-0.13227171414550393
1772619251449212200,7.014212158203125,0.053044192445278165,0.006221066471934318,-0.10585786407031118
1772619251459243000,7.024242919921875,0.015963292807340622,0.0327431626945734,-0.09612100802976638
1772619251469274000,7.034274169921875,-0.02484159578979015,0.01874970865547657,-0.08576941762436181
1772619251479305000,7.044304931640625,-0.0169271694034338,0.02693827580809593,-0.062179064004682004
1772619251489336000,7.054336181640625,0.009022679889202117,-0.01865852324068546,-0.08779361692834645
1772619251499367000,7.064366943359375,0.07359305947721004,-0.05888999586403369,-0.11308525804057716
1772619251509398000,7.07439794921875,0.09585691373348236,-0.09342705623805522,-0.12114574183411896
1772619251519428900,7.084428955078125,0.11845102285742759,-0.12632716306000946,-0.12196125946808606
1772619251529460000,7.0944599609375,0.15689502754211423,-0.12432020715177058,-0.1079851949552074
1772619251539491000,7.104490966796875,0.2276858890801668,-0.17390432227104902,-0.1229113997997716
1772619251549522200,7.114522216796875,0.2667284441798925,-0.23106764047294853,-0.14789773782249538
1772619251559553000,7.124552978515625,0.30250761356949807,-0.2795212902575731,-0.20367939240764826
1772619251569584000,7.134584228515625,0.3398696682363748,-0.3116507049679756,-0.26134667807631196
1772619251579615200,7.144615234375,0.3609153788745403,-0.38761341618597506,-0.3538534776642918
1772619251589646000,7.15464599609375,0.30990999878048897,-0.45291474039703605,-0.43898883516881615
1772619251599677200,7.16467724609375,0.18785072229802607,-0.47435003487467764,-0.5021919815242291
1772619251609708000,7.1747080078125,0.09291209245324135,-0.4987476862892508,-0.519730195498094
1772619251619739100,7.1847392578125,0.06668108813166618,-0.518486698243022,-0.5202194403197616
1772619251629770000,7.19477001953125,0.112799280706048,-0.5225114237144589,-0.48895277991853653
1772619251639801000,7.204801025390625,0.22454116131365298,-0.5178706121712923,-0.418552159807086
1772619251649832000,7.21483203125,0.27480945930480954,-0.5081517667114734,-0.3558590088004246
1772619251659863000,7.224863037109375,0.29979718556702134,-0.5079147430852056,-0.3532375377230346
1772619251669894000,7.234893798828125,0.2681979322105646,-0.5046279764994979,-0.37792580611463633
1772619251679925000,7.244925048828125,0.2314291672617197,-0.5311261073246598,-0.44183494531493633
1772619251689956000,7.2549560546875,0.18884967020750046,-0.5657099294498562,-0.4870224694430828
1772619251699987200,7.2649873046875,0.157915602761507,-0.5626552180543541,-0.48932891975454984
1772619251710018000,7.27501806640625,0.07401391523778438,-0.5111398426115512,-0.4530340559277683
1772619251720049200,7.285049072265625,0.07049450893998145,-0.4698369413644075,-0.41038967694379386
1772619251730080000,7.295080078125,0.02415069091618061,-0.4627928680717945,-0.36032647307068105
1772619251740111000,7.305111083984375,-0.026319267126917838,-0.45675475695133205,-0.3145781367219984
1772619251750142200,7.31514208984375,-0.07150923894047737,-0.415467345534265,-0.2508306178241968
1772619251760173000,7.325173095703125,-0.0424637617200613,-0.3906260420054197,-0.18987923245094715
1772619251770204200,7.3352041015625,-0.003957797715067863,-0.4095344483539462,-0.1014807449646294
1772619251780235000,7.345235107421875,0.06401157666146755,-0.43671033231019973,-0.07505019948296249
1772619251790266000,7.35526611328125,0.09978665439784526,-0.49087885261029,-0.08799414446912705
1772619251800297000,7.365296875,0.1120329725086689,-0.5774009517654777,-0.15380188383236526
1772619251810328000,7.375328125,0.020252514433860776,-0.6229577110648155,-0.210292928795889
1772619251820359000,7.38535888671875,-0.22102175501585006,-0.5981620002433657,-0.2513017424672842
1772619251830390000,7.39539013671875,-0.44698622713088987,-0.6129004274308681,-0.30574834905639287
1772619251840420900,7.4054208984375,-0.5773223335713148,-0.6444961736559868,-0.3302629048489034
1772619251850452200,7.4154521484375,-0.6532353604286909,-0.6746504889011382,-0.2883520277712494
1772619251860483000,7.425483154296875,-0.5963795007407665,-0.6550123069733381,-0.261004294379428
1772619251870514200,7.43551416015625,-0.46961716113388535,-0.6733779847472906,-0.21693207454942165
1772619251880545000,7.445544921875,-0.3365080828487873,-0.7047635953530669,-0.18111052732281385
1772619251890576100,7.455576171875,-0.24078034845292567,-0.6970151731833815,-0.18294117681607602
1772619251900607200,7.465607177734375,-0.25315116972625257,-0.7092237896323204,-0.22961203483715653
1772619251910638000,7.47563818359375,-0.30542320875525475,-0.6924944808885455,-0.2854281031485647
1772619251920669200,7.485669189453125,-0.3885065656334162,-0.6556956130623817,-0.34951420635096725
1772619251930700000,7.495699951171875,-0.5410433979660272,-0.5853080716282129,-0.35982363811507817
1772619251940731100,7.505731201171875,-0.7303016489744186,-0.45495939796715973,-0.35108715475611385
1772619251950762000,7.515761962890625,-0.9445353512853384,-0.2905979800671339,-0.32256168282181025
1772619251960793000,7.52579296875,-1.1541326259672642,-0.09201514361351727,-0.2738894949156791
1772619251970824000,7.535823974609375,-1.1958908697664736,0.061167877668142315,-0.16508118354193865
1772619251980855000,7.54585498046875,-1.203947334972024,0.27706834414750336,-0.16340112150050698
1772619251990886000,7.555885986328125,-1.2134762108176946,0.44588615693449973,-0.055549087938293815
1772619252000917000,7.5659169921875,-1.1243266857683658,0.5559063283160328,0.08748597575128078
1772619252010948000,7.575947998046875,-0.9455763847708701,0.660594491019845,0.15902151817679405
1772619252020979200,7.585979248046875,-0.7195072832375764,0.6837947493433952,0.16756437865979967
1772619252031010000,7.596010009765625,-0.4692670325219631,0.6821610106617212,0.16099654457680881
1772619252041041200,7.606041259765625,-0.26182956622242926,0.6814902717933058,0.17028379368633031
1772619252051072000,7.616072021484375,-0.10265841044187546,0.6859893367782235,0.14832622890025376
1772619252061103000,7.62610302734375,0.09026829994618892,0.6968132208704948,0.13113039862327278
1772619252071134200,7.63613427734375,0.3140022365301847,0.724541770273447,0.15814349323324858
1772619252081165000,7.6461650390625,0.4992208567589521,0.7554577175408601,0.22847060971707103
1772619252091196200,7.656196044921875,0.6171972478419542,0.8515595459461212,0.37356457869783044
1772619252101227000,7.66622705078125,0.663119625583291,0.9055763828158379,0.4702814702615142
1772619252111258000,7.676258056640625,0.6116483815431595,0.90995503629148,0.4512213074173778
1772619252121289000,7.6862890625,0.5207289242118597,0.908328896394372,0.4507606311030686
1772619252131320000,7.696320068359375,0.37666415214836596,0.9061959760189056,0.40133733256869014
1772619252141351000,7.706350830078125,0.2142535760551691,0.9056596771851182,0.2601933433227241
1772619252151382000,7.716382080078125,0.11999883682131766,0.85969316804111,0.15931984353624284
1772619252161412900,7.726412841796875,0.020177111110091208,0.7873176676601171,0.02466017480827868
1772619252171444200,7.7364443359375,-0.1365156718581915,0.7753811461508273,-0.09732917824313043
1772619252181475000,7.74647509765625,-0.39056408268511295,0.7898813806682825,-0.19316753340661524
