time,seconds_elapsed,z,y,x
1772619244507756500,0.072756591796875,0.009885838255286217,-0.025585230439901352,0.0055755008943378925
1772619244517787400,0.082787353515625,0.02549276128411293,0.02569952979683876,0.0018002035794779658
1772619244527818500,0.092818603515625,0.04201974719762802,0.07703486829996109,0.01060648262500763
1772619244537849300,0.102849365234375,0.06005387008190155,0.11061546206474304,0.03527640923857689
1772619244547880400,0.11288037109375,0.07232385128736496,0.12521374225616455,0.06816388666629791
1772619244557911300,0.122911376953125,0.08383084088563919,0.11012186855077744,0.09190516918897629
1772619244567942400,0.1329423828125,0.09391031414270401,0.07975131273269653,0.11214432865381241
1772619244577973200,0.14297314453125,0.09404826164245605,0.04477841779589653,0.12092050909996033
1772619244588004400,0.15300439453125,0.08437027037143707,0.00907589215785265,0.1147891953587532
1772619244598035500,0.163035400390625,0.0777568370103836,-0.006483626551926136,0.10471871495246887
1772619244608066600,0.173066650390625,0.05923641100525856,0.001724927220493555,0.08553500473499298
1772619244618097700,0.18309765625,0.04171014577150345,0.024296550080180168,0.058438677340745926
1772619244628128500,0.19312841796875,0.025711681693792343,0.06245291233062744,0.026386436074972153
1772619244638159600,0.20315966796875,0.008087147027254105,0.0989249050617218,0.0006392602808773518
1772619244648190500,0.2131904296875,-0.010189598426222801,0.13839805126190186,-0.015537276864051819
1772619244658222300,0.223222412109375,-0.02890096977353096,0.1734577715396881,-0.026584068313241005
1772619244668253400,0.23325341796875,-0.05230588838458061,0.20289205014705658,-0.032027874141931534
1772619244678284300,0.2432841796875,-0.07482904195785522,0.23065176606178284,-0.03759095072746277
1772619244688315400,0.2533154296875,-0.09559424966573715,0.2546115517616272,-0.04137735813856125
1772619244698346500,0.263346435546875,-0.11159771680831909,0.2812468707561493,-0.04973222687840462
1772619244708377300,0.27337744140625,-0.1259743869304657,0.28533735871315,-0.051899660378694534
1772619244718408400,0.283408447265625,-0.13357983529567719,0.2723485827445984,-0.04338420182466507
1772619244728439300,0.293439208984375,-0.13248100876808167,0.24957944452762604,-0.017216358333826065
1772619244738470700,0.303470703125,-0.12093407660722733,0.22021090984344482,0.022372063249349594
1772619244748501500,0.31350146484375,-0.11203593760728836,0.17825348675251007,0.06655721366405487
1772619244758532600,0.32353271484375,-0.09825701266527176,0.12524859607219696,0.10989030450582504
1772619244768563500,0.3335634765625,-0.07292202115058899,0.07781708240509033,0.14025825262069702
1772619244778594600,0.343594482421875,-0.06238522753119469,0.043243661522865295,0.15847960114479065
1772619244788625400,0.35362548828125,-0.05523963272571564,0.0072448356077075005,0.15935464203357697
1772619244798656500,0.363656494140625,-0.04925417900085449,-0.024533333256840706,0.1440443992614746
1772619244808687400,0.373687255859375,-0.04835469648241997,-0.02992170862853527,0.11317777633666992
1772619244818718500,0.383718505859375,-0.04137614741921425,-0.0013356045819818974,0.08111624419689178
1772619244828749300,0.393749267578125,-0.03191886469721794,0.040608275681734085,0.044075023382902145
1772619244838780400,0.403780517578125,-0.024721140041947365,0.0693134218454361,0.01058950275182724
1772619244848811300,0.413811279296875,-0.01815684698522091,0.08238155394792557,-0.012798330746591091
1772619244858842400,0.42384228515625,-0.008759083226323128,0.073168084025383,-0.028510449454188347
1772619244868873500,0.43387353515625,0.00007947999984025955,0.04923934116959572,-0.03343197703361511
1772619244878904300,0.443904296875,0.01033957488834858,0.025026947259902954,-0.022968683391809464
1772619244888935400,0.453935302734375,0.01703629270195961,-0.003345278324559331,-0.008959615603089333
1772619244898966500,0.463966552734375,0.02167738415300846,-0.028715083375573158,0.010755499824881554
1772619244908997600,0.47399755859375,0.029911812394857407,-0.04547448828816414,0.03216635808348656
1772619244919028500,0.484028564453125,0.04053196683526039,-0.05389434099197388,0.04813813418149948
1772619244929059600,0.4940595703125,0.046008557081222534,-0.0666688084602356,0.05744287744164467
1772619244939090400,0.50409033203125,0.04750259220600128,-0.07709561288356781,0.05558745563030243
1772619244949121500,0.51412158203125,0.047543205320835114,-0.07623274624347687,0.060666412115097046
1772619244959152400,0.52415234375,0.038837332278490067,-0.06623870134353638,0.05784932151436806
1772619244969183500,0.53418359375,0.028584761545062065,-0.04243411868810654,0.05142650380730629
1772619244979214300,0.54421435546875,0.021433640271425247,-0.02031336911022663,0.04101700335741043
1772619244989245400,0.554245361328125,0.012181882746517658,0.002499029040336609,0.02909482643008232
1772619244999276300,0.5642763671875,0.003939399030059576,0.02511805295944214,0.02606787718832493
1772619245009307400,0.574307373046875,-0.002213167492300272,0.025556620210409164,0.01824129745364189
1772619245019338500,0.58433837890625,-0.007086486089974642,0.022491056472063065,0.0072712041437625885
1772619245029369300,0.594369384765625,-0.012057144194841385,0.026613686233758926,-0.0013493665028363466
1772619245039400400,0.604400390625,-0.022703129798173904,0.039773695170879364,-0.013885132037103176
1772619245049431600,0.614431640625,-0.031615398824214935,0.04715949296951294,-0.03443937376141548
1772619245059462700,0.624462646484375,-0.040811024606227875,0.04711155965924263,-0.05093792453408241
1772619245069493500,0.634493408203125,-0.03917544335126877,0.05061201751232147,-0.06504704058170319
1772619245079524600,0.644524658203125,-0.036868348717689514,0.04444653540849686,-0.06993740051984787
1772619245089555500,0.654555419921875,-0.03084075078368187,0.03276508301496506,-0.055315352976322174
1772619245099586600,0.664586669921875,-0.021775349974632263,0.03056344762444496,-0.03471473976969719
1772619245109617400,0.674617431640625,-0.012458144687116146,0.024997491389513016,-0.016562914475798607
1772619245119648500,0.6846484375,-0.0017298664897680283,0.02472291886806488,0.0001643997384235263
1772619245129679400,0.694679443359375,0.005269581452012062,0.02298920415341854,0.0002496707020327449
1772619245139710500,0.70471044921875,0.008761251345276833,0.019445069134235382,-0.004286491312086582
1772619245149741300,0.7147412109375,0.012558653950691223,0.015435414388775826,-0.017794843763113022
1772619245159772400,0.7247724609375,0.010586582124233246,0.01390143297612667,-0.038092922419309616
1772619245169803300,0.73480322265625,0.01207628846168518,0.00018729781731963158,-0.06042665243148804
1772619245179834400,0.74483447265625,0.011127936653792858,-0.020295873284339905,-0.08428137749433517
1772619245189865500,0.754865478515625,0.00701681524515152,-0.035284727811813354,-0.09781746566295624
1772619245199896300,0.764896240234375,0.008387277834117413,-0.04181480035185814,-0.09599533677101135
1772619245209927700,0.774927734375,0.016074158251285553,-0.04251454770565033,-0.09269503504037857
1772619245219958500,0.78495849609375,0.025838106870651245,-0.04592978581786156,-0.08680784702301025
1772619245229989600,0.79498974609375,0.0374801903963089,-0.04390095919370651,-0.08619417250156403
1772619245240020500,0.8050205078125,0.04235244169831276,-0.03683586046099663,-0.10028389096260071
1772619245250051600,0.815051513671875,0.03876715898513794,-0.02799139730632305,-0.12430531531572342
1772619245260082400,0.82508251953125,0.0325167179107666,-0.030290771275758743,-0.15340834856033325
1772619245270113500,0.835113525390625,0.020297333598136902,-0.033870965242385864,-0.17738910019397736
1772619245280144400,0.845144287109375,0.003162554930895567,-0.03823934495449066,-0.2053762674331665
1772619245290175500,0.855175537109375,-0.014078948646783829,-0.047546908259391785,-0.2370879352092743
1772619245300206300,0.865206298828125,-0.03638984635472298,-0.059703707695007324,-0.2588669955730438
1772619245310237400,0.875237548828125,-0.049624018371105194,-0.07292257249355316,-0.2740376591682434
1772619245320268300,0.885268310546875,-0.0586385503411293,-0.07183840125799179,-0.2762661874294281
1772619245330299400,0.89529931640625,-0.058839697390794754,-0.060020435601472855,-0.2692486047744751
1772619245340331500,0.90533154296875,-0.047402750700712204,-0.03261863812804222,-0.24601970613002777
1772619245350361300,0.915361328125,-0.02989538200199604,0.0028924793004989624,-0.22154802083969116
1772619245360393200,0.925393310546875,-0.00707049248740077,0.03952931985259056,-0.19924432039260864
1772619245370424600,0.935424560546875,0.020465778186917305,0.07181806862354279,-0.1759157031774521
1772619245380455400,0.945455322265625,0.047118425369262695,0.09692129492759705,-0.15021327137947083
1772619245390486500,0.955486572265625,0.06570623070001602,0.09514699876308441,-0.13156934082508087
1772619245400517400,0.965517333984375,0.08138053119182587,0.06975242495536804,-0.1129293441772461
1772619245410548500,0.975548583984375,0.08918272703886032,0.039362210780382156,-0.09370117634534836
1772619245420579300,0.985579345703125,0.09600388258695602,0.01760737970471382,-0.0763528123497963
1772619245430610400,0.9956103515625,0.09931092709302902,-0.0029297727160155773,-0.06167365610599518
1772619245440641300,1.005641357421875,0.09488847851753235,-0.016214951872825623,-0.054137710481882095
1772619245450672400,1.01567236328125,0.08783961832523346,-0.015100738033652306,-0.05388421192765236
1772619245460703500,1.025703369140625,0.08359694480895996,-0.004102415405213833,-0.050421036779880524
1772619245470734300,1.035734375,0.0763104110956192,0.020893003791570663,-0.0459124930202961
1772619245480765400,1.045765380859375,0.07055052369832993,0.037075698375701904,-0.039107054471969604
1772619245490796300,1.05579638671875,0.0677325576543808,0.04470643028616905,-0.021612567827105522
1772619245500827400,1.065827392578125,0.055574432015419006,0.041897326707839966,-0.0035829665139317513
1772619245510858200,1.075858154296875,0.04600469395518303,0.02540988102555275,0.010564468801021576
1772619245520889600,1.0858896484375,0.029513869434595108,0.002536524087190628,0.019235987216234207
1772619245530920400,1.09592041015625,0.005435504484921694,-0.01868564821779728,0.008652576245367527
1772619245540951600,1.10595166015625,-0.02540176920592785,-0.04065672680735588,-0.01164177618920803
1772619245550982400,1.115982421875,-0.056484732776880264,-0.05869564786553383,-0.043137334287166595
1772619245561013500,1.126013427734375,-0.09054682403802872,-0.06572984904050827,-0.07426169514656067
1772619245571044400,1.13604443359375,-0.11564218997955322,-0.061200883239507675,-0.09753458201885223
1772619245581075500,1.146075439453125,-0.1394582986831665,-0.05321885645389557,-0.12035520374774933
1772619245591106300,1.156106201171875,-0.15691059827804565,-0.04199403151869774,-0.13426494598388672
1772619245601137400,1.166137451171875,-0.17361341416835785,-0.028667572885751724,-0.14547713100910187
1772619245611168500,1.17616845703125,-0.18822064995765686,-0.018038341775536537,-0.1516711711883545
1772619245621199400,1.186199462890625,-0.20149677991867065,-0.011567393317818642,-0.15272152423858643
1772619245631230500,1.19623046875,-0.202722430229187,-0.00403823284432292,-0.14421942830085754
1772619245641261300,1.20626123046875,-0.19597823917865753,-0.0010144799016416073,-0.1286865472793579
1772619245651292400,1.21629248046875,-0.18410253524780273,-0.0015355013310909271,-0.12093420326709747
1772619245661323300,1.2263232421875,-0.16865088045597076,-0.00961899384856224,-0.10887913405895233
1772619245671354400,1.236354248046875,-0.1555432677268982,-0.023337548598647118,-0.10029904544353485
1772619245681385500,1.246385498046875,-0.14399448037147522,-0.039457399398088455,-0.09496473520994186
1772619245691416600,1.25641650390625,-0.13238802552223206,-0.06013508513569832,-0.09016689658164978
1772619245701447400,1.266447509765625,-0.12482357770204544,-0.06966441124677658,-0.08611036837100983
1772619245711478500,1.276478515625,-0.1248028576374054,-0.07710684835910797,-0.08337446302175522
1772619245721509400,1.28650927734375,-0.1247948706150055,-0.06511996686458588,-0.08089878410100937
1772619245731540500,1.29654052734375,-0.11989419162273407,-0.04869025573134422,-0.07827892154455185
1772619245741571300,1.3065712890625,-0.10707773268222809,-0.044007353484630585,-0.07005614787340164
1772619245751602400,1.3166025390625,-0.08601279556751251,-0.049645159393548965,-0.04526493325829506
1772619245761633300,1.32663330078125,-0.058833103626966476,-0.06142272427678108,-0.011832142248749733
1772619245771664400,1.336664306640625,-0.029829874634742737,-0.08063948154449463,0.029567785561084747
1772619245781695500,1.346695556640625,0.0019144737161695957,-0.11777167022228241,0.07020842283964157
1772619245791726300,1.356726318359375,0.021523987874388695,-0.18262001872062683,0.09828691184520721
1772619245801757400,1.36675732421875,0.034882135689258575,-0.27730682492256165,0.11693836003541946
1772619245811788300,1.376788330078125,0.04200929030776024,-0.39886680245399475,0.13012899458408356
1772619245821819400,1.3868193359375,0.044991496950387955,-0.5419211983680725,0.1466379314661026
1772619245831850200,1.396850341796875,0.04173539578914642,-0.6726099848747253,0.16146831214427948
1772619245841881600,1.406881591796875,0.04242435470223427,-0.7600215673446655,0.17507652938365936
1772619245851912400,1.416912353515625,0.041567135602235794,-0.7800180912017822,0.16993243992328644
1772619245861943600,1.426943603515625,0.03412040323019028,-0.7454653978347778,0.14658504724502563
1772619245871974400,1.436974365234375,0.02515314146876335,-0.6735042333602905,0.0898236483335495
1772619245882005500,1.447005615234375,0.009687898680567741,-0.5662941336631775,0.0024253572337329388
1772619245892036400,1.457036376953125,-0.017804836854338646,-0.4449203610420227,-0.1091964989900589
1772619245902067500,1.4670673828125,-0.05447736382484436,-0.3218628764152527,-0.22635267674922943
1772619245912098300,1.477098388671875,-0.091057687997818,-0.20456035435199738,-0.32142212986946106
1772619245922129400,1.48712939453125,-0.11129877716302872,-0.10679731518030167,-0.3637445569038391
1772619245932160300,1.49716015625,-0.11758077144622803,-0.02476700022816658,-0.3436335623264313
1772619245942191400,1.50719140625,-0.10005344450473785,0.041986461728811264,-0.258474200963974
1772619245952222500,1.517222412109375,-0.055568721145391464,0.10447681695222855,-0.12674783170223236
1772619245962253300,1.52725341796875,-0.002325206995010376,0.16305197775363922,0.021939916536211967
1772619245972284400,1.537284423828125,0.055774107575416565,0.19304198026657104,0.1683518886566162
1772619245982315300,1.547315185546875,0.10295946151018143,0.178421750664711,0.2811458110809326
1772619245992346400,1.557346435546875,0.13150762021541595,0.1258900910615921,0.3617376387119293
1772619246002377500,1.56737744140625,0.132961705327034,0.05574776604771614,0.41702595353126526
1772619246012408600,1.57740869140625,0.11302181333303452,-0.01882580853998661,0.4632030129432678
1772619246022439400,1.587439453125,0.07773280143737793,-0.09609982371330261,0.5024182796478271
1772619246032470500,1.597470458984375,0.036591820418834686,-0.14102311432361603,0.5357845425605774
1772619246042501400,1.60750146484375,-0.017509499564766884,-0.14865973591804504,0.5613183975219727
1772619246052532500,1.617532470703125,-0.07781518250703812,-0.13007166981697083,0.5671091675758362
1772619246062563300,1.627563232421875,-0.14257287979125977,-0.0779232457280159,0.5542700290679932
1772619246072594400,1.637594482421875,-0.20789667963981628,-0.02228376269340515,0.5146415829658508
1772619246082625300,1.647625244140625,-0.27633753418922424,0.02724570594727993,0.46494805812835693
1772619246092656400,1.657656494140625,-0.33866721391677856,0.06461891531944275,0.40988001227378845
1772619246102687200,1.667687255859375,-0.39359918236732483,0.08252760767936707,0.3521743714809418
1772619246112718300,1.67771826171875,-0.4298838675022125,0.08458656817674637,0.3019988536834717
1772619246122749400,1.68774951171875,-0.4495861828327179,0.07032880187034607,0.24935001134872437
1772619246132780300,1.6977802734375,-0.46028298139572144,0.045883890241384506,0.19587504863739014
1772619246142811400,1.707811279296875,-0.46580639481544495,0.02808411791920662,0.1444683074951172
1772619246152842500,1.717842529296875,-0.46132832765579224,0.017419036477804184,0.09549204260110855
1772619246162873600,1.72787353515625,-0.4524956941604614,0.01457265019416809,0.059720735996961594
1772619246172904400,1.737904541015625,-0.4379368722438812,0.02773096226155758,0.03906284645199776
1772619246182935600,1.747935546875,-0.4042643904685974,0.05113961175084114,0.04455055668950081
1772619246192966400,1.75796630859375,-0.35417672991752625,0.0755704939365387,0.058519791811704636
1772619246202997500,1.76799755859375,-0.2911714017391205,0.08822476863861084,0.0925920158624649
1772619246213028400,1.7780283203125,-0.22685912251472473,0.10818985104560852,0.13327692449092865
1772619246223059500,1.7880595703125,-0.17004084587097168,0.13197959959506989,0.17090392112731934
1772619246233090300,1.79809033203125,-0.12022601068019867,0.1572648286819458,0.19343329966068268
1772619246243121400,1.808121337890625,-0.08431889116764069,0.17049674689769745,0.19239600002765656
1772619246253152300,1.81815234375,-0.056296445429325104,0.16289208829402924,0.17179358005523682
1772619246263183400,1.828183349609375,-0.0334467887878418,0.1297125518321991,0.12609240412712097
1772619246273215200,1.83821533203125,-0.021253839135169983,0.0822729542851448,0.07392914593219757
1772619246283245300,1.848245361328125,-0.014126420021057129,0.0382426455616951,0.028997087851166725
1772619246293277400,1.85827734375,-0.007233091630041599,0.0009166835807263851,-0.007951275445520878
1772619246303308500,1.86830859375,-0.003271372988820076,-0.022494366392493248,-0.02911248803138733
1772619246313339400,1.87833935546875,-0.015818525105714798,-0.03397218883037567,-0.05241365730762482
1772619246323370500,1.88837060546875,-0.020728329196572304,-0.029714329168200493,-0.06267774105072021
1772619246333401300,1.8984013671875,-0.023722387850284576,-0.011195879429578781,-0.07887334376573563
1772619246343432400,1.908432373046875,-0.021351374685764313,0.001114316750317812,-0.1004079282283783
1772619246353463600,1.918463623046875,-0.012310411781072617,0.004808041732758284,-0.12605904042720795
1772619246363494700,1.92849462890625,0.0002804826945066452,0.011977802962064743,-0.14462286233901978
1772619246373525500,1.938525390625,0.01246644463390112,0.015006618574261665,-0.1595088243484497
1772619246383556600,1.948556640625,0.022478599101305008,0.012110164389014244,-0.17514744400978088
1772619246393587700,1.958587646484375,0.03396813943982124,0.0063700382597744465,-0.18426452577114105
1772619246403618600,1.96861865234375,0.04946001619100571,0.0019417335279285908,-0.19009338319301605
1772619246413649700,1.978649658203125,0.06763282418251038,0.006879955530166626,-0.18652211129665375
1772619246423680500,1.988680419921875,0.0869591161608696,0.01575227826833725,-0.17649930715560913
1772619246433711600,1.998711669921875,0.10041826963424683,0.015027070418000221,-0.16406558454036713
1772619246443742500,2.008742431640625,0.11705289781093597,0.0122549869120121,-0.14753161370754242
1772619246453773600,2.018773681640625,0.13046884536743164,0.02103920839726925,-0.13592950999736786
1772619246463804400,2.028804443359375,0.14568056166172028,0.02954108454287052,-0.121103435754776
1772619246473835500,2.03883544921875,0.1563561111688614,0.03237990662455559,-0.11365969479084015
1772619246483866400,2.048866455078125,0.1693083941936493,0.03727559745311737,-0.10704333335161209
1772619246493897700,2.058897705078125,0.17898178100585938,0.05256810784339905,-0.0960441529750824
1772619246503928600,2.068928466796875,0.19500896334648132,0.0674610361456871,-0.08422690629959106
1772619246513959700,2.078959716796875,0.20849767327308655,0.08702065050601959,-0.07223736494779587
1772619246523990500,2.088990478515625,0.23009058833122253,0.10129386186599731,-0.060060855001211166
1772619246534021600,2.099021728515625,0.2516794204711914,0.10153219103813171,-0.05352118983864784
1772619246544052500,2.109052490234375,0.27258923649787903,0.08952905237674713,-0.05920837074518204
1772619246554083600,2.11908349609375,0.2828633189201355,0.06484895199537277,-0.06651324033737183
1772619246564114700,2.12911474609375,0.2890165448188782,0.016323495656251907,-0.0759219229221344
1772619246574145500,2.1391455078125,0.28423556685447693,-0.02976199984550476,-0.07676533609628677
1772619246584176600,2.1491767578125,0.2797825038433075,-0.057291626930236816,-0.06655770540237427
1772619246594207500,2.15920751953125,0.27647092938423157,-0.051992177963256836,-0.05184508115053177
1772619246604238600,2.169238525390625,0.2823229730129242,-0.013007761910557747,-0.03818173334002495
1772619246614269400,2.17926953125,0.3014903962612152,0.05421127751469612,-0.01625584438443184
1772619246624300500,2.189300537109375,0.33449068665504456,0.12333336472511292,-0.002953620394691825
1772619246634331400,2.199331298828125,0.36852720379829407,0.18157264590263367,0.01052327174693346
1772619246644362800,2.20936279296875,0.41209733486175537,0.22914549708366394,0.030480466783046722
1772619246654393600,2.2193935546875,0.4520750641822815,0.23816825449466705,0.029241835698485374
1772619246664424700,2.2294248046875,0.4780872166156769,0.20705027878284454,0.017202217131853104
1772619246674455600,2.23945556640625,0.48713821172714233,0.13576027750968933,-0.019299227744340897
1772619246684486700,2.249486572265625,0.4765372574329376,0.022298697382211685,-0.07762777805328369
1772619246694517500,2.259517578125,0.4469669461250305,-0.11489655077457428,-0.13483473658561707
1772619246704548600,2.269548583984375,0.41864582896232605,-0.22619511187076569,-0.16414602100849152
1772619246714579500,2.279579345703125,0.3963572382926941,-0.2766300141811371,-0.13228631019592285
1772619246724610600,2.289610595703125,0.3946371078491211,-0.24724043905735016,-0.04160620644688606
1772619246734641700,2.2996416015625,0.4223027229309082,-0.1442805677652359,0.1007700264453888
1772619246744672500,2.309672607421875,0.479291170835495,0.003910768311470747,0.2691742181777954
1772619246754703600,2.31970361328125,0.5738021731376648,0.17486177384853363,0.4313858151435852
1772619246764734500,2.329734375,0.667405903339386,0.3273615539073944,0.5567543506622314
1772619246774765600,2.339765625,0.7446112632751465,0.4165213108062744,0.6278208494186401
1772619246784796400,2.34979638671875,0.7980962991714478,0.45257917046546936,0.6585108637809753
1772619246794827500,2.35982763671875,0.8240428566932678,0.4595499634742737,0.6581041216850281
1772619246804858600,2.369858642578125,0.8214670419692993,0.43760019540786743,0.6335122585296631
1772619246814889700,2.3798896484375,0.7920491099357605,0.37631291151046753,0.5901826024055481
1772619246824920600,2.389920654296875,0.7378516793251038,0.28648874163627625,0.5278419852256775
1772619246834951700,2.39995166015625,0.6717746257781982,0.18227750062942505,0.4429531395435333
1772619246844982500,2.409982421875,0.6012317538261414,0.06668724864721298,0.3469555079936981
1772619246855013600,2.420013671875,0.5467283129692078,-0.03490009158849716,0.24309620261192322
1772619246865044500,2.43004443359375,0.5128257870674133,-0.09363464266061783,0.15758919715881348
1772619246875075600,2.44007568359375,0.4872448146343231,-0.11818094551563263,0.10613029450178146
1772619246885106700,2.450106689453125,0.47007620334625244,-0.11123009026050568,0.08661065250635147
1772619246895137500,2.460137451171875,0.46308204531669617,-0.08615800738334656,0.07984381914138794
1772619246905168600,2.470168701171875,0.45812535285949707,-0.06970713287591934,0.08899097144603729
1772619246915199500,2.480199462890625,0.4556882679462433,-0.055113375186920166,0.10184837877750397
1772619246925230600,2.490230712890625,0.4544842541217804,-0.026415418833494186,0.11220807582139969
1772619246935261400,2.500261474609375,0.4478228986263275,-0.0033448259346187115,0.10933073610067368
1772619246945292500,2.51029248046875,0.42248690128326416,0.006714466027915478,0.08843610435724258
1772619246955323400,2.520323486328125,0.38844746351242065,0.010621052235364914,0.05928796902298927
1772619246965354800,2.530354736328125,0.33990684151649475,0.022188225761055946,0.03464920446276665
1772619246975385600,2.540385498046875,0.28230804204940796,0.0434856079518795,0.013847379945218563
1772619246985416700,2.550416748046875,0.22731350362300873,0.08545409888029099,0.002585937734693289
1772619246995447600,2.560447509765625,0.18301162123680115,0.14924050867557526,-0.010302206501364708
1772619247005478700,2.570478759765625,0.14985740184783936,0.19715289771556854,-0.03277715668082237
1772619247015509500,2.580509521484375,0.12889179587364197,0.22710910439491272,-0.05260903388261795
1772619247025540600,2.59054052734375,0.11154743283987045,0.2352844774723053,-0.07185623049736023
1772619247035571500,2.600571533203125,0.09535221755504608,0.21991483867168427,-0.08427082002162933
1772619247045602600,2.6106025390625,0.07765045017004013,0.18722321093082428,-0.09985165297985077
1772619247055633700,2.620633544921875,0.05374450609087944,0.13368293642997742,-0.10638546943664551
1772619247065664500,2.63066455078125,0.024529628455638885,0.08798815310001373,-0.11542584002017975
1772619247075695600,2.640695556640625,-0.009039308875799179,0.053174957633018494,-0.12463357299566269
1772619247085726500,2.6507265625,-0.0354570671916008,0.03077511116862297,-0.12807731330394745
1772619247095757600,2.660757568359375,-0.04445096477866173,0.01901283487677574,-0.12385981529951096
1772619247105788400,2.670788330078125,-0.051781315356492996,0.004429898224771023,-0.11883202940225601
1772619247115819500,2.680819580078125,-0.05373454838991165,-0.021229950711131096,-0.1172221377491951
1772619247125850600,2.6908505859375,-0.05602007359266281,-0.0525982566177845,-0.12163979560136795
1772619247135881700,2.7008818359375,-0.05692654848098755,-0.10218507051467896,-0.1291353404521942
1772619247145912600,2.71091259765625,-0.06386621296405792,-0.17212313413619995,-0.1407882571220398
1772619247155943700,2.720943603515625,-0.07514077425003052,-0.2451239824295044,-0.1489664614200592
1772619247165974500,2.730974609375,-0.0914963111281395,-0.3095458447933197,-0.14196500182151794
1772619247176005600,2.741005615234375,-0.1092982143163681,-0.3492662012577057,-0.1198296770453453
1772619247186036500,2.751036376953125,-0.12586359679698944,-0.36085814237594604,-0.08374170958995819
1772619247196067600,2.761067626953125,-0.14304731786251068,-0.352893590927124,-0.05347352847456932
1772619247206098400,2.771098388671875,-0.15815569460391998,-0.33092546463012695,-0.020027954131364822
1772619247216129500,2.781129638671875,-0.18258121609687805,-0.2869577705860138,-0.002685706363990903
1772619247226160600,2.79116064453125,-0.19400005042552948,-0.24047601222991943,0.007016455754637718
1772619247236191500,2.80119140625,-0.19684921205043793,-0.19682857394218445,0.015497036278247833
1772619247246222600,2.81122265625,-0.19046267867088318,-0.16859693825244904,0.036502718925476074
1772619247256253400,2.82125341796875,-0.1837671846151352,-0.1553920954465866,0.07084856927394867
1772619247266284500,2.831284423828125,-0.16526833176612854,-0.15173743665218353,0.10429361462593079
1772619247276315400,2.8413154296875,-0.15016573667526245,-0.16003668308258057,0.12443505972623825
1772619247286346800,2.8513466796875,-0.14026357233524323,-0.20519296824932098,0.11889728158712387
1772619247296377600,2.861377685546875,-0.14361323416233063,-0.24743594229221344,0.10204678773880005
1772619247306408700,2.87140869140625,-0.1465727984905243,-0.27596133947372437,0.079037606716156
1772619247316439600,2.881439453125,-0.15393052995204926,-0.28148210048675537,0.05824333801865578
1772619247326470700,2.891470703125,-0.16401591897010803,-0.27063503861427307,0.03823660686612129
1772619247336501500,2.90150146484375,-0.17606672644615173,-0.24710308015346527,0.028677193447947502
1772619247346532600,2.91153271484375,-0.18283168971538544,-0.2097911238670349,0.02963486686348915
1772619247356563700,2.921563720703125,-0.18374668061733246,-0.16861724853515625,0.04415427893400192
1772619247366594800,2.9315947265625,-0.17255820333957672,-0.13459482789039612,0.06285072863101959
1772619247376625700,2.941625732421875,-0.1481492817401886,-0.12132079154253006,0.08439121395349503
1772619247386656800,2.95165673828125,-0.12269743531942368,-0.1210949495434761,0.1033441349864006
1772619247396688000,2.96168798828125,-0.09503018110990524,-0.1259015053510666,0.1238681823015213
1772619247406718700,2.97171875,-0.08190105855464935,-0.12370119988918304,0.12768183648586273
1772619247416749800,2.981749755859375,-0.08270987123250961,-0.12200306355953217,0.10419372469186783
1772619247426780700,2.99178076171875,-0.10015331208705902,-0.1522539108991623,0.03889673948287964
1772619247436811800,3.001811767578125,-0.14295050501823425,-0.20155826210975647,-0.08436737954616547
1772619247446842600,3.011842529296875,-0.2271665781736374,-0.26711755990982056,-0.24117536842823029
1772619247456873700,3.021873779296875,-0.3369927406311035,-0.36793097853660583,-0.41794636845588684
1772619247466904600,3.031904541015625,-0.4509166479110718,-0.45467570424079895,-0.5574496388435364
1772619247476935700,3.041935791015625,-0.5409151911735535,-0.47791510820388794,-0.6230769753456116
1772619247486966500,3.051966552734375,-0.5856105089187622,-0.42456933856010437,-0.6021024584770203
1772619247496997600,3.06199755859375,-0.5743560791015625,-0.3271547555923462,-0.5109308958053589
1772619247507028500,3.072028564453125,-0.5119132399559021,-0.1927708387374878,-0.35023996233940125
1772619247517059800,3.082059814453125,-0.4079681932926178,-0.007314908783882856,-0.14025475084781647
1772619247527090700,3.092090576171875,-0.28150880336761475,0.20747222006320953,0.06977676600217819
1772619247537121800,3.102121826171875,-0.15950384736061096,0.3936990797519684,0.24888208508491516
1772619247547152600,3.112152587890625,-0.06135225296020508,0.5126661658287048,0.3650515675544739
1772619247557183700,3.122183837890625,0.010717221535742283,0.5479430556297302,0.42604169249534607
1772619247567214800,3.13221484375,0.05100099369883537,0.518386721611023,0.4593898057937622
1772619247577245700,3.14224560546875,0.06557954847812653,0.4506901800632477,0.4803820848464966
1772619247587276800,3.15227685546875,0.04762132465839386,0.34728842973709106,0.4940110743045807
1772619247597307600,3.1623076171875,0.008821972645819187,0.2321387380361557,0.5058931708335876
1772619247607338800,3.1723388671875,-0.048569414764642715,0.13203531503677368,0.5126232504844666
1772619247617369600,3.18236962890625,-0.12839166820049286,0.05584254488348961,0.4987824857234955
1772619247627400700,3.192400634765625,-0.22839683294296265,-0.0003336467780172825,0.4508858025074005
1772619247637431600,3.202431640625,-0.3385061025619507,-0.03405280411243439,0.37321895360946655
1772619247647462700,3.212462646484375,-0.45215436816215515,-0.03568718582391739,0.26424160599708557
1772619247657493500,3.222493408203125,-0.5484077334403992,-0.012497151270508766,0.1272057592868805
1772619247667524600,3.232524658203125,-0.6094143986701965,0.024947160854935646,-0.014962571673095226
1772619247677555700,3.2425556640625,-0.6392158269882202,0.06972208619117737,-0.14856435358524323
1772619247687586800,3.2525869140625,-0.6495416760444641,0.10055643320083618,-0.26024961471557617
1772619247697617700,3.26261767578125,-0.6434308290481567,0.11711551249027252,-0.33447691798210144
1772619247707648800,3.272648681640625,-0.6102899312973022,0.12785205245018005,-0.3694103956222534
1772619247717679600,3.2826796875,-0.555436909198761,0.13386496901512146,-0.36581239104270935
1772619247727711700,3.292711669921875,-0.4830699861049652,0.1375739425420761,-0.3207027018070221
1772619247737741800,3.302741943359375,-0.39685189723968506,0.14068222045898438,-0.24362939596176147
1772619247747773700,3.312773681640625,-0.30814680457115173,0.1439688354730606,-0.1417192667722702
1772619247757804500,3.322804443359375,-0.22874709963798523,0.14733828604221344,-0.04772428795695305
1772619247767835600,3.332835693359375,-0.17951218783855438,0.13672585785388947,0.007647891528904438
1772619247777866500,3.342866455078125,-0.15456560254096985,0.09662981331348419,0.02262035571038723
1772619247787897600,3.352897705078125,-0.15654779970645905,0.049461230635643005,-0.010010825470089912
1772619247797928700,3.3629287109375,-0.16941361129283905,0.0042556473053991795,-0.07251680642366409
1772619247807959800,3.372959716796875,-0.18709486722946167,-0.02596617117524147,-0.14658702909946442
1772619247817990700,3.38299072265625,-0.2051703929901123,-0.041341934353113174,-0.21248620748519897
1772619247828021800,3.393021728515625,-0.2053794413805008,-0.03332661837339401,-0.2616726756095886
1772619247838052900,3.403052978515625,-0.19246327877044678,-0.009260693565011024,-0.2866078019142151
1772619247848083700,3.413083740234375,-0.1607958823442459,0.023051438853144646,-0.28441283106803894
1772619247858114800,3.42311474609375,-0.11702702939510345,0.05667446181178093,-0.2664478123188019
1772619247868145700,3.433145751953125,-0.06828586012125015,0.07302680611610413,-0.2263280749320984
1772619247878176800,3.4431767578125,-0.022914182394742966,0.07226292788982391,-0.18842528760433197
1772619247888207600,3.45320751953125,0.013028372079133987,0.05009371042251587,-0.1625652015209198
1772619247898238700,3.46323876953125,0.04335271939635277,0.03173627331852913,-0.14105990529060364
1772619247908269600,3.47326953125,0.057952169328927994,0.01164192520081997,-0.13043949007987976
1772619247918300700,3.48330078125,0.06250117719173431,-0.008662998676300049,-0.13046519458293915
1772619247928331500,3.49333154296875,0.06338454782962799,-0.019152658060193062,-0.13759873807430267
1772619247938362600,3.503362548828125,0.06202274188399315,-0.012713506817817688,-0.14856255054473877
1772619247948393500,3.5133935546875,0.06225896254181862,0.0065536643378436565,-0.15972387790679932
1772619247958424800,3.5234248046875,0.058762501925230026,0.03421597182750702,-0.1712167114019394
1772619247968455700,3.53345556640625,0.0604671910405159,0.05457291007041931,-0.18162380158901215
1772619247978486800,3.54348681640625,0.062390487641096115,0.06945600360631943,-0.18725992739200592
1772619247988518000,3.553517822265625,0.06980100274085999,0.07837998867034912,-0.17939241230487823
1772619247998548700,3.563548828125,0.07662579417228699,0.07984092831611633,-0.1565944403409958
1772619248008579800,3.573579833984375,0.08997941017150879,0.0805666372179985,-0.1336001753807068
1772619248018610700,3.583610595703125,0.09813147783279419,0.08172111958265305,-0.10534797608852386
1772619248028641800,3.593641845703125,0.103216253221035,0.0871848613023758,-0.07795523852109909
1772619248038672600,3.603672607421875,0.10340200364589691,0.08149054646492004,-0.06727401167154312
1772619248048703700,3.613703857421875,0.0970359817147255,0.07834641635417938,-0.05789515748620033
1772619248058734600,3.623734619140625,0.09048441052436829,0.08089402318000793,-0.052268970757722855
1772619248068765700,3.633765625,0.08196176588535309,0.0904419869184494,-0.054848507046699524
1772619248078796500,3.643796630859375,0.08143314719200134,0.09851343929767609,-0.05344676226377487
1772619248088827600,3.65382763671875,0.07993379235267639,0.1076241135597229,-0.04463782161474228
1772619248098858500,3.6638583984375,0.08702724426984787,0.11546322703361511,-0.02834261953830719
1772619248108889600,3.6738896484375,0.08846908062696457,0.12739500403404236,0.00011139176785945892
1772619248118920700,3.683920654296875,0.08861947059631348,0.13488563895225525,0.02584712579846382
1772619248128951800,3.693951904296875,0.08750520646572113,0.1342395544052124,0.05014767125248909
1772619248138982700,3.703982666015625,0.08760993182659149,0.1377779096364975,0.06525271385908127
1772619248149013800,3.714013671875,0.08535902947187424,0.13862159848213196,0.06467161327600479
1772619248159044900,3.724044921875,0.0878283828496933,0.1384880393743515,0.0644008219242096
1772619248169075700,3.73407568359375,0.09608657658100128,0.15205125510692596,0.0666557252407074
1772619248179106800,3.74410693359375,0.11000744998455048,0.18007111549377441,0.07234393805265427
1772619248189137700,3.7541376953125,0.12146782875061035,0.21142904460430145,0.07552694529294968
1772619248199168800,3.764168701171875,0.13818062841892242,0.24777671694755554,0.08112286031246185
1772619248209199600,3.77419970703125,0.1617749035358429,0.2705025374889374,0.07757925987243652
1772619248219230700,3.784230712890625,0.18243497610092163,0.2654340863227844,0.05076790973544121
1772619248229261600,3.794261474609375,0.19735321402549744,0.23582932353019714,0.0050062816590070724
1772619248239292700,3.804292724609375,0.2060699313879013,0.17766639590263367,-0.05904752388596535
1772619248249323500,3.814323486328125,0.20606833696365356,0.10427234321832657,-0.12914139032363892
1772619248259354600,3.824354736328125,0.1831258088350296,0.023002754896879196,-0.2053384631872177
1772619248269385500,3.834385498046875,0.13604618608951569,-0.07002438604831696,-0.2467290461063385
1772619248279416800,3.844416748046875,0.07743559032678604,-0.1432376652956009,-0.2413734644651413
1772619248289447700,3.85444775390625,0.014418276026844978,-0.17214041948318481,-0.17654918134212494
1772619248299478800,3.864478759765625,-0.01828927919268608,-0.12871886789798737,-0.058480165898799896
1772619248309509600,3.874509521484375,-0.015902817249298096,-0.03796739876270294,0.07856263965368271
1772619248319540700,3.884540771484375,0.036716919392347336,0.08234266936779022,0.215886190533638
1772619248329571800,3.89457177734375,0.12180278450250626,0.19871030747890472,0.33044207096099854
1772619248339602700,3.904602783203125,0.20967106521129608,0.2760840952396393,0.4163035750389099
1772619248349633800,3.9146337890625,0.2811572551727295,0.3057628870010376,0.46194323897361755
1772619248359664000,3.9246640625,0.32400912046432495,0.2955783009529114,0.4739270508289337
1772619248369695200,3.9346953125,0.3470023274421692,0.27041304111480713,0.46636658906936646
1772619248379726000,3.94472607421875,0.3532348871231079,0.23856788873672485,0.4666130840778351
1772619248389757200,3.954757080078125,0.34838101267814636,0.19186003506183624,0.46815240383148193
1772619248399788000,3.9647880859375,0.33300599455833435,0.12010320276021957,0.471059113740921
1772619248409819100,3.974819091796875,0.318276047706604,0.03004840947687626,0.4677770435810089
1772619248419850000,3.98485009765625,0.2954021990299225,-0.07857795804738998,0.45020797848701477
1772619248429881000,3.994881103515625,0.27120766043663025,-0.1644875407218933,0.4139106869697571
1772619248439912200,4.004912109375,0.246758833527565,-0.23302161693572998,0.3608119785785675
1772619248449943300,4.014943359375,0.21800574660301208,-0.2591983675956726,0.3077540993690491
1772619248459974400,4.024974365234375,0.18861572444438934,-0.25207358598709106,0.2688077390193939
1772619248470005200,4.035005126953125,0.16001151502132416,-0.21280740201473236,0.2271905392408371
1772619248480036400,4.045036376953125,0.13936100900173187,-0.15746910870075226,0.18598848581314087
1772619248490067200,4.055067138671875,0.12486036121845245,-0.09733761101961136,0.1380891352891922
1772619248500098300,4.065098388671875,0.112820103764534,-0.0401776023209095,0.08813860267400742
1772619248510129200,4.075129150390625,0.10459998995065689,-0.0003662724047899246,0.04066189378499985
1772619248520160300,4.08516015625,0.0936155617237091,0.022602509707212448,-0.0053187827579677105
1772619248530191000,4.095191162109375,0.08317384123802185,0.02989477664232254,-0.03920271247625351
1772619248540222200,4.10522216796875,0.07770199328660965,0.033896442502737045,-0.05396094173192978
1772619248550253000,4.115253173828125,0.07322601974010468,0.035816844552755356,-0.052965983748435974
1772619248560284200,4.1252841796875,0.06607513874769211,0.03837300464510918,-0.040586940944194794
1772619248570315000,4.13531494140625,0.0570070780813694,0.040157854557037354,-0.027912158519029617
1772619248580346000,4.14534619140625,0.050540994852781296,0.03939110413193703,-0.01973656192421913
1772619248590377200,4.155377197265625,0.04218319430947304,0.026276368647813797,-0.033905912190675735
1772619248600408000,4.165407958984375,0.025501374155282974,0.004200063645839691,-0.06488895416259766
1772619248610439400,4.175439453125,0.007576967589557171,-0.02076653763651848,-0.11167137324810028
1772619248620470300,4.18547021484375,-0.00965023785829544,-0.0481596514582634,-0.15598323941230774
1772619248630501400,4.19550146484375,-0.023051796481013298,-0.08085367828607559,-0.19272688031196594
1772619248640532200,4.2055322265625,-0.037210751324892044,-0.1117180660367012,-0.2202349156141281
1772619248650563300,4.215563232421875,-0.04399648681282997,-0.12971198558807373,-0.22378011047840118
1772619248660594200,4.22559423828125,-0.05312572047114372,-0.12851566076278687,-0.22107088565826416
1772619248670625300,4.235625244140625,-0.05236884951591492,-0.12009182572364807,-0.20962728559970856
1772619248680656100,4.24565625,-0.05759473145008087,-0.10864418745040894,-0.20086483657360077
1772619248690687200,4.255687255859375,-0.061337798833847046,-0.09425459802150726,-0.1912606805562973
1772619248700718000,4.265718017578125,-0.06518667191267014,-0.08286694437265396,-0.1894659698009491
1772619248710749200,4.275749267578125,-0.07069914788007736,-0.07168007642030716,-0.18923720717430115
1772619248720780000,4.285780029296875,-0.08751028776168823,-0.059151846915483475,-0.18808865547180176
1772619248730811100,4.29581103515625,-0.10319071263074875,-0.05153866857290268,-0.18786975741386414
1772619248740842000,4.305842041015625,-0.12052761763334274,-0.04038359224796295,-0.1759277731180191
1772619248750873000,4.315873046875,-0.14294478297233582,-0.026511188596487045,-0.15248823165893555
1772619248760904200,4.325904296875,-0.1602795571088791,-0.007627297658473253,-0.12777811288833618
1772619248770935300,4.335935302734375,-0.17945751547813416,0.011678223498165607,-0.10487573593854904
1772619248780966400,4.34596630859375,-0.19956138730049133,0.0365830659866333,-0.09180761128664017
1772619248790997200,4.355997314453125,-0.22010500729084015,0.05808543041348457,-0.08617635816335678
1772619248801028400,4.3660283203125,-0.24095609784126282,0.060173988342285156,-0.09672022610902786
1772619248811059200,4.37605908203125,-0.26432931423187256,0.036984775215387344,-0.11692136526107788
1772619248821090300,4.38609033203125,-0.28514814376831055,-0.008552269078791142,-0.1285979300737381
1772619248831121200,4.39612109375,-0.3029870390892029,-0.05727586895227432,-0.13595785200595856
1772619248841152300,4.40615234375,-0.3110279440879822,-0.1023983359336853,-0.1210385411977768
1772619248851183000,4.41618310546875,-0.3110226094722748,-0.1556602269411087,-0.0941384881734848
1772619248861214200,4.426214111328125,-0.31103992462158203,-0.2185460776090622,-0.05641700327396393
1772619248871245000,4.4362451171875,-0.31051206588745117,-0.2995709180831909,-0.011304120533168316
1772619248881276200,4.446276123046875,-0.3158722221851349,-0.3618339002132416,0.02665051631629467
1772619248891307000,4.45630712890625,-0.32237353920936584,-0.40155041217803955,0.05281234532594681
1772619248901338000,4.466338134765625,-0.32713451981544495,-0.41281580924987793,0.0704592913389206
1772619248911369000,4.476368896484375,-0.3361290693283081,-0.39053207635879517,0.07750335335731506
1772619248921400300,4.486400390625,-0.3294350504875183,-0.3268798589706421,0.07955562323331833
1772619248931431200,4.49643115234375,-0.3282533884048462,-0.23217704892158508,0.06711040437221527
1772619248941462300,4.506462158203125,-0.31727495789527893,-0.11412287503480911,0.039007626473903656
1772619248951493400,4.516493408203125,-0.30630940198898315,-0.005230214446783066,-0.0028101273346692324
1772619248961524200,4.526524169921875,-0.29513317346572876,0.06852619349956512,-0.0506133995950222
1772619248971555300,4.536555419921875,-0.28215718269348145,0.08951030671596527,-0.08683771640062332
1772619248981586200,4.546586181640625,-0.27021247148513794,0.058919988572597504,-0.10438308119773865
1772619248991617300,4.5566171875,-0.2699373662471771,-0.002300228923559189,-0.08662299066781998
1772619249001648000,4.566648193359375,-0.27281785011291504,-0.0767965093255043,-0.053315337747335434
1772619249011679200,4.57667919921875,-0.26221099495887756,-0.1317167580127716,-0.0119487214833498
1772619249021710000,4.5867099609375,-0.24920091032981873,-0.18651065230369568,0.026617642492055893
1772619249031741200,4.5967412109375,-0.24318188428878784,-0.23160436749458313,0.04466721788048744
1772619249041772000,4.60677197265625,-0.23592378199100494,-0.2557438313961029,0.04822707176208496
1772619249051803100,4.61680322265625,-0.22577127814292908,-0.2651596963405609,0.0425281748175621
1772619249061834000,4.626833984375,-0.21056120097637177,-0.26498761773109436,0.03302248567342758
1772619249071865000,4.636864990234375,-0.19531060755252838,-0.24833275377750397,0.037133343517780304
1772619249081896200,4.646896240234375,-0.18314683437347412,-0.24011409282684326,0.037297021597623825
1772619249091927300,4.65692724609375,-0.1758737415075302,-0.23605330288410187,0.02600761689245701
1772619249101958400,4.66695849609375,-0.1782606989145279,-0.24389931559562683,-0.009992429986596107
1772619249111989200,4.6769892578125,-0.1926092803478241,-0.2654557526111603,-0.07657358795404434
1772619249122020400,4.687020263671875,-0.22391511499881744,-0.3004426956176758,-0.17398352921009064
1772619249132051200,4.69705126953125,-0.25475454330444336,-0.3337945342063904,-0.2853614389896393
1772619249142082300,4.707082275390625,-0.2819962799549103,-0.3699636161327362,-0.38267824053764343
1772619249152113200,4.717113037109375,-0.311046838760376,-0.4126548767089844,-0.44933292269706726
1772619249162144300,4.727144287109375,-0.3208158314228058,-0.45539385080337524,-0.4643297791481018
1772619249172175000,4.737175048828125,-0.30203256011009216,-0.4514600932598114,-0.4078372120857239
1772619249182206200,4.747206298828125,-0.2566591203212738,-0.43510258197784424,-0.2887718677520752
1772619249192237000,4.757237060546875,-0.2027234435081482,-0.3941868245601654,-0.1386590600013733
1772619249202268200,4.76726806640625,-0.12734119594097137,-0.32156863808631897,0.032151177525520325
1772619249212299000,4.777299072265625,-0.03348500281572342,-0.2283625453710556,0.19258612394332886
1772619249222330000,4.787330078125,0.06473740190267563,-0.11993400007486343,0.3177916705608368
1772619249232361000,4.79736083984375,0.15643829107284546,-0.01738978549838066,0.4090616703033447
1772619249242392300,4.807392333984375,0.23482216894626617,0.061609212309122086,0.46818608045578003
1772619249252423200,4.817423095703125,0.27986422181129456,0.09313997626304626,0.5020374655723572
1772619249262454300,4.827454345703125,0.29666560888290405,0.07820846140384674,0.5239332914352417
1772619249272485400,4.8374853515625,0.290213018655777,0.019679903984069824,0.5456327199935913
1772619249282516200,4.84751611328125,0.25583648681640625,-0.02959456667304039,0.5702793598175049
1772619249292547300,4.85754736328125,0.18632371723651886,-0.06565430015325546,0.5970950126647949
1772619249302578200,4.867578125,0.10756879299879074,-0.08318394422531128,0.5979622006416321
1772619249312609300,4.877609375,0.013009268790483475,-0.07515078783035278,0.5779802203178406
1772619249322640100,4.88764013671875,-0.09413828700780869,-0.03893091902136803,0.5134785175323486
1772619249332671200,4.897671142578125,-0.195814847946167,0.020636804401874542,0.40462929010391235
1772619249342702000,4.9077021484375,-0.2856861352920532,0.09214188158512115,0.25077182054519653
1772619249352733200,4.917733154296875,-0.34464240074157715,0.15524813532829285,0.0801398828625679
1772619249362764000,4.927763916015625,-0.38444143533706665,0.20760372281074524,-0.0865601971745491
1772619249372795100,4.937795166015625,-0.4171551764011383,0.23638078570365906,-0.2367880493402481
1772619249382826000,4.947825927734375,-0.42883506417274475,0.242151141166687,-0.34905219078063965
1772619249392857000,4.957857177734375,-0.41340628266334534,0.2217816859483719,-0.4123257100582123
1772619249402888000,4.967887939453125,-0.37568068504333496,0.20084799826145172,-0.4124011993408203
1772619249412919000,4.9779189453125,-0.3219309151172638,0.18004710972309113,-0.37733590602874756
1772619249422950100,4.9879501953125,-0.2573133111000061,0.14705400168895721,-0.32018205523490906
1772619249432981200,4.997981201171875,-0.18643613159656525,0.12045107036828995,-0.2712886333465576
1772619249443012400,5.008012451171875,-0.11338742822408676,0.09586895257234573,-0.22694841027259827
1772619249453043200,5.018043212890625,-0.05779234319925308,0.0734291523694992,-0.18685825169086456
1772619249463074300,5.02807421875,-0.009532362222671509,0.05807602033019066,-0.13757604360580444
1772619249473105200,5.038105224609375,0.028023535385727882,0.05598384514451027,-0.07851457595825195
1772619249483136300,5.04813623046875,0.06230185925960541,0.049262452870607376,-0.014127124100923538
1772619249493167000,5.0581669921875,0.08553846925497055,0.051120273768901825,0.0390990786254406
1772619249503198200,5.0681982421875,0.10398311167955399,0.06404917687177658,0.07707957178354263
1772619249513229000,5.07822900390625,0.11519262194633484,0.07617588341236115,0.08932185918092728
1772619249523260200,5.08826025390625,0.12246552109718323,0.09064076095819473,0.07627202570438385
1772619249533291000,5.098291015625,0.12040183693170547,0.11227414757013321,0.05061965808272362
1772619249543322000,5.108322021484375,0.11855388432741165,0.1273418813943863,0.018737688660621643
1772619249553353000,5.11835302734375,0.11652162671089172,0.13003753125667572,-0.00863348226994276
1772619249563384000,5.128384033203125,0.11951436847448349,0.11729425936937332,-0.03684123978018761
1772619249573415200,5.138415283203125,0.12545427680015564,0.09715144336223602,-0.06742843985557556
1772619249583446300,5.1484462890625,0.12842987477779388,0.06521670520305634,-0.08765451610088348
1772619249593477400,5.158477294921875,0.12207663059234619,0.03379140794277191,-0.11487122625112534
1772619249603508200,5.16850830078125,0.11551280319690704,0.02221376821398735,-0.13663172721862793
1772619249613539300,5.178539306640625,0.10519092530012131,0.010370424017310143,-0.16753903031349182
1772619249623570200,5.188570068359375,0.09255297482013702,-0.006759802810847759,-0.20867396891117096
1772619249633601300,5.198601318359375,0.08137648552656174,-0.010434165596961975,-0.2458178699016571
1772619249643632000,5.208632080078125,0.07909036427736282,-0.008872674778103828,-0.2664341330528259
1772619249653663200,5.218663330078125,0.07655104249715805,0.00253524212166667,-0.27406513690948486
1772619249663694000,5.228694091796875,0.08197663724422455,0.01856999844312668,-0.259740948677063
1772619249673725200,5.23872509765625,0.0903344377875328,0.039784472435712814,-0.23452164232730865
1772619249683756000,5.248756103515625,0.10534819215536118,0.05209778994321823,-0.20321859419345856
1772619249693787100,5.258787109375,0.11855959892272949,0.06907517462968826,-0.16163918375968933
1772619249703818000,5.26881787109375,0.13212646543979645,0.0898720994591713,-0.12333836406469345
1772619249713849000,5.27884912109375,0.1405809372663498,0.09878063946962357,-0.09765750169754028
1772619249723880000,5.2888798828125,0.14248396456241608,0.1097709983587265,-0.08565938472747803
1772619249733911000,5.2989111328125,0.1407310664653778,0.11707578599452972,-0.08307585120201111
1772619249743942100,5.308942138671875,0.13410596549510956,0.12213944643735886,-0.08671920001506805
1772619249753973200,5.31897314453125,0.12242665886878967,0.10574716329574585,-0.09638940542936325
1772619249764004400,5.32900439453125,0.10973808169364929,0.0826946571469307,-0.10302932560443878
1772619249774035200,5.33903515625,0.08787059783935547,0.0639747679233551,-0.09604759514331818
1772619249784066300,5.34906640625,0.06244175136089325,0.04303329065442085,-0.08488336205482483
1772619249794097200,5.35909716796875,0.04113246500492096,0.0173332542181015,-0.07297690212726593
1772619249804128300,5.369128173828125,0.019405122846364975,0.006901522632688284,-0.06333796679973602
1772619249814159000,5.3791591796875,0.007465371862053871,0.015272371470928192,-0.06418005377054214
1772619249824190200,5.389190185546875,0.0075677670538425446,0.027207965031266212,-0.07481980323791504
1772619249834221000,5.399220947265625,0.004000995773822069,0.034883998334407806,-0.09987401962280273
1772619249844252200,5.409252197265625,-0.0005424688570201397,0.03959592059254646,-0.12956513464450836
1772619249854283000,5.419282958984375,-0.0072810654528439045,0.040567975491285324,-0.15622496604919434
1772619249864314000,5.429314208984375,-0.016587037593126297,0.04794219136238098,-0.1687391847372055
1772619249874345000,5.439344970703125,-0.018858715891838074,0.05824010446667671,-0.16617216169834137
1772619249884376000,5.4493759765625,-0.02397383376955986,0.049498382955789566,-0.13763605058193207
1772619249894407200,5.4594072265625,-0.019355112686753273,0.032289568334817886,-0.07124797999858856
1772619249904438300,5.469438232421875,0.005066148471087217,0.02121664769947529,0.03216678276658058
1772619249914469000,5.47946923828125,0.05063576251268387,0.024155445396900177,0.1331985890865326
1772619249924500200,5.489500244140625,0.11703020334243774,0.057695142924785614,0.22171105444431305
1772619249934531300,5.49953125,0.1813463419675827,0.11240632832050323,0.2766920030117035
1772619249944562200,5.509562255859375,0.22913812100887299,0.17430035769939423,0.30118700861930847
1772619249954593300,5.51959326171875,0.26745352149009705,0.20210163295269012,0.2876805067062378
1772619249964624100,5.5296240234375,0.27754586935043335,0.18722102046012878,0.2703787684440613
1772619249974655200,5.5396552734375,0.26507002115249634,0.13139982521533966,0.25627946853637695
1772619249984686000,5.54968603515625,0.2657749354839325,0.0802779495716095,0.26456984877586365
1772619249994717200,5.55971728515625,0.27676287293434143,0.07430261373519897,0.2789604961872101
1772619250004748000,5.569748046875,0.2862568199634552,0.08349600434303284,0.2612055540084839
1772619250014779100,5.579779052734375,0.292294979095459,0.0941997766494751,0.19278068840503693
1772619250024810000,5.58981005859375,0.28511086106300354,0.09444473683834076,0.08468881994485855
1772619250034841000,5.599841064453125,0.2659400701522827,0.07585800439119339,-0.06136586144566536
1772619250044872000,5.609871826171875,0.2345704287290573,0.05013980343937874,-0.2126060128211975
1772619250054903300,5.6199033203125,0.18384839594364166,0.027100002393126488,-0.33228662610054016
1772619250064934100,5.62993408203125,0.13118964433670044,0.0370432585477829,-0.41558539867401123
1772619250074965200,5.63996533203125,0.08319362252950668,0.08654609322547913,-0.4426753520965576
1772619250084996000,5.64999609375,0.05457041785120964,0.1564081907272339,-0.43235188722610474
1772619250095027200,5.660027099609375,0.053749099373817444,0.23214051127433777,-0.38069695234298706
1772619250105058300,5.670058349609375,0.08058083057403564,0.2938421666622162,-0.2994757890701294
1772619250115089200,5.680089111328125,0.10380332916975021,0.35522884130477905,-0.1983366310596466
1772619250125120300,5.690120361328125,0.1343405544757843,0.39326193928718567,-0.09042824059724808
1772619250135151000,5.700151123046875,0.16605667769908905,0.40752503275871277,0.028401203453540802
1772619250145182200,5.71018212890625,0.19728006422519684,0.40387454628944397,0.1289910525083542
1772619250155213000,5.720213134765625,0.2421572506427765,0.3826294541358948,0.20058268308639526
1772619250165244200,5.730244140625,0.2798462212085724,0.36991894245147705,0.24214427173137665
1772619250175275000,5.74027490234375,0.30600619316101074,0.333422988653183,0.26110729575157166
1772619250185306000,5.75030615234375,0.31694313883781433,0.27899351716041565,0.2569305896759033
1772619250195337000,5.7603369140625,0.3160080909729004,0.21434448659420013,0.23219406604766846
1772619250205368000,5.7703681640625,0.3078945577144623,0.15597520768642426,0.20683476328849792
1772619250215399200,5.780399169921875,0.2967588007450104,0.0850142240524292,0.1754257082939148
1772619250225430300,5.79043017578125,0.2771926820278168,0.004948756657540798,0.14636637270450592
1772619250235461000,5.800461181640625,0.26149865984916687,-0.07532823830842972,0.13271580636501312
1772619250245492200,5.8104921875,0.24713557958602905,-0.13922663033008575,0.1271645873785019
1772619250255523300,5.8205234375,0.2331843376159668,-0.1865917444229126,0.11873514950275421
1772619250265554200,5.83055419921875,0.21782341599464417,-0.20951680839061737,0.10156843066215515
1772619250275585300,5.840585205078125,0.20058131217956543,-0.21150273084640503,0.06273182481527328
1772619250285616000,5.8506162109375,0.18147149682044983,-0.1946416050195694,-0.00015988957602530718
1772619250295647200,5.860647216796875,0.15505054593086243,-0.1835452765226364,-0.07708076387643814
1772619250305678000,5.870677978515625,0.12336581945419312,-0.17929485440254211,-0.1382848024368286
1772619250315709200,5.880709228515625,0.0812993273139,-0.1754516363143921,-0.18513859808444977
1772619250325740000,5.890739990234375,0.04018142819404602,-0.17734797298908234,-0.20059727132320404
1772619250335771100,5.900771240234375,0.009323649108409882,-0.18819423019886017,-0.19130389392375946
1772619250345802000,5.910802001953125,-0.01285620965063572,-0.19584964215755463,-0.16221758723258972
1772619250355833600,5.92083349609375,-0.013812551274895668,-0.18079878389835358,-0.11430040746927261
1772619250365864400,5.930864501953125,-0.001554114744067192,-0.14936599135398865,-0.07544011622667313
1772619250375895600,5.9408955078125,0.019492315128445625,-0.09879894554615021,-0.04184354841709137
1772619250385926400,5.950926513671875,0.03372160717844963,-0.0465749092400074,-0.021175477653741837
1772619250395957500,5.96095751953125,0.03684363141655922,-0.003453007200732827,-0.02534012869000435
1772619250405988400,5.97098828125,0.027358481660485268,0.01003001257777214,-0.04095780849456787
1772619250416019700,5.981019775390625,0.01545894518494606,0.013140052556991577,-0.06875055283308029
1772619250426050600,5.991050537109375,0.005945919081568718,0.006250056438148022,-0.08985275030136108
1772619250436081700,6.00108154296875,-0.005978384520858526,-0.02038368582725525,-0.10808874666690826
1772619250446112500,6.011112548828125,-0.019157378003001213,-0.06276706606149673,-0.11327360570430756
1772619250456143600,6.0211435546875,-0.034447651356458664,-0.10707274079322815,-0.10911720991134644
1772619250466174700,6.0311748046875,-0.050789009779691696,-0.140947163105011,-0.10377845168113708
1772619250476205600,6.04120556640625,-0.07023807615041733,-0.17805778980255127,-0.09068342298269272
1772619250486236700,6.051236572265625,-0.06931023299694061,-0.18260140717029572,-0.07780091464519501
1772619250496267500,6.061267578125,-0.06230957806110382,-0.16348044574260712,-0.060084763914346695
1772619250506298600,6.071298583984375,-0.05314823240041733,-0.13480621576309204,-0.043881867080926895
1772619250516329500,6.08132958984375,-0.04224631190299988,-0.11247241497039795,-0.03397544100880623
1772619250526360600,6.091360595703125,-0.03939244523644447,-0.09832853078842163,-0.025456996634602547
1772619250536391400,6.101391357421875,-0.04310409352183342,-0.10461625456809998,-0.021756000816822052
1772619250546422500,6.111422607421875,-0.05228478088974953,-0.10548552125692368,-0.02138069085776806
1772619250556453400,6.121453369140625,-0.06792686134576797,-0.10671351104974747,-0.02577676996588707
1772619250566484500,6.131484375,-0.08537060022354126,-0.09793335944414139,-0.024964872747659683
1772619250576515600,6.141515625,-0.10417385399341583,-0.08279062807559967,-0.032622791826725006
1772619250586546700,6.151546630859375,-0.12290933728218079,-0.07587940245866776,-0.04993591457605362
1772619250596577500,6.16157763671875,-0.14401036500930786,-0.0839085653424263,-0.06830719858407974
1772619250606608600,6.171608642578125,-0.1665726602077484,-0.09530103951692581,-0.07359196990728378
1772619250616639500,6.181639404296875,-0.18378600478172302,-0.10881258547306061,-0.06877591460943222
1772619250626670600,6.191670654296875,-0.1925067901611328,-0.11921622604131699,-0.06100720912218094
1772619250636701700,6.20170166015625,-0.18960846960544586,-0.12148071080446243,-0.05909319594502449
1772619250646732500,6.211732666015625,-0.17652097344398499,-0.11414846777915955,-0.05113775655627251
1772619250656763600,6.221763671875,-0.16372688114643097,-0.10492727160453796,-0.03513694927096367
1772619250666794500,6.23179443359375,-0.15542064607143402,-0.1116899773478508,-0.022989429533481598
1772619250676825600,6.24182568359375,-0.1560259908437729,-0.12640394270420074,-0.010412918403744698
1772619250686856400,6.2518564453125,-0.16535469889640808,-0.15068353712558746,-0.004156960174441338
1772619250696887600,6.261887451171875,-0.18051527440547943,-0.16347283124923706,-0.007249955553561449
1772619250706918400,6.27191845703125,-0.18599489331245422,-0.16459833085536957,-0.013478260487318039
1772619250716949500,6.281949462890625,-0.19200538098812103,-0.15586183965206146,-0.018924424424767494
1772619250726980600,6.291980712890625,-0.19949226081371307,-0.16110588610172272,-0.022300291806459427
1772619250737011700,6.30201171875,-0.2064572274684906,-0.16655871272087097,-0.013094010762870312
1772619250747042600,6.31204248046875,-0.2034285068511963,-0.17178457975387573,0.004609054885804653
1772619250757073700,6.32207373046875,-0.1946059912443161,-0.15325723588466644,0.05184208229184151
1772619250767104500,6.3321044921875,-0.18459337949752808,-0.11560362577438354,0.10558468848466873
1772619250777135600,6.342135498046875,-0.16697338223457336,-0.08558180928230286,0.15713495016098022
1772619250787166700,6.352166748046875,-0.14286381006240845,-0.06203211098909378,0.2085552215576172
1772619250797197600,6.362197509765625,-0.12996532022953033,-0.0674753487110138,0.23907345533370972
1772619250807228700,6.372228759765625,-0.11710293591022491,-0.1034940630197525,0.25915560126304626
1772619250817259500,6.382259521484375,-0.10711580514907837,-0.15276147425174713,0.2636265158653259
1772619250827290600,6.39229052734375,-0.10552974045276642,-0.18981745839118958,0.25949034094810486
1772619250837321500,6.402321533203125,-0.11547238379716873,-0.2170189917087555,0.23635359108448029
1772619250847352600,6.4123525390625,-0.1397770792245865,-0.2328316569328308,0.1849493682384491
1772619250857383400,6.422383544921875,-0.1756916642189026,-0.23857955634593964,0.11340168863534927
1772619250867414500,6.43241455078125,-0.2272605001926422,-0.23058046400547028,0.014330216683447361
1772619250877445400,6.4424453125,-0.2829921841621399,-0.22082877159118652,-0.10624706745147705
1772619250887476700,6.452476806640625,-0.34717053174972534,-0.2147432267665863,-0.23356424272060394
1772619250897507600,6.462507568359375,-0.40316298604011536,-0.20622751116752625,-0.3429005742073059
1772619250907538700,6.47253857421875,-0.44324368238449097,-0.19111678004264832,-0.41218680143356323
1772619250917569500,6.482569580078125,-0.4725554883480072,-0.17967665195465088,-0.43315252661705017
1772619250927600600,6.4926005859375,-0.4780748784542084,-0.15770582854747772,-0.4025813043117523
1772619250937631500,6.502631591796875,-0.4647103548049927,-0.08419405668973923,-0.31696122884750366
1772619250947662600,6.51266259765625,-0.4240337908267975,0.016992926597595215,-0.19510628283023834
1772619250957693700,6.522693603515625,-0.3589852750301361,0.12680970132350922,-0.06719999015331268
1772619250967724500,6.532724609375,-0.27944421768188477,0.21068701148033142,0.05465322732925415
1772619250977755600,6.542755615234375,-0.19063152372837067,0.2710331678390503,0.16031254827976227
1772619250987786500,6.552786376953125,-0.11093651503324509,0.28273317217826843,0.24158181250095367
1772619250997817600,6.562817626953125,-0.06092847138643265,0.24787263572216034,0.2956181466579437
1772619251007848400,6.572848388671875,-0.0394427552819252,0.1541079580783844,0.3306444585323334
1772619251017879600,6.582879638671875,-0.059129904955625534,0.04172522947192192,0.34501007199287415
1772619251027910400,6.592910400390625,-0.10716678202152252,-0.0791412740945816,0.3287418484687805
1772619251037941500,6.60294140625,-0.17067678272724152,-0.19469770789146423,0.2903297543525696
1772619251047972600,6.61297265625,-0.2520737051963806,-0.26941126585006714,0.24417643249034882
1772619251058003700,6.623003662109375,-0.3360793888568878,-0.29548361897468567,0.1943976879119873
1772619251068034600,6.63303466796875,-0.4147461950778961,-0.2648880183696747,0.14007337391376495
1772619251078065700,6.643065673828125,-0.469188928604126,-0.18924786150455475,0.09410800039768219
1772619251088096500,6.653096435546875,-0.4949039816856384,-0.10327574610710144,0.07695795595645905
1772619251098127600,6.663127685546875,-0.4985048770904541,-0.017206106334924698,0.07840139418840408
1772619251108158500,6.673158447265625,-0.4815060496330261,0.060809917747974396,0.08237224817276001
1772619251118189600,6.683189453125,-0.45530399680137634,0.11474452167749405,0.08611958473920822
1772619251128220700,6.693220703125,-0.42537587881088257,0.13004137575626373,0.08315381407737732
1772619251138251500,6.70325146484375,-0.3949732184410095,0.10434373468160629,0.07928450405597687
1772619251148282600,6.71328271484375,-0.37482917308807373,0.0639590248465538,0.07162546366453171
1772619251158313500,6.7233134765625,-0.3581615090370178,0.009146641939878464,0.06375156342983246
1772619251168344600,6.733344482421875,-0.35457170009613037,-0.04526035115122795,0.04357580840587616
1772619251178375400,6.74337548828125,-0.36256465315818787,-0.08387964963912964,0.010255934670567513
1772619251188406500,6.753406494140625,-0.36169540882110596,-0.09456419944763184,-0.022500650957226753
1772619251198437400,6.763437255859375,-0.3551000952720642,-0.0703483372926712,-0.049280863255262375
1772619251208468700,6.77346875,-0.328345388174057,-0.022526726126670837,-0.0619044154882431
1772619251218499600,6.78349951171875,-0.29279327392578125,0.026761196553707123,-0.05544917657971382
1772619251228530700,6.79353076171875,-0.24691620469093323,0.06358224153518677,-0.04116976633667946
1772619251238561500,6.8035615234375,-0.19692574441432953,0.08167389035224915,-0.01794007606804371
1772619251248592600,6.813592529296875,-0.144393190741539,0.062481559813022614,0.0031500887125730515
1772619251258623500,6.82362353515625,-0.092474065721035,0.028723061084747314,0.03143712133169174
1772619251268654600,6.833654541015625,-0.04896692931652069,-0.008038255386054516,0.06264285743236542
1772619251278685700,6.843685791015625,-0.017686771228909492,-0.04660002887248993,0.07620500028133392
1772619251288716500,6.853716552734375,0.002450237050652504,-0.07459696382284164,0.07859718799591064
1772619251298747600,6.86374755859375,0.015224622562527657,-0.08192092180252075,0.059462375938892365
1772619251308778500,6.873778564453125,0.0244615375995636,-0.07660732418298721,0.034330155700445175
1772619251318809600,6.8838095703125,0.030565768480300903,-0.06018547713756561,0.011281562969088554
1772619251328840400,6.89384033203125,0.03528377041220665,-0.04479813203215599,-0.006828094832599163
1772619251338871600,6.90387158203125,0.04731805995106697,-0.04221966117620468,-0.013472415506839752
1772619251348902400,6.91390234375,0.0580342561006546,-0.04581413418054581,-0.023753076791763306
1772619251358933000,6.92393310546875,0.0762779712677002,-0.05618341639637947,-0.039340026676654816
1772619251368963800,6.9339638671875,0.0946713238954544,-0.06455229222774506,-0.05368203669786453
1772619251378995200,6.9439951171875,0.11107506603002548,-0.08695293962955475,-0.06306381523609161
1772619251389026000,6.954026123046875,0.12132663279771805,-0.1143806204199791,-0.07553064078092575
1772619251399057200,6.96405712890625,0.12575413286685944,-0.1354624629020691,-0.07952644675970078
1772619251409088300,6.974088134765625,0.1310052126646042,-0.14200973510742188,-0.08187682926654816
1772619251419119000,6.984119140625,0.12684908509254456,-0.1315067708492279,-0.08879359066486359
1772619251429150200,6.994150146484375,0.11990758776664734,-0.11675217002630234,-0.09711349010467529
1772619251439181000,7.00418115234375,0.11524093151092529,-0.09270435571670532,-0.10189945250749588
1772619251449212200,7.014212158203125,0.11408978700637817,-0.05843677371740341,-0.10846026986837387
1772619251459243000,7.024242919921875,0.11963634938001633,-0.016684796661138535,-0.11853181570768356
1772619251469274000,7.034274169921875,0.1291581243276596,0.024113159626722336,-0.12300780415534973
1772619251479305000,7.044304931640625,0.1334197074174881,0.06309198588132858,-0.12801587581634521
1772619251489336000,7.054336181640625,0.13889430463314056,0.0848972275853157,-0.11897490173578262
1772619251499367000,7.064366943359375,0.1376732587814331,0.08478856831789017,-0.11209195852279663
1772619251509398000,7.07439794921875,0.13379769027233124,0.07696142792701721,-0.08978091925382614
1772619251519428900,7.084428955078125,0.1401783525943756,0.06350208073854446,-0.057311657816171646
1772619251529460000,7.0944599609375,0.14306588470935822,0.04646754264831543,-0.03412605822086334
1772619251539491000,7.104490966796875,0.145395889878273,0.033811405301094055,-0.022178851068019867
1772619251549522200,7.114522216796875,0.1482629030942917,0.03920368477702141,-0.020617637783288956
1772619251559553000,7.124552978515625,0.1507982313632965,0.056302510201931,-0.029931245371699333
1772619251569584000,7.134584228515625,0.14893975853919983,0.06918217986822128,-0.04047210514545441
1772619251579615200,7.144615234375,0.1359885334968567,0.07683584094047546,-0.05501483008265495
1772619251589646000,7.15464599609375,0.11457280814647675,0.09256289154291153,-0.0584748201072216
1772619251599677200,7.16467724609375,0.09301238507032394,0.11475980281829834,-0.044411733746528625
1772619251609708000,7.1747080078125,0.0721401795744896,0.13701491057872772,-0.0278464425355196
1772619251619739100,7.1847392578125,0.0585002675652504,0.16500180959701538,-0.015005212277173996
1772619251629770000,7.19477001953125,0.04827411100268364,0.17996419966220856,-0.009722542949020863
1772619251639801000,7.204801025390625,0.042649779468774796,0.1747414618730545,-0.012020851485431194
1772619251649832000,7.21483203125,0.03947016969323158,0.1726645976305008,-0.022915469482541084
1772619251659863000,7.224863037109375,0.03811488673090935,0.16417577862739563,-0.02711234614253044
1772619251669894000,7.234893798828125,0.03380419313907623,0.16000612080097198,-0.02771424688398838
1772619251679925000,7.244925048828125,0.020500903949141502,0.15451841056346893,-0.030089519917964935
1772619251689956000,7.2549560546875,0.002413906157016754,0.15168917179107666,-0.03019433096051216
1772619251699987200,7.2649873046875,-0.0046456013806164265,0.1568668931722641,-0.027939431369304657
1772619251710018000,7.27501806640625,-0.004460637923330069,0.17586711049079895,-0.026593321934342384
1772619251720049200,7.285049072265625,-0.007115543354302645,0.1900617629289627,-0.02374294027686119
1772619251730080000,7.295080078125,-0.0071270582266151905,0.19774584472179413,-0.009481373243033886
1772619251740111000,7.305111083984375,0.004644646309316158,0.20585623383522034,0.007315716706216335
1772619251750142200,7.31514208984375,0.021247655153274536,0.2202705293893814,0.03096397966146469
1772619251760173000,7.325173095703125,0.038206398487091064,0.221833273768425,0.049280669540166855
1772619251770204200,7.3352041015625,0.05981472507119179,0.20560167729854584,0.061988648027181625
1772619251780235000,7.345235107421875,0.07863768190145493,0.18076370656490326,0.07020236551761627
1772619251790266000,7.35526611328125,0.08962808549404144,0.14353933930397034,0.07108596712350845
1772619251800297000,7.365296875,0.0905974805355072,0.08937463909387589,0.06367092579603195
1772619251810328000,7.375328125,0.09072370827198029,0.05293455347418785,0.06874101608991623
1772619251820359000,7.38535888671875,0.08849810063838959,0.04745376855134964,0.08678899705410004
1772619251830390000,7.39539013671875,0.08260396867990494,0.05387360602617264,0.1160338968038559
1772619251840420900,7.4054208984375,0.0746174156665802,0.07798373699188232,0.1433965414762497
1772619251850452200,7.4154521484375,0.07760439813137054,0.11576088517904282,0.1655643880367279
1772619251860483000,7.425483154296875,0.07486879825592041,0.14072030782699585,0.17173786461353302
1772619251870514200,7.43551416015625,0.06983848661184311,0.14177875220775604,0.16254982352256775
1772619251880545000,7.445544921875,0.06765122711658478,0.12818756699562073,0.13511686027050018
1772619251890576100,7.455576171875,0.060092244297266006,0.10529062151908875,0.10757989436388016
1772619251900607200,7.465607177734375,0.04246265068650246,0.06226884946227074,0.08498243987560272
1772619251910638000,7.47563818359375,0.01332225650548935,0.0063140192069113255,0.06233781948685646
1772619251920669200,7.485669189453125,-0.017025794833898544,-0.054358381778001785,0.046180956065654755
1772619251930700000,7.495699951171875,-0.046891674399375916,-0.1033623218536377,0.03964575007557869
1772619251940731100,7.505731201171875,-0.07223618030548096,-0.121121346950531,0.03941218927502632
1772619251950762000,7.515761962890625,-0.08208726346492767,-0.09507256746292114,0.051502250134944916
1772619251960793000,7.52579296875,-0.07936551421880722,-0.0541248694062233,0.0767815038561821
1772619251970824000,7.535823974609375,-0.0769319087266922,-0.017680523917078972,0.10120511800050735
1772619251980855000,7.54585498046875,-0.06422703713178635,0.03636007383465767,0.1340770423412323
1772619251990886000,7.555885986328125,-0.03286757320165634,0.09128039330244064,0.17899613082408905
1772619252000917000,7.5659169921875,0.009082537144422531,0.13730114698410034,0.22358384728431702
1772619252010948000,7.575947998046875,0.04447107017040253,0.17230252921581268,0.26178503036499023
1772619252020979200,7.585979248046875,0.0682658776640892,0.19069218635559082,0.2905128002166748
1772619252031010000,7.596010009765625,0.08286765217781067,0.2014884054660797,0.31003597378730774
1772619252041041200,7.606041259765625,0.09099775552749634,0.2055361419916153,0.32041990756988525
1772619252051072000,7.616072021484375,0.09803610295057297,0.2181549370288849,0.3260909914970398
1772619252061103000,7.62610302734375,0.10403487086296082,0.20655767619609833,0.31635022163391113
1772619252071134200,7.63613427734375,0.11120058596134186,0.17313538491725922,0.2948237359523773
1772619252081165000,7.6461650390625,0.13113301992416382,0.11622071266174316,0.27465322613716125
1772619252091196200,7.656196044921875,0.15824884176254272,0.03955301642417908,0.26016634702682495
1772619252101227000,7.66622705078125,0.18032671511173248,-0.05684196203947067,0.25398194789886475
1772619252111258000,7.676258056640625,0.18875429034233093,-0.15874941647052765,0.24418632686138153
1772619252121289000,7.6862890625,0.20236490666866302,-0.24123097956180573,0.23639151453971863
1772619252131320000,7.696320068359375,0.20298294723033905,-0.2917725145816803,0.23076236248016357
1772619252141351000,7.706350830078125,0.1939212679862976,-0.33180513978004456,0.2242402881383896
1772619252151382000,7.716382080078125,0.16419993340969086,-0.356825053691864,0.19191986322402954
1772619252161412900,7.726412841796875,0.11940716207027435,-0.3660861849784851,0.1454535573720932
1772619252171444200,7.7364443359375,0.07195016741752625,-0.3490760028362274,0.09877476096153259
1772619252181475000,7.74647509765625,0.01784192956984043,-0.31619957089424133,0.047344330698251724
