time,seconds_elapsed,z,y,x
1772619469786165500,0.07916552734375,0.4366857823908329,-0.09549480242282152,-0.16604374496378005
1772619469796196400,0.0891962890625,0.38898470453917977,-0.11687369053810834,-0.22774346448630092
1772619469806227500,0.0992275390625,0.33959085129499433,-0.11273995173424482,-0.19915771373212338
1772619469816258300,0.10925830078125,0.20163141036927698,-0.05853548333793878,-0.12082849257849156
1772619469826289400,0.119289306640625,0.028794717329740524,0.003265431536734104,-0.03743132051080465
1772619469836319500,0.129319580078125,-0.03544599191248417,0.09422025244235992,0.04873305124789476
1772619469846350300,0.139350341796875,-0.040108138504624365,0.14939765752404927,0.1702608512021601
1772619469856381400,0.14938134765625,0.0402852486371994,0.1800894406467676,0.23688451005816458
1772619469866412500,0.15941259765625,0.17724632617533206,0.19988865835517644,0.26824147909134627
1772619469876443600,0.169443603515625,0.27298282839953897,0.16595160970091818,0.333578751398623
1772619469886474500,0.179474609375,0.389568057385087,0.12011427989453076,0.31673034631982444
1772619469896505600,0.189505615234375,0.4473018689513206,0.00786444976478815,0.275976164996624
1772619469906535700,0.19953564453125,0.42771863208115096,-0.06212357095777988,0.20208163835480808
1772619469916566500,0.20956640625,0.35212533869743345,-0.11567337483763694,0.14453567751087248
1772619469926597600,0.21959765625,0.21394319493174552,-0.1736018321931362,0.1349872932471335
1772619469936628500,0.22962841796875,0.02368307340443134,-0.1311886316165328,0.1283216248128563
1772619469946659600,0.23965966796875,-0.16390519856512545,-0.07244681205153465,0.137068629565835
1772619469956690400,0.2496904296875,-0.3012760259479284,-0.053448973853886125,0.1522318580366671
1772619469966721500,0.259721435546875,-0.34596564702391625,-0.05470949530899524,0.20696685311309992
1772619469976751600,0.269751708984375,-0.36475568768978117,-0.051473582127690314,0.2572701493524015
1772619469986782500,0.279782470703125,-0.37225451901257034,-0.03478080600202083,0.25532573728635904
1772619469996813600,0.2898134765625,-0.2647597744554281,0.016674071425199506,0.3150776106767356
1772619470006844400,0.299844482421875,-0.06047638827264309,0.0027706337571144104,0.3663173840485513
1772619470016875500,0.30987548828125,0.1572235288441181,-0.04568944576829671,0.36614305039495226
1772619470026906400,0.31990625,0.3615753040879965,-0.10260668025463819,0.28196861034445464
1772619470036937500,0.3299375,0.5625602332472801,-0.19493775794953105,0.16138430178537963
1772619470046967600,0.339967529296875,0.7741033812999725,-0.24632424631565808,0.08241700192391872
1772619470056998400,0.349998291015625,0.9998673624068498,-0.2563213241949677,0.039922552804648875
1772619470067029500,0.360029541015625,1.2314034971743821,-0.21071400375217197,0.000026741876453161238
1772619470077060400,0.370060302734375,1.4489333184212445,-0.12295564080029725,-0.042896673244610425
1772619470087091500,0.380091552734375,1.6253157212436198,0.003614391104876995,-0.06806881616301834
1772619470097122300,0.390122314453125,1.7580688256978987,0.16659896769374608,-0.08955167610943317
1772619470107153400,0.4001533203125,1.8169529763430357,0.3832154734879732,-0.14704327641762793
1772619470117183500,0.41018359375,1.9129127659291028,0.5287140777468681,-0.2268446159504354
1772619470127214300,0.42021435546875,2.1488269696503877,0.6920601811245083,-0.34048487752526996
1772619470137245400,0.430245361328125,2.481356796517968,0.8216410852834581,-0.4803865385599434
1772619470147276500,0.440276611328125,2.7934745344758034,0.9061506755724549,-0.602631839133799
1772619470157307600,0.4503076171875,2.974790886569023,0.9742547822445631,-0.7211641105338931
1772619470167338500,0.46033837890625,3.0630881787031887,1.0309820471167563,-0.8189087377101183
1772619470177369600,0.47036962890625,3.010606880837679,1.0527642553359269,-0.779850765845552
1772619470187399700,0.480399658203125,2.935824903836846,1.0857862349718808,-0.6540233690012246
1772619470197430500,0.490430419921875,2.8285569537729023,0.9682888595774769,-0.45723457635752857
1772619470207461600,0.500461669921875,2.543020933270454,0.6488590450406074,-0.22596797924637793
1772619470217492500,0.510492431640625,1.9456541750580072,0.28069033403694627,-0.04056275040432811
1772619470227523600,0.520523681640625,0.9127736008435487,-0.10953940212726593,0.023949396190419792
1772619470237554400,0.530554443359375,-0.7425771931797266,-0.5787576270714402,0.1838921939305961
1772619470247585500,0.54058544921875,-2.959378797903657,-1.0172425678387285,0.41237281358502803
1772619470257615600,0.55061572265625,-5.38647325835824,-1.16992786873132,0.4610485816877335
1772619470267646500,0.560646484375,-7.359210670652985,-1.0320914696633816,0.21101751674339175
1772619470277677600,0.570677490234375,-8.60187439751029,-0.8498392980247735,-0.10371705264933406
1772619470287708400,0.58070849609375,-8.965591389802098,-0.6850824510663748,-0.110555228106305
1772619470297739500,0.590739501953125,-8.76707489658296,-0.5877978426173329,0.28918877085633576
1772619470307770400,0.600770263671875,-8.316802487388253,-0.6453215185642242,0.8432884881418198
1772619470317801500,0.610801513671875,-7.559190222162008,-0.805567025578022,1.2870491042897105
1772619470327831600,0.62083154296875,-6.471956710991263,-1.1593252261742948,1.5606619011558591
1772619470337862400,0.6308623046875,-5.42140311744213,-1.6777134324789047,1.6777673546232281
1772619470347893500,0.6408935546875,-4.544772843125462,-2.2473872971236704,1.4227340244121849
1772619470357924400,0.65092431640625,-3.931566126224398,-2.9492408502489327,0.9494089486710726
1772619470367955500,0.66095556640625,-3.8411353291928765,-3.4983836757794022,0.6107628308802843
1772619470377986300,0.670986328125,-4.084612661644816,-3.398286932519078,0.24389628851637243
1772619470388017400,0.681017333984375,-4.2617952749341725,-2.794984354516864,-0.11512567782700062
1772619470398048500,0.691048583984375,-4.051587759399414,-2.0237544828265905,-0.15547653904631734
1772619470408078300,0.701078369140625,-3.5541350813567636,-1.243914019179344,0.09675751583501696
1772619470418109400,0.711109375,-2.9988112291038034,-0.6446145393386483,0.1898470837470144
1772619470428140500,0.721140625,-2.139225613090396,-0.2289335510537028,0.14750833664610982
1772619470438171600,0.731171630859375,-0.9232909032046794,0.07468421571478247,0.06872369987517594
1772619470448202500,0.741202392578125,0.5594400554001331,0.22893442783653734,-0.025017317682877183
1772619470458233600,0.751233642578125,1.8659230512171983,0.3153891608439386,0.10814641339890659
1772619470468263700,0.761263671875,2.461039984676242,0.3940856809400022,0.3167402101267129
1772619470478294500,0.77129443359375,2.6788363479048014,0.6310445714086294,0.33315672659426926
1772619470488325600,0.78132568359375,3.0838235082179306,0.9065009503148496,0.24762867997772992
1772619470498356500,0.7913564453125,3.54947936450541,1.0761677811466157,-0.0007918810300529003
1772619470508387600,0.8013876953125,3.9118028566122054,1.0398512900099157,-0.13352891113236545
1772619470518418400,0.81141845703125,4.160003710454702,0.8636946587674319,0.03938170565990731
1772619470528449500,0.821449462890625,4.403588010412454,0.785645788925141,0.11297147720148787
1772619470538480600,0.831480712890625,4.721774839150905,0.7654778840348124,-0.022875227620266378
1772619470548510500,0.841510498046875,5.149232189947367,0.7473235109239816,-0.2367067606047727
1772619470558541600,0.85154150390625,5.720688846355676,0.7012868591532111,-0.42457514642365274
1772619470568572400,0.861572509765625,6.334562502732872,0.6195654382780194,-0.5240718779642135
1772619470578604500,0.8716044921875,6.856221401271224,0.47204482667222614,-0.6340828431259841
1772619470588635400,0.881635498046875,7.171810030210017,0.35774405536204573,-0.6804688928563147
1772619470598666500,0.89166650390625,7.184323474824428,0.2653618320018053,-0.7105581069760024
1772619470608697300,0.901697265625,6.992340182766318,0.3133566321030259,-0.794903373548761
1772619470618727400,0.9117275390625,6.725235306489467,0.5173560867778957,-0.8131410410288721
1772619470628758500,0.921758544921875,6.475812801897526,0.7920270143948495,-0.8105019977621734
1772619470638789400,0.931789306640625,6.401906438687443,1.0814553661607205,-0.7744659310020506
1772619470648820500,0.941820556640625,6.420224770188331,1.4119509107217192,-0.6512470361556858
1772619470658851300,0.951851318359375,6.423131597545742,1.6839780458316207,-0.47950500648505984
1772619470668882400,0.96188232421875,6.399125868058205,1.950253485547006,-0.3133649615399539
1772619470678913300,0.971913330078125,6.081441728144884,2.0835689000591633,-0.1716324318163097
1772619470688943400,0.981943359375,5.3566760859876865,2.0229899281948804,-0.02984824497066438
1772619470698974500,0.991974365234375,4.287133129808306,1.9301237207099795,-0.051985038781166074
1772619470709005300,1.00200537109375,3.000322802710533,1.8035957743808626,-0.03394377065598964
1772619470719036400,1.012036376953125,1.1538824505984782,0.885171015907824,1.5369266591727733
1772619470729067300,1.0220673828125,-0.2902829227685928,-0.30256518897563217,5.294848867627978
1772619470739098400,1.032098388671875,0.3909878610551357,1.6006120726197957,4.424677560192347
1772619470749129200,1.042129150390625,2.888362895438075,1.0459826323717831,0.2149555868446827
1772619470759159300,1.0521591796875,5.560148740309477,-3.66618179012984,-1.5183857709623871
1772619470769190400,1.0621904296875,3.5728082176446914,-7.031377477169037,-2.0165153253532946
1772619470779221200,1.07222119140625,-4.315310592022538,-5.863733043199777,-3.278197202543914
1772619470789252400,1.08225244140625,-13.050711416447163,-0.6523148845829069,-4.013133233320713
1772619470799283500,1.092283447265625,-19.8197531314373,3.4118852497607466,-1.2744791071824728
1772619470809314600,1.102314453125,-21.56428443017006,5.818739470741153,2.4748960760712624
1772619470819345400,1.112345458984375,-19.171205052042005,6.65887336730957,3.6633760850593444
1772619470829375500,1.12237548828125,-14.946106645864248,5.502762719267606,3.013704262331128
1772619470839406600,1.132406494140625,-10.276098234307765,2.9990684187352654,2.4790812528014183
1772619470849437400,1.1424375,-5.049233354103565,0.19959581288844347,2.5589883177310226
1772619470859468500,1.152468505859375,-3.0270693553388117,-1.757648846720159,1.1177779217120258
1772619470869499400,1.16249951171875,-1.929307435891032,-1.7610741449937224,-1.5265965499468146
1772619470879530500,1.172530517578125,-0.8898071512758732,-1.9191575055375694,-1.6252938016727565
1772619470889561300,1.182561279296875,0.009776713126897811,-2.011705440853536,-1.4440351711161434
1772619470899591400,1.19259130859375,0.6878419789075851,-1.5955714481040835,-1.4074597367823123
1772619470909622500,1.20262255859375,0.7735743889898061,-1.01912297475785,-1.0484783216450362
1772619470919653400,1.2126533203125,0.49077159284353256,-0.4226224779859185,-0.6880781257510185
1772619470929684500,1.2226845703125,0.24415070166885852,-0.04373685039579868,-0.42988348196484144
1772619470939715300,1.23271533203125,0.3403858010649681,0.076551032499969,-0.2716954920027405
1772619470949746400,1.242746337890625,0.6385416491657495,0.07096592584401369,-0.07278459263853729
1772619470959777300,1.25277734375,1.1125959159642458,0.07949789960682392,0.16113770661316812
1772619470969807400,1.262807373046875,1.7956570903360842,0.2662017899572849,0.41567601984888314
1772619470979838500,1.27283837890625,2.6083342401802536,0.43923122908994555,0.6645644175641239
1772619470989869300,1.282869384765625,3.301230579867959,0.4885951255872845,0.8218058473911136
1772619470999900400,1.292900390625,3.6851919032871723,0.5268988450184464,0.8235755604773759
1772619471009931300,1.30293115234375,3.6809476898461577,0.5588493960306048,0.6486161031302065
1772619471019962400,1.31296240234375,3.419038628646731,0.6061566522590816,0.4196298720411956
1772619471029993200,1.3229931640625,3.097430008766055,0.638919250306487,0.19325148536302147
1772619471040023300,1.333023193359375,2.763862071022391,0.5690908040598035,0.026487097974494098
1772619471050054400,1.343054443359375,2.62091139768064,0.5309243011422455,-0.07406922562159597
1772619471060085200,1.353085205078125,2.7682833945959806,0.5522878455579281,-0.16888517893478272
1772619471070116400,1.363116455078125,3.078988343146443,0.5470489219911396,-0.3119133014269173
1772619471080147500,1.3731474609375,3.5240088231623172,0.534445314875245,-0.37160438454076644
1772619471090178600,1.383178466796875,3.9706840846478935,0.5257353541970252,-0.3850175544738769
1772619471100209400,1.39320947265625,4.252976593184471,0.5522624188557267,-0.40163280838392673
1772619471110239500,1.403239501953125,4.31765569384396,0.6009150983437895,-0.37988238354250786
1772619471120270600,1.4132705078125,3.9543747548818584,0.6159019473344087,-0.3069672233268618
1772619471130301400,1.423301513671875,3.230294172379374,0.6666229575291276,-0.2848299911249429
1772619471140332500,1.43333251953125,2.455463061326742,0.6796873140245676,-0.25356632639840243
1772619471150363400,1.44336328125,1.6414765824496744,0.6052440674588084,-0.03381561423167586
1772619471160394500,1.45339453125,0.6570160480111837,0.4192945026069879,0.1647621807206422
1772619471170425300,1.46342529296875,-0.5155009604305029,0.2127440482750535,0.27957090155296027
1772619471180455400,1.473455322265625,-1.9306740480691194,0.10676233862936496,0.39918972608074543
1772619471190486500,1.483486572265625,-3.9005303519695995,-0.04792670330107212,0.5534677029922604
1772619471200517400,1.493517333984375,-6.101103875470161,-0.08880787200480698,0.7036578991334885
1772619471210548500,1.503548583984375,-8.113077904132009,0.05900105502307414,0.7447730227235704
1772619471220579300,1.513579345703125,-9.713951842558384,0.33297464802563187,0.6596550912778825
1772619471230610400,1.5236103515625,-10.720492691379786,0.5851204401016235,0.5372648292753845
1772619471240641300,1.533641357421875,-10.747214694088697,0.6762251908719539,0.39946269780322907
1772619471250671400,1.54367138671875,-9.851806654065847,0.39597149468660353,0.4252689739067107
1772619471260702500,1.553702392578125,-8.476706633618473,-0.16606354564279316,0.4948438837837428
1772619471270733300,1.5637333984375,-6.920451589119434,-0.9585548165485263,0.3618551439426839
1772619471280764400,1.573764404296875,-5.4792228537261485,-1.9939698776766657,0.15576346622891724
1772619471290795300,1.583795166015625,-4.301591278749704,-3.009943740753829,-0.17459719990603625
1772619471300826400,1.593826416015625,-3.3464532849073407,-3.6146827812999485,-0.7040382036879659
1772619471310857200,1.603857177734375,-2.3706273078233,-3.7673236585289236,-1.1771020712096243
1772619471320887300,1.61388720703125,-1.4665893866211175,-3.5437346833735703,-1.4258990643143652
1772619471330918400,1.62391845703125,-0.9621709612190723,-3.0202114522680636,-1.5355030561104417
1772619471340949200,1.63394921875,-0.7526298006385564,-2.2754006548173726,-1.3235561495624482
1772619471350980400,1.64398046875,-0.7640975355923175,-1.5843836991354823,-0.8665649535067379
1772619471361011500,1.654011474609375,-1.0120926377296446,-0.9320816740341484,-0.43227176534086464
1772619471371042600,1.66404248046875,-1.2683984720945358,-0.404528164499253,0.2557498809825629
1772619471381073400,1.674073486328125,-1.2462597055226563,-0.16358911835327744,0.9823313403900712
1772619471391103500,1.684103515625,-0.7456067701339721,-0.04948790646949783,1.161285493396595
1772619471401134600,1.694134521484375,0.17738544238507747,-0.001116144548356533,0.9587552344914525
1772619471411165400,1.70416552734375,1.3564695542573928,0.029218075574655084,0.5342802239740267
1772619471421196500,1.714196533203125,2.4357360320717096,-0.05413613413413986,0.04492730228938162
1772619471431227400,1.724227294921875,3.320106545251608,-0.22957334679458288,-0.26904636573344465
1772619471441258500,1.734258544921875,4.148787904435396,-0.38653994173556566,-0.34059389085769654
1772619471451289300,1.744289306640625,5.00056606156826,-0.3592579305237159,-0.2326676412818022
1772619471461319400,1.7543193359375,5.725165114986896,-0.2924276066470891,-0.12419117394462227
1772619471471350500,1.7643505859375,6.255628082227706,-0.23714447616860268,0.024673454414959994
1772619471481381400,1.77438134765625,6.6808917223721735,-0.05510850456394255,0.1288381595002487
1772619471491412500,1.78441259765625,6.9520900054425,0.18034699560441075,0.08777498529311269
1772619471501443300,1.794443359375,7.0809840963810675,0.41774215859845276,-0.08221037343591452
1772619471511474400,1.804474365234375,7.284618663266301,0.5174649539798498,-0.2483739819196984
1772619471521505300,1.81450537109375,7.462749371060728,0.5611084270037711,-0.32772783341333267
1772619471531535400,1.824535400390625,7.510254049557447,0.6033624914959073,-0.41473026343137026
1772619471541566500,1.83456640625,7.461762698110937,0.6390396618157624,-0.5639173469446599
1772619471551597300,1.844597412109375,7.30722446282804,0.7037649397045374,-0.7912385674308985
1772619471561628400,1.85462841796875,7.045733334779739,0.8525656542487442,-1.0158557165902107
1772619471571659300,1.8646591796875,6.777369398352503,1.0535438614062964,-1.1386365122802555
1772619471581689900,1.87468994140625,6.664702219593525,1.3414602011740206,-1.0971861653864383
1772619471591720700,1.884720703125,6.670219521710276,1.686173363918811,-0.849780188248679
1772619471601750500,1.89475048828125,6.629252720549702,2.0046426628604532,-0.5326056783579289
1772619471611782000,1.904781982421875,6.3348243685394525,2.1514009117916224,-0.26693777608163655
1772619471621812700,1.914812744140625,5.639610984081029,2.0519161629498,0.13096629410274327
1772619471631843800,1.92484375,4.590066275313497,1.8833479410097003,0.7653809264663607
1772619471641874700,1.934874755859375,3.2094822704970833,1.6715443884551524,1.2942504139706492
1772619471651905800,1.94490576171875,1.4980740736871956,1.2693524118185042,1.8083380004718899
1772619471661936600,1.9549365234375,-0.4439654180049896,0.5280488918364048,2.395455459609628
1772619471671966700,1.964966796875,-2.1422230413407086,-0.3892380947783589,2.3250844309188423
1772619471681997800,1.974997802734375,-3.0640503017336127,-1.289858608752489,1.4774541872456668
1772619471692028700,1.985028564453125,-3.4571120464533567,-2.1700249482408163,0.4926852444451302
1772619471702059800,1.995059814453125,-4.280382486504316,-2.4695567608699203,-0.7982781837441026
1772619471712090600,2.005090576171875,-6.21000381065011,-1.7259858804777264,-1.308312841592729
1772619471722121700,2.015121826171875,-9.052321578750014,-0.44116248941347,-0.45744785378202796
1772619471732152600,2.025152587890625,-11.931850010347366,0.9056438950940966,0.6000716332569718
1772619471742182700,2.0351826171875,-13.746148672789335,2.0631360606223343,1.6868861883632837
1772619471752213800,2.0452138671875,-14.080129282987118,2.5289316176414487,2.8952102771148085
1772619471762244600,2.05524462890625,-13.206278410255909,2.418225655952841,3.6286256741955873
1772619471772275700,2.065275634765625,-11.43274781153202,1.973021489933133,3.541705807894468
1772619471782306600,2.075306640625,-9.20300196956098,1.3781057781346142,2.8693165419235824
1772619471792337700,2.085337646484375,-6.783944685089588,0.5514776982188224,1.7743039211839435
1772619471802368800,2.09536865234375,-4.082849159103632,-0.3767538762584328,0.5346819001100958
1772619471812398600,2.105398681640625,-1.3262106095939874,-1.2519864126063882,-0.3994254345327615
1772619471822429700,2.1154296875,1.00100484200418,-1.9616054851666092,-1.0287835141591728
1772619471832460500,2.12546044921875,2.514336106055975,-2.3584587311238048,-1.382468064997345
1772619471842491600,2.13549169921875,3.1169729136258364,-2.4365740903310478,-1.5547513619378208
1772619471852522500,2.1455224609375,2.962217236199975,-2.220372302817553,-1.60530826761201
1772619471862553900,2.155553955078125,2.5989479876756665,-1.8749667738944291,-1.4422908116668463
1772619471872584700,2.165584716796875,2.4293413625985383,-1.5312018517851829,-1.0450397985637188
1772619471882614500,2.175614501953125,2.5289327866852283,-1.2226340613938866,-0.5687982508540154
1772619471892646000,2.18564599609375,2.7958354183882475,-0.9750022396109997,-0.10677600182853639
1772619471902676700,2.1956767578125,3.1865649207681415,-0.8092308087825775,0.22204737173654138
1772619471912707800,2.205707763671875,3.5949347092568873,-0.7710257274203002,0.4028661495711654
1772619471922738700,2.21573876953125,3.951753174206614,-0.8339828265927731,0.4296775841291994
1772619471932769800,2.225769775390625,4.280749566251039,-0.9330930430337786,0.3712771984130144
1772619471942800600,2.235800537109375,4.507107421597838,-1.072449199014902,0.31779359163716436
1772619471952830700,2.245830810546875,4.680677689608931,-1.1902291907429694,0.32456483933776614
1772619471962861800,2.25586181640625,4.764968084189295,-1.297295042363554,0.309944339441508
1772619471972892700,2.265892578125,4.750722701215744,-1.420866038583219,0.2336151329986751
1772619471982923800,2.275923828125,4.747507830822467,-1.5407285356737672,0.13343246502056716
1772619471992954600,2.28595458984375,4.728321484315395,-1.6878857207946478,-0.019008505722135305
1772619472002985700,2.29598583984375,4.608595034694671,-1.8437017209284006,-0.29082740490883585
1772619472013015800,2.306015869140625,4.443243728974461,-1.9505080448299645,-0.6235616683073342
1772619472023046700,2.316046630859375,4.119761716437339,-2.0115981810867787,-0.837039876075834
1772619472033077800,2.326077880859375,3.5766719073355198,-1.9596926372826098,-0.8776593981686979
1772619472043108600,2.336108642578125,2.6040765827357766,-1.6923206345021724,-0.7462389305576682
1772619472053139700,2.3461396484375,1.3859189361035824,-1.1360332709793002,-0.5091355901170521
1772619472063170600,2.356170654296875,-0.07542378203570842,-0.5900662259407341,-0.24345555901154875
1772619472073201700,2.36620166015625,-1.356724990323186,0.025648162932321427,0.03710274614356458
1772619472083232800,2.376232666015625,-2.3226883295625447,0.5954395895421505,0.2063052473992109
1772619472093262600,2.3862626953125,-3.0191040755480527,0.9991809875778853,0.24427933301720767
1772619472103293700,2.396293701171875,-3.394126305708289,1.337556471733749,0.07399619691800326
1772619472113324500,2.406324462890625,-3.4847985102802514,1.4950621785201132,-0.2587054063199088
1772619472123355600,2.416355712890625,-3.7981133490681644,1.134804679032415,-0.5159539283623918
1772619472133386500,2.426386474609375,-4.662202706241607,0.5200817123495042,-0.5600281209537759
1772619472143417900,2.43641796875,-6.252982536154985,0.083779814709723,-0.5604958845959976
1772619472153448700,2.44644873046875,-8.299061663514376,-0.2020776928320527,-0.4803596870856359
1772619472163478500,2.456478515625,-10.208811581498384,-0.21787162042185662,-0.3374425141546875
1772619472173510000,2.466510009765625,-11.482595838284492,0.1136708028435707,-0.1830746304700151
1772619472183540700,2.476540771484375,-11.844586737436055,0.4942581197850406,0.10080730268247425
1772619472193571800,2.48657177734375,-11.375283464556931,0.6170923261627554,0.6178614108391106
1772619472203602700,2.496602783203125,-10.493132380992174,0.4238469052143395,1.2882317382030188
1772619472213633800,2.5066337890625,-9.592571780511737,0.029113720151036977,1.799018383462727
1772619472223663900,2.516663818359375,-8.86241567748785,-0.44726979331262406,1.7895315931931137
1772619472233694700,2.52669482421875,-8.37691530304551,-1.0494879370789973,1.4040835383474826
1772619472243725800,2.536725830078125,-7.658563035061955,-1.461741362068057,0.835216240845248
1772619472253756700,2.546756591796875,-6.620216012135148,-1.4344129178985952,0.16509601578488944
1772619472263787800,2.556787841796875,-5.787757472500204,-1.1389716625187545,-0.37220410399958487
1772619472273818600,2.566818603515625,-5.43861845613718,-0.6837025410152971,-0.6148957659665495
1772619472283849700,2.576849609375,-5.337560466629267,-0.1711697279416956,-0.131527654312551
1772619472293879800,2.5868798828125,-5.016524093678593,0.36044377930741756,0.6734701930753886
1772619472303910700,2.59691064453125,-4.261523472255468,0.8143203139413148,1.3646502303645014
1772619472313941800,2.606941650390625,-3.041597062385082,1.0981501881130038,1.7605735019952058
1772619472323972600,2.61697265625,-1.4730132821887731,1.1218950747072696,1.6248346597284078
1772619472334003700,2.627003662109375,0.31669279078841206,0.939282618388906,1.1256516507618128
1772619472344034600,2.63703466796875,2.2754724048793316,0.8340613717216998,0.5810807362567633
1772619472354065700,2.647065673828125,4.125660711348057,0.7627200366940349,0.08673011588267981
1772619472364096800,2.6570966796875,5.720391324713826,0.7386831083506346,-0.20225840142751111
1772619472374126600,2.667126708984375,6.989541491958499,0.9244104087539017,-0.36230223012305796
1772619472384157700,2.67715771484375,7.883094844025373,1.1845895774208008,-0.6534519988540559
1772619472394188500,2.6871884765625,8.448224050977826,1.3801215018711983,-0.8722865460239351
1772619472404219600,2.6972197265625,8.73869109814167,1.502368556010723,-0.9766259683553129
1772619472414250500,2.70725048828125,9.043025342616438,1.6141580751523374,-1.0243267539460212
1772619472424281900,2.71728173828125,9.201412070021032,1.6974591664344072,-1.1357945668525993
1772619472434311700,2.727311767578125,9.128325206500291,1.7803168978631496,-1.1770202381450683
1772619472444342500,2.737342529296875,8.63307266885042,2.283625023935735,-0.7596672980599105
1772619472454374000,2.747373779296875,8.631924667859076,2.349881456914544,-1.372422325670719
1772619472464404700,2.75740478515625,8.772071389696002,1.9946596135064958,-1.9403867560490964
1772619472474435800,2.767435791015625,8.771806016758084,1.757493656158447,-2.027377057237923
1772619472484466700,2.777466796875,8.705987098413706,1.9138368950366973,-1.734927311824262
1772619472494497800,2.787497802734375,8.531516666692495,2.3591066736385224,-1.2264645794674753
1772619472504528000,2.79752783203125,8.090138342571258,2.878041992431879,-0.7122065317701548
1772619472514558700,2.807558837890625,7.545172802725434,3.3329236489877103,-0.38307833003960545
1772619472524589800,2.81758984375,7.069406471312045,3.7338822844371196,-0.2640948077406734
1772619472534620700,2.82762060546875,6.692897801986336,4.030317007833719,-0.17497911189571022
1772619472544651800,2.83765185546875,6.306159415069222,4.130201861909032,0.11069587868601083
1772619472554682600,2.8476826171875,5.713808439192175,3.8114351874560115,0.6694584732159972
1772619472564713700,2.857713623046875,4.79524807164073,3.11779562818557,1.4449169223867355
1772619472574744600,2.86774462890625,3.696570206391811,2.2536168391630054,2.2358459124118086
1772619472584775400,2.877775390625,2.3743127183377744,1.0089330046549438,3.255903537671268
1772619472594806500,2.887806640625,0.8442115212708711,-0.7881684392705559,4.961514154118299
1772619472604837400,2.89783740234375,-0.20887772823572157,-1.9735244710192084,4.961694771382212
1772619472614868500,2.907868408203125,0.6190770702391862,-1.730691573950648,2.4746584679231045
1772619472624899300,2.9178994140625,2.3333885872751474,-1.659618680600822,-0.5174638580013067
1772619472634930400,2.927930419921875,3.2595091609477995,-2.1426503268420696,-3.4288585963934657
1772619472644960500,2.93796044921875,1.1367951221972703,-2.3726801486998794,-5.27565550685823
1772619472654991400,2.947991455078125,-2.9820173306912183,-1.0716580486372114,-5.274190695002675
1772619472665022500,2.9580224609375,-7.2789850412935015,0.8352963934093713,-3.44542073187679
1772619472675053300,2.96805322265625,-10.113753124666214,2.586095520365238,-0.9226557471062987
1772619472685084400,2.97808447265625,-10.762994447022676,4.209678134205937,1.7570539495669304
1772619472695115300,2.988115234375,-10.219334144556521,4.765377541773021,3.5753868359610435
1772619472705146400,2.998146484375,-8.73798148856759,4.852964347550273,4.003866807803512
1772619472715176400,3.008176513671875,-6.5986565067559475,4.556915700861811,3.502913720424473
1772619472725207300,3.018207275390625,-4.22789534341991,3.577644551759958,2.3592320535838605
1772619472735238400,3.02823828125,-1.9807430240958928,2.0500928930453957,0.8509239514563233
1772619472745269200,3.038269287109375,-0.3514128065139055,0.6086356095932424,-0.6739690825082362
1772619472755300400,3.04830029296875,0.2675952901422977,-0.6557567686650901,-1.735392737378925
1772619472765331200,3.058331298828125,-0.1396259128332138,-1.6329704737804829,-2.0324416471511126
1772619472775362300,3.0683623046875,-1.203197393387556,-1.7241757623158394,-2.1060988579057156
1772619472785392400,3.078392333984375,-2.0053245076447723,-1.0417563929788767,-2.0609829742416736
1772619472795423200,3.08842333984375,-2.2927082018405196,-0.549864271672815,-1.5587407238349318
1772619472805454300,3.098454345703125,-2.2131249620378015,-0.5048892577841878,-0.9148525990746915
1772619472815485200,3.108485107421875,-1.7648779211908578,-0.6888262407045811,-0.5357680879116058
1772619472825516500,3.1185166015625,-1.1718413011372089,-1.13002365530096,-0.46072446429990227
1772619472835547400,3.12854736328125,-0.7243430328309536,-1.6998028069511055,-0.17627894244790077
1772619472845578500,3.13857861328125,-0.3838642927855253,-2.052060247595608,-0.0055449938412755724
1772619472855608600,3.148608642578125,-0.09351882617473602,-2.31191734470129,-0.003926233533024788
1772619472865639400,3.158639404296875,0.21558511691987514,-2.4649711866453288,0.16478731516189873
1772619472875670500,3.16867041015625,0.6863561242640018,-2.4306281875386833,0.3794492528222501
1772619472885701400,3.178701416015625,1.1778589539915323,-2.404502543287724,0.5853467231381684
1772619472895732500,3.188732421875,1.5161194334655999,-2.4634666273012757,0.6802876180052757
1772619472905763300,3.198763427734375,1.635561805447936,-2.5171193070337177,0.44595052740760144
1772619472915794400,3.20879443359375,1.4925719691395758,-2.5388322494089604,-0.06921257937066257
1772619472925824500,3.218824462890625,0.9765490306615829,-2.555781922905147,-0.7379130738262086
1772619472935855400,3.22885546875,0.32446167122423647,-2.470840078678727,-1.3078905245274304
1772619472945886500,3.238886474609375,-0.28509938265085216,-2.3070821796298024,-1.6041557365760206
1772619472955917300,3.248917236328125,-0.7292758130580187,-2.0509655842266974,-1.545935310536623
1772619472965948400,3.258948486328125,-0.9937368968278169,-1.712832968915999,-1.1666703282400965
1772619472975979300,3.268979248046875,-0.9955769717365502,-1.3212576633617281,-0.8174304818511009
1772619472986010400,3.27901025390625,-0.9683733229905366,-1.0693562745008618,-0.723605000879988
1772619472996040400,3.28904052734375,-0.7908382430016994,-0.8882898785807192,-0.7714066895619034
1772619473006071300,3.2990712890625,-0.45218905647099017,-0.6755343590635806,-0.8902187277514487
1772619473016102400,3.309102294921875,-0.14439502693116665,-0.5169838924646377,-1.0285103232409805
1772619473026133200,3.31913330078125,0.08745090443789959,-0.4384168439671397,-1.2165456083256752
1772619473036164400,3.329164306640625,0.3297767287671566,-0.4003795203872025,-1.4507875679858029
1772619473046195200,3.3391953125,0.49322950738966465,-0.4770757335115224,-1.522547274556011
1772619473056226300,3.349226318359375,0.34544542254209515,-0.6079178167127073,-1.3083756776958704
1772619473066256400,3.35925634765625,-0.08664777136147021,-0.697055212932825,-0.9819963362820446
1772619473076287200,3.369287353515625,-0.6625666678756476,-0.6624900955080986,-0.5795384752508252
1772619473086318300,3.379318359375,-1.5365917281299828,-0.5741713221944869,-0.18443338813520968
1772619473096349200,3.38934912109375,-2.7180601047903297,-0.4550441536411643,0.20017164001502097
1772619473106380500,3.399380615234375,-4.231275633507967,-0.3590156827330589,0.506732766759023
1772619473116411400,3.409411376953125,-5.945107842594385,-0.16427870805263517,0.6552627746030688
1772619473126442500,3.4194423828125,-7.444497675055265,0.1397838798739016,0.7055738888226449
1772619473136472600,3.42947265625,-8.35077080796361,0.43892625479400155,0.6816990191731601
1772619473146503400,3.43950341796875,-8.508328683328628,0.7512886151626705,0.6316964594461023
1772619473156534500,3.449534423828125,-7.8733397582083935,0.9354755542561412,0.6997120841171592
1772619473166565400,3.4595654296875,-6.523737751632929,0.8901905976355076,0.8760768051523715
1772619473176596500,3.469596435546875,-4.867939798364043,0.6508427662037313,0.9398260045506059
1772619473186627300,3.47962744140625,-3.3571547116637226,0.28828824182003737,0.7431108616650104
1772619473196658400,3.489658447265625,-2.1867443201124668,-0.33826252530068157,0.526789502892457
1772619473206688500,3.4996884765625,-1.7727526000887155,-1.0395949771612882,0.48932767764553425
1772619473216719400,3.50971923828125,-2.1170891846060753,-1.2671465723372994,0.5346990704406053
1772619473226750500,3.51975048828125,-2.610451962986588,-0.7541941273458301,0.734542428349331
1772619473236781300,3.52978125,-2.6922452800542116,0.12959595559760928,1.1074294000465421
1772619473246812400,3.5398125,-2.3327672405064104,0.721498164793849,1.5685343880966305
1772619473256843300,3.54984326171875,-1.635923624497652,1.2260923851542174,2.101780994706601
1772619473266874400,3.559874267578125,-0.8905623535573483,1.596049879270792,2.4807439253166317
1772619473276904400,3.569904541015625,-0.07807751141488552,1.8766059194035827,2.5795263711079954
1772619473286935300,3.579935302734375,0.8503449094593525,2.087624312929809,2.4546844781696797
1772619473296966400,3.58996630859375,1.9603285970985889,2.1839226868204773,2.190313703031838
1772619473306997200,3.599997314453125,3.128831109201908,2.1309566741779444,1.8387952441863715
1772619473317028400,3.6100283203125,4.144160829156637,1.971205088160932,1.422361830098927
1772619473327059200,3.62005908203125,4.862133157911896,1.8111669402875006,0.9790051916420459
1772619473337090300,3.63009033203125,5.326491375604272,1.7162513990573585,0.6925294060714543
1772619473347120400,3.640120361328125,5.683150266078115,1.7374287732511757,0.5029625640379265
1772619473357151200,3.650151123046875,5.981561550244689,1.833430502282828,0.4110675396727398
1772619473367182300,3.660182373046875,6.349758318299055,1.926986737858504,0.3237322609711438
1772619473377213200,3.670213134765625,6.752176504907012,1.9857281190320848,0.30814594825003294
1772619473387244500,3.68024462890625,7.181611293256283,1.9193550739362835,0.3689272742860019
1772619473397275400,3.690275390625,7.655232429334521,1.8221566824659705,0.4046584398154169
1772619473407306500,3.700306396484375,7.974872379490733,1.7150924382805823,0.3308293430926278
1772619473417336600,3.710336669921875,8.089338716626166,1.6029770481854677,0.2103077975714579
1772619473427367400,3.720367431640625,8.0223232819736,1.4957166969060898,0.0012418624204117803
1772619473437398500,3.7303984375,7.801475129958987,1.4295862283945082,-0.2792130645586178
1772619473447429400,3.740429443359375,7.426683785945177,1.45192548597455,-0.5683914236187935
1772619473457460500,3.75046044921875,6.829569541189074,1.479000247643888,-0.8073753171090036
1772619473467491300,3.7604912109375,5.967098140606284,1.5402604797706008,-0.9191510269209742
1772619473477522400,3.7705224609375,4.771950782683492,1.524953897306323,-0.8687366715226322
1772619473487552500,3.780552490234375,3.2376264149636027,1.4174763961449264,-0.6115417062982916
1772619473497583400,3.790583251953125,1.6519184814870356,1.3226280749320982,-0.013605927442677784
1772619473507614500,3.800614501953125,0.5815419970929623,1.2963272202447056,0.8373916121229529
1772619473517645300,3.810645263671875,0.09210077607035637,1.0137161472782492,1.6828018416590989
1772619473527676400,3.820676513671875,-0.30043840608000755,0.0133390817835927,2.8337770265087485
1772619473537707300,3.830707275390625,-0.5625707546412945,-1.5932374521985648,4.0278544171124695
1772619473547738400,3.84073828125,0.1929120973408222,-2.2450576851323247,2.6400816698357463
1772619473557768400,3.8507685546875,1.643657433620095,-2.2399869577392932,-0.3128758263161406
1772619473567799300,3.86079931640625,2.196736721816659,-2.936767153123021,-2.316761423731595
1772619473577829600,3.87082958984375,0.5939759467303752,-3.28858327974081,-3.802549285688996
1772619473587860500,3.880860595703125,-2.9643793826699256,-2.263152729271352,-4.0236967129111285
1772619473597891600,3.8908916015625,-7.1830234981417656,-0.3333515185140073,-3.140086370448768
1772619473607922400,3.90092236328125,-10.892754799401759,1.5127962803922592,-1.5687185124918817
1772619473617953500,3.91095361328125,-12.920305751901864,2.873338052524626,0.4806364216677844
1772619473627983600,3.920983642578125,-12.918506593525409,3.6070208683699367,2.1995552863687275
1772619473638014500,3.931014404296875,-11.44662436119318,3.6435628388255834,3.0935569667249916
1772619473648045600,3.941045654296875,-9.146524880057573,2.9293083615496753,3.194441645492613
1772619473658076700,3.95107666015625,-6.7089668932557105,1.7960592413961887,2.3642751623176035
1772619473668107800,3.961107666015625,-4.348188779273629,0.6525089458502829,0.730731564824283
1772619473678138600,3.971138671875,-1.9668916088759898,-0.40950595291182396,-0.8181663949102163
1772619473688168700,3.981168701171875,0.08295710014998912,-1.2568733078651129,-1.5852429463133215
1772619473698199800,3.99119970703125,1.2891753026634454,-1.5826887317858636,-1.8485162816032765
1772619473708230700,4.001230712890625,1.4752981782555579,-1.3507123059049249,-1.7777306807622313
1772619473718261800,4.01126171875,0.7577689170926809,-0.5913032203897833,-1.3238035484522581
1772619473728292600,4.021292724609375,-0.1484621302396059,0.26549934077635406,-0.7381634683907031
1772619473738323700,4.03132373046875,-0.6866162365049123,0.8152828022979199,-0.06496639316827059
1772619473748354600,4.0413544921875,-0.7483756503254175,0.9954852017998694,0.4567508114285767
1772619473758384600,4.051384521484375,-0.38157998124063014,0.8575510414458811,0.6678883012898266
1772619473768415700,4.061415771484375,0.22981764041185376,0.5107580036871135,0.5703169848538935
1772619473778446600,4.071446533203125,1.0321721336841583,0.06193170164749026,0.22700112168639897
1772619473788477700,4.081477783203125,1.771485356631875,-0.48380292287468907,-0.29660043535232544
1772619473798508500,4.091508544921875,2.304479888176918,-1.0059149720080196,-0.7221896541893482
1772619473808539600,4.10153955078125,2.5695804388940333,-1.2700976772278547,-1.009276484330371
1772619473818570500,4.111570556640625,2.5158523558378216,-1.4409690615437925,-1.2514613658189773
1772619473828600600,4.1216005859375,2.3134482075303793,-1.4148193057648837,-1.3615563560023902
1772619473838631700,4.131631591796875,2.1278514016389845,-1.1870787638880311,-1.3567339042820035
1772619473848662500,4.14166259765625,1.9296552264153957,-0.9641596508182585,-1.2337905384413896
1772619473858693600,4.151693603515625,1.660315722954273,-0.7954312698803842,-1.1239713695246725
1772619473868724500,4.161724365234375,1.4450848262995482,-0.6610808132320642,-0.9840692700985818
1772619473878755600,4.171755615234375,1.3016688735336064,-0.5182582963146269,-0.7968651751410215
1772619473888786400,4.181786376953125,1.2042623922705649,-0.3218593797713518,-0.5614097480379044
1772619473898817500,4.191817626953125,1.235251404774189,-0.07793065029010177,-0.33565190441086884
1772619473908847600,4.20184765625,1.4547615861833094,0.15641542733162642,-0.17265476060137153
1772619473918878500,4.21187841796875,1.8250749080002306,0.2915168484777212,-0.07642974420785903
1772619473928909600,4.22190966796875,2.185689842623472,0.3428904773622751,-0.09770049577355384
1772619473938940700,4.231940673828125,2.412949030724168,0.38746757797449827,-0.1953800218243152
1772619473948971800,4.2419716796875,2.381783492609858,0.4252648091882467,-0.2883203905239701
1772619473959002600,4.252002685546875,2.2094529955267905,0.4633972637057304,-0.3768947460338473
1772619473969032700,4.26203271484375,1.9889140555918217,0.5089769654892384,-0.39649223062507805
1772619473979063800,4.272063720703125,1.8034435064285992,0.5088384338013827,-0.45987705369032916
1772619473989094700,4.2820947265625,1.5627134268581866,0.43325142402797934,-0.42744624488055705
1772619473999125800,4.292125732421875,1.1494804162472485,0.33267961060181256,-0.3670809157669544
1772619474009156600,4.302156494140625,0.5960235269099473,0.22280147803947328,-0.4653096731983125
1772619474019187700,4.312187744140625,-0.09313479529321193,-0.07008534361720084,-0.595271685629338
1772619474029218600,4.322218505859375,-1.1414198593884706,-0.4847825815618038,-0.4796870850536972
1772619474039248600,4.33224853515625,-3.004645926606655,-0.9089531657725572,-0.33746995015088466
1772619474049279700,4.34227978515625,-5.66463904235363,-1.1833033370025454,-0.36899500575996935
1772619474059310600,4.352310546875,-8.51210995543301,-1.1783033367581666,-0.5196623544262722
1772619474069341700,4.362341796875,-11.05789859985113,-0.9106209528543054,-0.5348304782679304
1772619474079372500,4.37237255859375,-12.697432231539487,-0.4956260471373796,-0.5619416994901374
1772619474089403600,4.382403564453125,-12.996304118955134,-0.20778876395523546,-0.5711286665629595
1772619474099434500,4.3924345703125,-12.175662273842095,-0.2068845085918903,-0.31496563820224255
1772619474109464600,4.402464599609375,-10.411325035399198,-0.4459817262634635,0.15841653802096842
1772619474119495700,4.41249560546875,-8.352572888949513,-0.9400751570060849,0.5946571704601868
1772619474129526500,4.422526611328125,-6.489180817514658,-1.5818211551710963,0.8975555734455585
1772619474139557600,4.4325576171875,-4.895961777755618,-2.2457477132230994,1.114960014747083
1772619474149588500,4.44258837890625,-3.347341173657775,-2.5755723727852105,1.4827996399268506
1772619474159619600,4.45261962890625,-1.8862012846142053,-2.5005840595573186,1.7876450487941502
1772619474169650400,4.462650390625,-0.6440431691914796,-2.0335341185629368,1.888111502149701
1772619474179680500,4.472680419921875,0.14762684845924376,-1.361653971157968,1.7187562214851377
1772619474189711600,4.482711669921875,0.4789788637191057,-0.708067166943103,1.4015604496106504
1772619474199742500,4.492742431640625,0.4223299247801304,-0.19247852822914718,1.1355252483919263
1772619474209773600,4.502773681640625,0.3663578621894121,0.18103958097845316,0.8691947174884378
1772619474219804700,4.5128046875,0.6489782875061034,0.36137305951416493,0.6241672329850495
1772619474229835800,4.522835693359375,1.3578496104389428,0.4855854223772883,0.320319639516063
1772619474239866600,4.53286669921875,2.2346517341911794,0.4613794941425323,0.02693111541494727
1772619474249896700,4.542896728515625,3.2132465914666652,0.33256782079041003,-0.2551892879577353
1772619474259927800,4.552927734375,4.3158623806864025,0.31447219212949273,-0.4891014676742255
1772619474269958700,4.562958740234375,5.321659133142233,0.35982612233310934,-0.6862316211014986
1772619474279989800,4.57298974609375,6.063592767721414,0.43187297528162594,-0.8263679676748812
1772619474290020600,4.5830205078125,6.524739037629962,0.4587668274261057,-0.7946619660083204
1772619474300051700,4.5930517578125,6.720598878860473,0.5229974536657334,-0.5367881882069632
1772619474310082600,4.60308251953125,6.811067085292935,0.6068500413507223,-0.18081636668182907
1772619474320112600,4.613112548828125,6.836452286440133,0.7338083419211209,0.022646131572127342
1772619474330143700,4.623143798828125,6.824705734544992,0.8748669179059565,0.09644461396094411
1772619474340174600,4.633174560546875,6.8612494585663075,0.968811860538274,0.18306091247191653
1772619474350205700,4.643205810546875,6.936717079743743,0.9634688920751213,0.17467457599118352
1772619474360236500,4.653236572265625,7.018150331327319,0.9416288161888718,-0.02632907613487914
1772619474370267600,4.663267578125,7.042010514864325,0.863690859375149,-0.3081972400458529
1772619474380298500,4.673298583984375,7.1621356084138155,0.739411422625184,-0.6224095756627619
1772619474390328600,4.68332861328125,7.272657591837644,0.6170074243582785,-0.8420088235948234
1772619474400359700,4.693359619140625,7.208653029438853,0.5691926569990814,-0.972431804601103
1772619474410390500,4.703390625,7.0339768460124725,0.6010682430788874,-1.0569541082412004
1772619474420421600,4.713421630859375,6.8463669467329975,0.7933376586019992,-1.0834124915778636
1772619474430452500,4.723452392578125,6.673694504344463,1.1228294329479336,-1.0368014739852398
1772619474440483600,4.733483642578125,6.450390775871276,1.5867822847098112,-0.907441007643938
1772619474450514400,4.743514404296875,6.125539813068508,1.9147133856102823,-0.7959018100015819
1772619474460544500,4.75354443359375,5.518090052258968,2.055370395056903,-0.71537880513072
1772619474470575600,4.76357568359375,4.392562758529186,1.8938903778120875,-0.4278462039835751
1772619474480606500,4.7736064453125,2.7504595686137674,1.4920388851761817,0.22398827667124568
1772619474490637600,4.783637451171875,0.7351876674503087,1.0822244508370757,1.0397051595374942
1772619474500668700,4.793668701171875,-1.6146026040494441,0.4762725273698568,2.265569727285206
1772619474510699800,4.80369970703125,-3.6204473361760376,-0.34089170476049185,4.078470213367044
1772619474520730600,4.813730712890625,-4.035251541626453,-0.1751578294634819,3.9825481254428623
1772619474530760700,4.8237607421875,-2.761486574062705,-0.6270066941946745,2.331660594438761
1772619474540791800,4.833791748046875,-0.4769207621455192,-2.5648931578606367,0.9093540016584097
1772619474550822700,4.84382275390625,0.9533557866007089,-4.060591150066256,-1.5074388450123368
1772619474560853800,4.853853759765625,-0.6466624117791653,-4.574788626682758,-3.6543887687444685
1772619474570884600,4.863884521484375,-4.314091279360651,-3.2839684794217345,-4.108388089507818
1772619474580916200,4.873916259765625,-8.413032910609244,-0.9337757646009326,-2.9473829474225637
1772619474590947000,4.883947021484375,-11.209303797805308,1.1893329725556074,-1.2121270612310617
1772619474600977200,4.89397705078125,-12.189222012639044,3.286884366868436,0.31901224671192463
1772619474611008300,4.90400830078125,-11.678824512827395,4.847466334655881,1.9125135374784468
1772619474621039000,4.9140390625,-10.536736544919014,5.3088627799332135,3.1516227867245674
1772619474631070200,4.9240703125,-9.230387404614687,4.854827218812704,3.976362422545254
1772619474641101000,4.93410107421875,-7.878112379437685,3.930899771270156,3.814208159300685
1772619474651132200,4.944132080078125,-6.543399898958206,2.7130530902832746,2.3601807326108215
1772619474661163000,4.9541630859375,-5.101757906588912,1.4082421193316579,0.7627189407154917
1772619474671193000,4.964193115234375,-3.610898002064228,0.33686697928905485,-0.3012779256440699
1772619474681224200,4.97422412109375,-2.1846914792358874,-0.32203868186101314,-0.9571486030124128
1772619474691255000,4.984255126953125,-0.8502285896033048,-0.6441802395746111,-1.2189848912365733
1772619474701286100,4.9942861328125,0.20486498546302317,-0.8011334270447492,-1.1202017147928476
1772619474711317000,5.00431689453125,1.0091764580219984,-0.8844014928400517,-0.9674382340975105
1772619474721348000,5.01434814453125,1.6368062525510787,-0.9150913762666284,-0.9480587031058967
1772619474731379000,5.02437890625,1.9690426494300364,-1.0164939414285123,-0.9936476111091673
1772619474741410000,5.03441015625,2.0114508815705774,-1.150552137131989,-0.9983799003280699
1772619474751440100,5.044440185546875,1.9325655609041452,-1.2007317339263857,-0.8569245801106095
1772619474761471000,5.054470947265625,1.820202918049693,-1.1374833967223763,-0.5738436976753175
1772619474771502000,5.064502197265625,1.6655074463784694,-1.0044228337541221,-0.07529109556674957
1772619474781533000,5.074532958984375,1.4435820205211638,-0.987137498562783,0.35990780926719307
1772619474791564000,5.08456396484375,1.3374679166674612,-1.0561021675869822,0.737962392860651
1772619474801595100,5.09459521484375,1.3015087145358324,-1.1552644064761697,1.1425833502098917
1772619474811625000,5.104625,1.1631599820315837,-1.2562192278705537,1.3792014644168316
1772619474821656000,5.114656005859375,0.9357657693743705,-1.3733163519009948,1.3573710331417619
1772619474831687200,5.124687255859375,0.7536147200226784,-1.452479904986918,1.0976599203780293
1772619474841718300,5.13471826171875,0.5383510901421308,-1.517334508343786,0.6845194103561342
1772619474851749000,5.1447490234375,0.09326163654327392,-1.5186867997355757,0.19278350252509116
1772619474861780200,5.1547802734375,-0.4558569313287735,-1.3728538489557802,-0.19246420744284987
1772619474871811000,5.16481103515625,-0.9675567459106444,-1.0960625681839882,-0.3776591545350849
1772619474881841200,5.174841064453125,-1.3098212003290652,-0.666272390525788,-0.37782983492687344
1772619474891872300,5.184872314453125,-1.2305933498352766,-0.17939429798945783,-0.2838252710618078
1772619474901903000,5.194903076171875,-0.8047942876398563,0.28080343902260063,-0.0944260772127658
1772619474911934200,5.204934326171875,-0.13864800771176813,0.6139204181283712,0.010079495465755463
1772619474921965000,5.214965087890625,0.8181786698698997,0.8308252393446862,0.039577538759261364
1772619474931996200,5.22499609375,2.053715321326256,0.8381571896679699,-0.006284487096965313
1772619474942027000,5.235027099609375,3.382991748231649,0.7178861117765307,-0.055453153283149
1772619474952057000,5.24505712890625,4.473078895267844,0.4734776359543204,-0.2956602318927645
1772619474962088200,5.255088134765625,5.225827938371896,0.16176979397162794,-0.6208139770343899
1772619474972119000,5.265119140625,5.456371554970741,-0.20067761677578091,-0.880042128586769
1772619474982150100,5.275150146484375,4.98628093110621,-0.4625172660008073,-1.0805345980539918
1772619474992181000,5.285180908203125,3.8931671297252177,-0.5464066785648465,-1.3159610182583332
1772619475002212000,5.295212158203125,2.520236270010471,-0.4061084194280207,-1.5434088607989251
1772619475012243000,5.305242919921875,1.0813614042669535,-0.16075447944924234,-1.4649479030244053
1772619475022273000,5.31527294921875,-0.3367559201300144,0.08935366931930183,-1.216086758642271
1772619475032304000,5.32530419921875,-1.4762877738147973,0.3367417454741895,-0.9417498852852731
1772619475042335000,5.3353349609375,-2.342773670735955,0.4470771202847361,-0.44888183161914347
1772619475052366000,5.345365966796875,-2.8865865334153176,0.3276202813856304,0.2240383994232863
1772619475062397000,5.35539697265625,-3.1312995451420544,-0.09789908708557486,0.9995002826601266
1772619475072428000,5.365427978515625,-3.3871874463558194,-0.5553437259972095,1.4545938284009694
1772619475082459100,5.375459228515625,-4.126687716308236,-0.9620958501562475,1.2421755049489438
1772619475092490200,5.385490234375,-5.386415390691161,-1.2610055853642523,0.8796491837464272
1772619475102520000,5.39552001953125,-6.850901083031296,-1.4573992412105201,0.5260860673308372
1772619475112551200,5.40555126953125,-8.278282494857907,-1.629312097403407,0.2278884259149432
1772619475122582300,5.415582275390625,-9.135420133197307,-1.7328816313408315,-0.04244476475864649
1772619475132613000,5.425613037109375,-9.350852105382085,-1.793439998808503,-0.028532449664361772
1772619475142644200,5.435644287109375,-9.128956490141153,-1.8074694009438157,0.22372330559212714
1772619475152675000,5.445675048828125,-8.46884539872408,-1.869937255294621,0.5466067311815918
1772619475162706200,5.4557060546875,-7.20826782951355,-1.8412001133710145,0.7311743401557207
1772619475172736300,5.465736328125,-5.590085613411665,-1.8720315972253678,0.7462944601371884
1772619475182767000,5.47576708984375,-3.866227100351453,-2.0113240403205155,0.5772170100333168
1772619475192798200,5.485798095703125,-2.4872850175231696,-2.1148709240347148,0.35840920473989096
1772619475202829000,5.4958291015625,-2.0374159284323454,-1.9535855525791643,0.31210400169342756
1772619475212860200,5.505860107421875,-2.3553537508457896,-1.3912149966850875,0.14668659020075572
1772619475222891000,5.51589111328125,-2.573710670566559,-0.5473157562337816,-0.2525534595614299
1772619475232922000,5.525922119140625,-2.387663198298216,0.24193185657560823,-0.31927276081163436
1772619475242952200,5.5359521484375,-1.646317008218169,0.8619839093267917,-0.09773363999132997
1772619475252983000,5.545983154296875,-0.4498381094306707,1.4315651272520422,0.0998862057821825
1772619475263014100,5.55601416015625,0.9327858767807483,1.8990616429701446,0.31407727452777323
1772619475273045000,5.566044921875,2.2609768465369937,2.3181810812711716,0.5007067479351535
1772619475283076000,5.576076171875,3.46257031185925,2.5473902343958614,0.6720198481366038
1772619475293107000,5.58610693359375,4.717703059667349,2.69548382358402,0.7038713957536965
1772619475303138000,5.596137939453125,5.930863044142723,2.767989672346413,0.6342767582628875
1772619475313168100,5.606168212890625,7.197621347814798,2.7069123955711722,0.6141121413081884
1772619475323199000,5.616198974609375,7.78873196824193,2.358923426026106,0.5901960628654808
1772619475333230000,5.62622998046875,7.298639005312324,1.8149831375747918,-0.04307929980251938
1772619475343261000,5.636260986328125,7.189723872563243,2.040804986348748,0.11970861256993374
1772619475353292000,5.6462919921875,6.982691479933261,2.2473072176247832,0.4314073670638725
1772619475363323100,5.6563232421875,6.527749325361848,1.9822820702314377,0.43071719284262505
1772619475373354200,5.666354248046875,6.227734697651862,1.9320818690404296,0.2441426279602572
1772619475383384000,5.676384033203125,6.1285232127934695,2.014782656341791,0.15572123452238737
1772619475393415200,5.686415283203125,6.172154264727235,2.0931413227856157,0.14606370906205848
1772619475403446300,5.6964462890625,6.424585303485393,2.1983333433583376,0.08193385804947464
1772619475413477000,5.70647705078125,6.688168435376882,2.265778986121714,0.11132475117407739
1772619475423508200,5.71650830078125,6.547845187929272,2.489728903543949,0.3725672747561708
1772619475433539000,5.7265390625,6.657469345730543,2.656007553242147,0.3746262896452099
1772619475443569200,5.736569091796875,6.350913333553075,2.7316747886449098,0.21842603943422437
1772619475453600300,5.746600341796875,6.1906204802662135,2.868741080123186,0.24272782925888894
1772619475463631000,5.756631103515625,5.983708499145507,2.8431451588347554,0.44956557609960435
1772619475473662200,5.766662109375,5.352891891273856,2.627144154590368,0.5921945432063191
1772619475483693000,5.776693115234375,4.508974384513497,2.4444492076203224,0.6638397565513849
1772619475493724200,5.78672412109375,3.322043066272139,2.1464739767834544,0.6789563694015145
1772619475503755000,5.796755126953125,1.7194243300050496,1.5906664326667785,0.8476359427615999
1772619475513785000,5.80678515625,-0.013994623082876205,0.9276748173773288,1.3245156422443687
1772619475523816200,5.816816162109375,-1.567576648980379,-0.18364976347684858,2.416669220291078
1772619475533847000,5.826846923828125,-2.9935534547060727,-1.9898519209638237,4.556421779865026
1772619475543878100,5.836878173828125,-2.9977777944028374,-2.7738056651487946,5.2309278918594115
1772619475553909000,5.846908935546875,-0.20080080476403236,-1.909706663364172,1.6084735997751354
1772619475563940000,5.856940185546875,2.6549294026166197,-2.5888769677773116,-1.2475674271203576
1772619475573971000,5.866970947265625,2.9752462291210886,-3.8446903913259503,-2.5615824258774516
1772619475584000800,5.877000732421875,-0.25624445956647396,-3.602276011930406,-3.099915980362892
1772619475594031900,5.887031982421875,-5.243582206249236,-1.2297002003878355,-3.3605507838428017
1772619475604062700,5.897062744140625,-9.77873031193912,1.4320575869441032,-3.2832334431454537
1772619475614093800,5.90709375,-12.439847463279962,2.9170792868345976,-1.4623958804540336
1772619475624124700,5.917124755859375,-12.365782694637774,3.5515880272224543,1.0125729685924947
1772619475634155800,5.92715576171875,-10.202425095331668,3.998460857106745,2.0028971343673763
1772619475644186600,5.9371865234375,-6.843183055999875,3.9993586827293037,2.055548089711368
1772619475654216700,5.947216796875,-3.407833928543329,3.139260148757696,1.6479085151933133
1772619475664247800,5.957247802734375,-0.5090186126738786,1.4573539407640694,0.8143501245576887
1772619475674278700,5.967278564453125,1.9700544568210838,-0.401878965164721,0.33908523986041544
1772619475684309800,5.977309814453125,3.047708823263645,-1.776235473768413,-0.08707922158129512
1772619475694340600,5.987340576171875,2.3376591042011974,-1.9414391877114772,-1.0837722648009658
1772619475704371700,5.997371826171875,0.4737783724665641,-1.142349833714962,-1.7028103182040153
1772619475714402600,6.007402587890625,-1.5652724636912345,-0.24528029022067785,-1.6900741707496345
1772619475724432600,6.0174326171875,-3.034873891609907,0.5158930284880101,-1.583606285022199
1772619475734463700,6.027463623046875,-3.621156945750117,0.9960055724121629,-1.1312064353447406
1772619475744494600,6.03749462890625,-3.3763545021742583,1.1085581848807633,-0.6955800258137286
1772619475754525700,6.047525634765625,-2.516338093528151,0.8415576457612216,-0.5182589173691347
1772619475764556500,6.057556640625,-1.2961767058581113,0.3313460239104926,-0.6963814053244889
1772619475774587600,6.067587646484375,0.12286357860267162,-0.4735352113604545,-1.01330676275976
1772619475784618500,6.077618408203125,1.3596043451517819,-1.361693134124577,-1.1719585708413272
1772619475794648600,6.087648681640625,2.1896768664330244,-2.0589690040707587,-1.253998483081162
1772619475804679700,6.0976796875,2.6487603585928676,-2.4207087049402296,-1.094330629824847
1772619475814710500,6.10771044921875,2.750553676638007,-2.306826597433537,-0.725165601260215
1772619475824742000,6.117741943359375,2.562183898901939,-1.8980019047841428,-0.3466724070537835
1772619475834772700,6.127772705078125,2.1950439464241267,-1.3520185661979018,-0.01647387267798185
1772619475844803800,6.137803955078125,1.7297814733684063,-0.8500520639926195,0.14882957531251012
1772619475854834700,6.147834716796875,1.2026947045624254,-0.5398519962243735,-0.02551891052946448
1772619475864865800,6.15786572265625,0.6935106721937656,-0.3800722070261836,-0.4055365378241986
1772619475874896000,6.167895751953125,0.2830804440438747,-0.3434641855970025,-0.9047614862363785
1772619475884926700,6.1779267578125,0.029653379985690113,-0.3499780975356698,-1.4361960019230842
1772619475894957800,6.187957763671875,-0.039864392876625056,-0.3260796278148889,-1.8131192433990537
1772619475904988700,6.19798876953125,0.013498363998532294,-0.16650529806092382,-1.9495305780999361
1772619475915019800,6.208019775390625,0.17403204030394553,0.073684537152946,-1.925613257548213
1772619475925050600,6.218050537109375,0.462661350646615,0.4015139312446117,-1.8079247434958814
1772619475935081700,6.228081787109375,0.8585948514103889,0.6331546954303979,-1.7070096695899963
1772619475945111800,6.23811181640625,1.324439508268237,0.7583816421635449,-1.6877964350759982
1772619475955142700,6.248142578125,1.762134175440669,0.8035038094379008,-1.5758632696799932
1772619475965173800,6.258173828125,2.093130216869712,0.7817579877063632,-1.32061088989079
1772619475975204600,6.26820458984375,2.099058437874913,0.6106937111668288,-1.0595596145644783
1772619475985235700,6.278235595703125,1.862645052459836,0.4047825776517391,-0.880219238719344
1772619475995266600,6.2882666015625,1.4202771327793597,0.16326295513883232,-0.7960732210457324
1772619476005297700,6.298297607421875,0.6594184329777956,-0.1730865761473775,-0.7169963233299553
1772619476015327700,6.30832763671875,-0.6301935075372457,-0.551857052925229,-0.5225128850191831
1772619476025358600,6.318358642578125,-2.55119780998528,-0.9696195236593484,-0.1590852310627699
1772619476035389700,6.3283896484375,-4.803371172341704,-1.293031101308763,0.4308126525737345
1772619476045420500,6.338420654296875,-7.032733567953109,-1.4306158637031912,1.0242131375037133
1772619476055451600,6.34845166015625,-8.743966992717981,-1.4734164561621843,1.36012077024132
1772619476065482500,6.358482421875,-9.519255784410237,-1.5887266967758535,1.458809400269389
1772619476075513900,6.368513916015625,-9.566924713557958,-1.9938558959081767,1.5666333767808973
1772619476085543700,6.378543701171875,-8.960149491009116,-2.5617192039996386,1.7035267959102987
1772619476095574500,6.388574462890625,-7.942664638847112,-3.0236136619269844,1.7737386885166166
1772619476105606000,6.39860595703125,-6.7049453826546666,-3.2927281244605777,1.7484020026862621
1772619476115636700,6.40863671875,-5.514610393449664,-3.49845294162333,1.633466440603882
1772619476125667800,6.418667724609375,-4.684262562358379,-3.6773213160425424,1.375351218729466
1772619476135698700,6.42869873046875,-4.2081051858007905,-3.80433266197443,0.9923415700118988
1772619476145729800,6.438729736328125,-3.9914159070312976,-3.704332657086849,0.6419209894057363
1772619476155759900,6.448759765625,-3.9461277355402706,-3.106346890193224,0.6645384063400328
1772619476165790700,6.458790771484375,-3.6655502142280336,-2.1339660851269957,0.9539665389101952
1772619476175821800,6.46882177734375,-2.960598110565543,-1.12216483155936,1.2845911897435784
1772619476185852700,6.478852783203125,-1.8126164084434508,-0.29087928122654555,1.4490452543631196
1772619476195883800,6.4888837890625,-0.6607406214922666,0.2070841228172183,1.4073207667030394
1772619476205914600,6.49891455078125,0.09032558309137821,0.3461686222501099,0.9852828106068074
1772619476215945700,6.50894580078125,0.7150888822734356,0.38975612730309367,0.3090970018971711
1772619476225975800,6.518975830078125,1.4669681568056343,0.4583798739351332,-0.3147982092134654
1772619476236006700,6.529006591796875,2.351060437566042,0.6231859668627381,-0.6981533834330738
1772619476246037800,6.539037841796875,3.262759102654457,0.8742636913158,-0.9391345151551067
1772619476256068600,6.549068603515625,4.103759845185279,1.2137825002878904,-0.9951122768342494
1772619476266099700,6.559099609375,4.743776827600598,1.5822034324869512,-0.9161141434431076
1772619476276130600,6.569130615234375,5.136812268835306,1.8629406744055448,-0.7315081021547317
1772619476286161700,6.57916162109375,5.33498038700819,2.0741442152403295,-0.46708019000217316
1772619476296191700,6.589191650390625,5.539377170437574,2.2609508353129026,-0.16353431942611932
1772619476306222600,6.59922265625,5.907083524626493,2.4538410130828616,-0.06916779038086533
1772619476316253700,6.609253662109375,6.430774221253395,2.6101068028107286,-0.04972396198138594
1772619476326284500,6.619284423828125,7.043322181984782,2.7136402425214645,-0.07060337614193558
1772619476336315600,6.629315673828125,7.717001195505261,2.618546422114968,-0.13633593137711286
1772619476346346500,6.639346435546875,8.394024258756637,2.3402663640901444,-0.23066731604374943
1772619476356377900,6.6493779296875,8.765782518684864,2.1363319374755023,-0.2987291179440915
1772619476366408700,6.65940869140625,8.639151696503163,2.0113541431978343,-0.4457037130396813
1772619476376438500,6.6694384765625,8.128148632013797,1.9377257201462983,-0.6251553672395647
1772619476386470000,6.679469970703125,7.297423199781775,2.0097104676440356,-0.746168860996142
1772619476396500700,6.689500732421875,6.314267318201065,2.0895809999555346,-0.8328613482821732
1772619476406531800,6.69953173828125,5.3556438203305,2.077620513048768,-0.9192964998062699
1772619476416562700,6.709562744140625,4.764573531913757,2.021127641454339,-0.9340631301749497
1772619476426593800,6.71959375,4.261872431823611,1.954425510534644,-0.8059908039480447
1772619476436624600,6.729624755859375,3.5666754139780994,1.9258061497718095,-0.5039836141813546
1772619476446654700,6.73965478515625,2.835531468960643,1.936256524376571,-0.14663126155063508
1772619476456685800,6.749685791015625,1.828972499960661,1.8105945472270248,0.308412819025293
1772619476466716700,6.759716552734375,0.36862288451194763,1.3947928551718591,1.0860624215647579
1772619476476747800,6.769747802734375,-1.8343097693353891,-0.22623627479374409,3.406795525406301
1772619476486778600,6.779778564453125,-2.7742303203016516,-2.0309753739908336,5.748547159618139
1772619476496809700,6.789809814453125,-0.7141799507349729,-1.5535212356209753,3.436251044732332
1772619476506840800,6.7998408203125,2.7907939170897005,-2.331540913581848,0.5712019875274971
1772619476516870700,6.80987060546875,5.932038517662883,-4.7867400632753965,-0.5409921061702072
1772619476526901800,6.81990185546875,5.951423017090558,-5.5721343616575,-1.6989707400411367
1772619476536932600,6.8299326171875,1.307139998421073,-4.043027728585899,-2.4615520258516073
1772619476546963700,6.839963623046875,-5.188631303399801,-1.3566788130939007,-2.8033985471189022
1772619476556994600,6.84999462890625,-10.43338255342841,0.9695219085037707,-2.5283652159303425
1772619476567025700,6.860025634765625,-13.404323778831959,2.194770682440698,-0.837221808513999
1772619476577056500,6.870056396484375,-13.96037010014057,2.814287897662818,1.1014913152344523
1772619476587086300,6.88008642578125,-12.522168019092081,3.0699978119611737,2.365443913836032
1772619476597117400,6.890117431640625,-9.677658878427744,2.6282591300949454,2.754906318889558
1772619476607148300,6.900148193359375,-6.59889557620883,1.469898949560523,2.453411974015832
1772619476617179600,6.9101796875,-3.995560167229175,0.3550917872875929,1.413378020915389
1772619476627210500,6.92021044921875,-1.9276690210342406,-0.5983978548258543,0.3819759948208928
1772619476637241600,6.93024169921875,-0.4079033400207758,-1.231521570596099,-0.2802088158640079
1772619476647272700,6.940272705078125,0.37016952943205833,-1.411874192223698,-0.6407889166358858
1772619476657302500,6.950302490234375,0.04709375960826873,-1.0675484213612974,-0.6936245078317821
1772619476667333600,6.960333740234375,-0.8807961618244647,-0.3070176383398473,-0.6853280963905155
1772619476677364500,6.970364501953125,-1.6998481073975562,0.2814899599820375,-0.5215423594865948
1772619476687395600,6.9803955078125,-2.1112737763255836,0.541212470922619,-0.2817143250561319
1772619476697426400,6.990426513671875,-1.8173259013086556,0.4818263621047139,-0.16866251262743026
1772619476707457500,7.00045751953125,-1.0668699375778437,0.16996274503841996,-0.12275734174922108
1772619476717488600,7.010488525390625,-0.12493220157027243,-0.23275208642855286,-0.14106880511790512
1772619476727518500,7.0205185546875,0.7483236278772354,-0.570708760650456,-0.15797843886464832
1772619476737549600,7.030549560546875,1.4541986916035412,-0.7611255340442061,-0.06474617454633116
1772619476747580400,7.040580322265625,2.021951817318797,-0.8297479655019938,0.06807404032740741
1772619476757611500,7.050611572265625,2.182297862097621,-0.7500935601592064,0.19322682584580034
1772619476767642600,7.060642578125,1.9165783026993273,-0.48262131187468765,0.2565689422804862
1772619476777673500,7.070673583984375,1.4181307684004305,-0.07531666839942336,0.250731906690076
1772619476787704600,7.08070458984375,0.9442647176504134,0.2873242190934717,0.2623949450202286
1772619476797735400,7.0907353515625,0.6567851618647575,0.5596861391156912,0.2497794282708317
1772619476807765500,7.100765625,0.5565238756924867,0.6953476783625782,0.21052556850798426
1772619476817796400,7.11079638671875,0.7190577859044075,0.6816818488426506,0.024281916080415248
1772619476827827500,7.120827392578125,1.1533587189853192,0.611811463150382,-0.20634119549542665
1772619476837858600,7.130858642578125,1.659036789059639,0.5805155766546726,-0.37609373184926803
1772619476847889400,7.140889404296875,2.112981164765358,0.5770823873355985,-0.6009709932494908
1772619476857920500,7.15092041015625,2.550997903499007,0.6052712477266788,-0.7766727203313261
1772619476867951600,7.16095166015625,2.95168941244483,0.6343129255548119,-0.9396854270361363
1772619476877981400,7.1709814453125,3.215389448714256,0.6916445860609411,-0.973251085094735
1772619476888012300,7.18101220703125,3.2500983585238457,0.7651333083808421,-0.9966883670445531
1772619476898043600,7.191043701171875,3.0437521945923565,0.8213280738115311,-0.9217418471317738
1772619476908074500,7.201074462890625,2.686069221767783,0.876852977156639,-0.7345308840420096
1772619476918105600,7.211105712890625,2.272439320793748,0.9467389988094568,-0.5600940623294561
1772619476928136700,7.22113671875,1.8140110776722431,0.9218003723859787,-0.40040969632975754
1772619476938167600,7.23116748046875,1.344824124649167,0.7413003051117062,-0.24257095819674432
1772619476948197600,7.24119775390625,0.925996070510149,0.3943962081938982,-0.22958638893924652
1772619476958228500,7.251228515625,0.3193576260834932,-0.08298691076636314,-0.13558679351024328
1772619476968259600,7.261259521484375,-0.7186597264975308,-0.6131491414949297,0.010116977931931614
1772619476978290400,7.27129052734375,-2.1511270632863044,-1.1140908306971191,0.3226708422847092
1772619476988321500,7.281321533203125,-3.7827918612956997,-1.5693962656229734,0.7683461329475044
1772619476998352600,7.2913525390625,-5.425317660537361,-2.044286983245611,1.197997486656904
1772619477008383500,7.301383544921875,-6.703423872175812,-2.4529610153779386,1.8631395579785108
1772619477018413600,7.31141357421875,-7.205405425819754,-2.689892287187278,2.4753707078456877
1772619477028444400,7.3214443359375,-6.856091052889823,-2.8846617028325796,2.536951257967949
1772619477038475500,7.3314755859375,-6.30773002538681,-3.2550372762307522,2.2491256652235982
1772619477048506600,7.341506591796875,-6.57015521941483,-3.8118139576405285,2.0214307160541414
1772619477058537500,7.351537353515625,-7.392202255150675,-3.84385160241425,1.700208465142548
1772619477068568600,7.361568603515625,-7.479495338678359,-3.2830627627536653,1.1789606316231191
1772619477078599400,7.371599365234375,-6.397093485447764,-2.6864845245704054,0.8905789393659681
1772619477088629500,7.38162939453125,-4.554114087444543,-2.064949832046032,0.6687543435346335
1772619477098660400,7.391660400390625,-2.504100543245673,-1.4023843332141637,0.30646921067684885
1772619477108691500,7.40169140625,-0.5796259343385696,-0.7804018969222902,0.021692045717686414
1772619477118722600,7.41172265625,0.8764759605377912,-0.21227175458818673,-0.06174085525050759
1772619477128753400,7.42175341796875,1.9039310025721787,0.35571254953444004,-0.10754267535209655
1772619477138784500,7.431784423828125,2.720458398103714,0.9067404581591486,-0.10727890984937548
1772619477148815600,7.441815673828125,3.2941555269151923,1.3721581217765808,0.03933291634842753
1772619477158845400,7.451845458984375,3.4224265175193547,1.6618793190091847,0.048914253033697605
1772619477168876300,7.461876220703125,3.097530546531081,1.9010960714071987,-0.14176087903529405
1772619477178907600,7.47190771484375,2.482383216956258,2.1386095270186662,-0.24999803945757448
1772619477188938500,7.4819384765625,2.025477068835497,2.3809362281307576,-0.4371190592415631
1772619477198969600,7.491969482421875,1.9082897823035716,2.5430454831898213,-0.7231902095340191
1772619477209000700,7.502000732421875,2.1689415369182825,2.631140530750155,-0.8120341757655143
1772619477219031600,7.512031494140625,2.6262504206210373,2.628079097352922,-0.8135668652255088
1772619477229062700,7.522062744140625,3.2913170886188743,2.5496155092298984,-0.9151669257208704
1772619477239092500,7.532092529296875,4.072282756903768,2.4136563022106885,-1.1005805570650846
1772619477249123600,7.54212353515625,5.020583013680577,2.1723522221446037,-1.176400864137709
1772619477259154400,7.552154541015625,6.007514322146773,1.8730378516584634,-1.0960586226612328
1772619477269185500,7.562185546875,6.61840282523334,1.560237684394419,-1.0408882318422197
1772619477279216600,7.572216552734375,6.76417147860527,1.3302411802843213,-1.0815941901095212
1772619477289247500,7.58224755859375,6.548481147745251,1.281260876277089,-1.1961954056710005
1772619477299278600,7.592278564453125,6.120436352449655,1.3825541358456015,-1.2297377559192477
1772619477309308400,7.602308349609375,5.617053699836134,1.6184849984407423,-1.14125327064991
1772619477319339500,7.612339599609375,5.076536371570826,1.8552374065518378,-1.0360340698093176
1772619477329370600,7.62237060546875,4.493234963589907,2.025905523380637,-0.9609251989416777
1772619477339401500,7.6324013671875,3.869262522524595,2.1177195914641023,-0.8614826818063854
1772619477349432600,7.6424326171875,3.3615532388836145,2.213363154707849,-0.6991913481786847
1772619477359463400,7.65246337890625,2.9887691430389878,2.201866485920548,-0.5924019754119217
1772619477369494500,7.66249462890625,2.4187942496210337,1.922232090677321,-0.3507607723459601
1772619477379524400,7.6725244140625,1.6278806032955646,1.4570575881659984,0.13138254675343633
1772619477389555500,7.682555419921875,0.690870971339941,0.9876599150016904,0.7492582783788442
1772619477399586600,7.692586669921875,-0.42559331049025056,0.17330255698561667,2.0150173418805
1772619477409617400,7.702617431640625,-0.8850374526560306,-1.0913833243265747,3.90538802113384
1772619477419648500,7.7126484375,1.5497352873414754,-0.40636955458223817,0.8087898600820451
1772619477429679600,7.7226796875,4.705504087829589,-1.0758894025966526,-3.7429207464173433
1772619477439710700,7.732710693359375,5.1288832294017075,-4.447307032890618,-4.061100268632173
1772619477449740300,7.742740234375,1.3506371948421,-6.013537820219994,-2.5807515289887784
1772619477459771600,7.752771728515625,-4.511633959111571,-2.939376458838582,-2.111685279735923
1772619477469802500,7.762802490234375,-9.33762086788714,0.95842651399374,-2.1574574353516103
1772619477479833600,7.77283349609375,-11.64703938151002,3.027178368671238,-1.2495282057993113
1772619477489864700,7.78286474609375,-11.289152995067834,3.414864850093424,0.12061046591363847
1772619477499895600,7.7928955078125,-8.906347758194803,2.6153251219809053,1.4333379821434615
1772619477509926700,7.8029267578125,-5.389926613682508,1.147704346485436,2.1027558310881256
1772619477519956500,7.81295654296875,-2.8145693449527025,-0.5381739800095557,1.6981712602265178
1772619477529987600,7.822987548828125,-2.335970420461893,-1.7868121051013468,0.615031813436374
1772619477540018400,7.833018310546875,-3.1694261544406412,-2.283722346830368,-0.25232231768667696
1772619477550049500,7.843049560546875,-4.099765222591161,-2.2396096488595005,-0.8996841099068522
1772619477560080600,7.85308056640625,-4.641063472101092,-1.7612112153768538,-1.1386847353361547
1772619477570111500,7.863111572265625,-4.42084835729301,-0.8727849970653653,-0.8184945308860391
1772619477580142300,7.873142333984375,-3.60263227802217,-0.08529080379456282,-0.013973580294847488
1772619477590173200,7.883173095703125,-3.024148499456048,0.7452998961418866,0.3470960392933339
1772619477600203300,7.893203369140625,-2.4303631068617104,1.0914262866854667,0.6982627620916814
1772619477610234400,7.903234375,-1.7379308775544167,0.8323547869995236,0.8093662717305123
1772619477620265200,7.91326513671875,-1.1229390308022498,0.3272089241057634,0.6458527028314769
1772619477630296300,7.92329638671875,-0.4993921216726303,-0.4120882244899869,0.294087283487618
1772619477640327200,7.9333271484375,-0.19936463448107242,-1.1489490858495235,-0.055848363145813346
