time,seconds_elapsed,z,y,x
1772619469786165500,0.07916552734375,-0.04984142631292343,-0.24171777069568634,-0.1682819277048111
1772619469796196400,0.0891962890625,-0.07249507308006287,-0.1331753134727478,-0.2290552705526352
1772619469806227500,0.0992275390625,-0.09237651526927948,-0.058861181139945984,-0.2462962120771408
1772619469816258300,0.10925830078125,-0.10086160898208618,-0.017002949491143227,-0.23177611827850342
1772619469826289400,0.119289306640625,-0.09387843310832977,-0.009753569960594177,-0.1940142661333084
1772619469836319500,0.129319580078125,-0.07618732005357742,-0.02306990884244442,-0.14666911959648132
1772619469846350300,0.139350341796875,-0.05635309964418411,-0.048303067684173584,-0.11495079100131989
1772619469856381400,0.14938134765625,-0.029757970944046974,-0.07559701055288315,-0.09238050132989883
1772619469866412500,0.15941259765625,0.001991701079532504,-0.09364259243011475,-0.08436199277639389
1772619469876443600,0.169443603515625,0.018853506073355675,-0.11217978596687317,-0.10065174847841263
1772619469886474500,0.179474609375,0.03399920463562012,-0.125577911734581,-0.12501327693462372
1772619469896505600,0.189505615234375,0.03809061646461487,-0.12611986696720123,-0.15472136437892914
1772619469906535700,0.19953564453125,0.03161487728357315,-0.11881988495588303,-0.18617276847362518
1772619469916566500,0.20956640625,0.030067577958106995,-0.11221657693386078,-0.20213042199611664
1772619469926597600,0.21959765625,0.031138738617300987,-0.09791746735572815,-0.1935831904411316
1772619469936628500,0.22962841796875,0.03414544835686684,-0.07526275515556335,-0.1604209840297699
1772619469946659600,0.23965966796875,0.037475161254405975,-0.06009664759039879,-0.11159626394510269
1772619469956690400,0.2496904296875,0.045296598225831985,-0.054067254066467285,-0.06389585882425308
1772619469966721500,0.259721435546875,0.05921664088964462,-0.062019944190979004,-0.017399733886122704
1772619469976751600,0.269751708984375,0.07301075011491776,-0.07121104747056961,0.033985693007707596
1772619469986782500,0.279782470703125,0.09238947927951813,-0.07595952600240707,0.0759330615401268
1772619469996813600,0.2898134765625,0.11961231380701065,-0.08469896018505096,0.09837818145751953
1772619470006844400,0.299844482421875,0.13742691278457642,-0.0907234251499176,0.08946143835783005
1772619470016875500,0.30987548828125,0.14238625764846802,-0.07501477003097534,0.06818997114896774
1772619470026906400,0.31990625,0.12760132551193237,-0.039645757526159286,0.024268293753266335
1772619470036937500,0.3299375,0.10850273072719574,0.005501480307430029,-0.02901756577193737
1772619470046967600,0.339967529296875,0.08716928213834763,0.06133878231048584,-0.09824223071336746
1772619470056998400,0.349998291015625,0.07233095169067383,0.11500333994626999,-0.16703647375106812
1772619470067029500,0.360029541015625,0.05013483017683029,0.15715186297893524,-0.2309264987707138
1772619470077060400,0.370060302734375,0.04224149137735367,0.18364685773849487,-0.273702472448349
1772619470087091500,0.380091552734375,0.03865122050046921,0.17813338339328766,-0.27673742175102234
1772619470097122300,0.390122314453125,0.041404128074645996,0.1534416228532791,-0.23146101832389832
1772619470107153400,0.4001533203125,0.04607171192765236,0.13856275379657745,-0.157931849360466
1772619470117183500,0.41018359375,0.04596970975399017,0.1386013776063919,-0.08210339397192001
1772619470127214300,0.42021435546875,0.043838419020175934,0.15338577330112457,-0.0338590182363987
1772619470137245400,0.430245361328125,0.03847694396972656,0.1823713481426239,-0.001330370083451271
1772619470147276500,0.440276611328125,0.03251275792717934,0.2514866590499878,0.008750883862376213
1772619470157307600,0.4503076171875,0.027213867753744125,0.3599262833595276,0.025143705308437347
1772619470167338500,0.46033837890625,0.037205345928668976,0.48528414964675903,0.051796648651361465
1772619470177369600,0.47036962890625,0.06272801756858826,0.5975561141967773,0.07669959962368011
1772619470187399700,0.480399658203125,0.09298498928546906,0.6322686076164246,0.0909651517868042
1772619470197430500,0.490430419921875,0.1133672297000885,0.5343071222305298,0.08517064899206161
1772619470207461600,0.500461669921875,0.11570622771978378,0.31966644525527954,0.06147108972072601
1772619470217492500,0.510492431640625,0.08768870681524277,0.020114369690418243,0.02210770547389984
1772619470227523600,0.520523681640625,0.041751835495233536,-0.3492564857006073,0.009840918704867363
1772619470237554400,0.530554443359375,-0.0029983241111040115,-0.7047216296195984,0.1026395633816719
1772619470247585500,0.54058544921875,-0.02867133542895317,-0.8703832626342773,0.29862627387046814
1772619470257615600,0.55061572265625,-0.04786420613527298,-0.7805767059326172,0.5411281585693359
1772619470267646500,0.560646484375,-0.05859118327498436,-0.4804955720901489,0.7400692701339722
1772619470277677600,0.570677490234375,-0.02309311367571354,-0.06751520931720734,0.8235234022140503
1772619470287708400,0.58070849609375,0.08498386293649673,0.4073837995529175,0.7921389937400818
1772619470297739500,0.590739501953125,0.2528271973133087,0.877467155456543,0.6701356172561646
1772619470307770400,0.600770263671875,0.43631672859191895,1.2418224811553955,0.4729001820087433
1772619470317801500,0.610801513671875,0.6268792152404785,1.4192014932632446,0.2141762226819992
1772619470327831600,0.62083154296875,0.7821736335754395,1.3431901931762695,-0.0738559290766716
1772619470337862400,0.6308623046875,0.8450335264205933,1.0204435586929321,-0.40079009532928467
1772619470347893500,0.6408935546875,0.7767781615257263,0.5145614147186279,-0.7646811604499817
1772619470357924400,0.65092431640625,0.631775975227356,0.01073581911623478,-1.1069144010543823
1772619470367955500,0.66095556640625,0.4614531695842743,-0.32572218775749207,-1.378795862197876
1772619470377986300,0.670986328125,0.31564056873321533,-0.45885762572288513,-1.5696560144424438
1772619470388017400,0.681017333984375,0.21183188259601593,-0.48315128684043884,-1.6969853639602661
1772619470398048500,0.691048583984375,0.15618565678596497,-0.44989240169525146,-1.743997573852539
1772619470408078300,0.701078369140625,0.13605010509490967,-0.3769231140613556,-1.6959391832351685
1772619470418109400,0.711109375,0.12351620197296143,-0.27720025181770325,-1.5704619884490967
1772619470428140500,0.721140625,0.11288786679506302,-0.1859593689441681,-1.4281097650527954
1772619470438171600,0.731171630859375,0.09674777835607529,-0.193269744515419,-1.301395058631897
1772619470448202500,0.741202392578125,0.10807043313980103,-0.4027976393699646,-1.1649333238601685
1772619470458233600,0.751233642578125,0.1628926694393158,-0.7247799038887024,-0.9531758427619934
1772619470468263700,0.761263671875,0.25312572717666626,-1.0156540870666504,-0.6657474637031555
1772619470478294500,0.77129443359375,0.33471885323524475,-1.2184040546417236,-0.35085877776145935
1772619470488325600,0.78132568359375,0.36288440227508545,-1.30525541305542,-0.039670150727033615
1772619470498356500,0.7913564453125,0.3636434078216553,-1.29970383644104,0.2119397073984146
1772619470508387600,0.8013876953125,0.38292670249938965,-1.2499293088912964,0.38405153155326843
1772619470518418400,0.81141845703125,0.41754645109176636,-1.1253098249435425,0.4971410632133484
1772619470528449500,0.821449462890625,0.4544656276702881,-0.8548563718795776,0.5873443484306335
1772619470538480600,0.831480712890625,0.47313812375068665,-0.46056607365608215,0.6496817469596863
1772619470548510500,0.841510498046875,0.459453284740448,-0.016653474420309067,0.6795554757118225
1772619470558541600,0.85154150390625,0.4230443835258484,0.35577520728111267,0.6810652017593384
1772619470568572400,0.861572509765625,0.36732369661331177,0.5868789553642273,0.6383366584777832
1772619470578604500,0.8716044921875,0.2979867160320282,0.6569448709487915,0.5984321236610413
1772619470588635400,0.881635498046875,0.21084721386432648,0.6125519871711731,0.5818801522254944
1772619470598666500,0.89166650390625,0.10924522578716278,0.5279790759086609,0.6139891147613525
1772619470608697300,0.901697265625,0.008761657401919365,0.4793848991394043,0.6962905526161194
1772619470618727400,0.9117275390625,-0.08171604573726654,0.5060389041900635,0.8159069418907166
1772619470628758500,0.921758544921875,-0.16743700206279755,0.6047176718711853,0.9296630620956421
1772619470638789400,0.931789306640625,-0.22262756526470184,0.7302827835083008,1.0061298608779907
1772619470648820500,0.941820556640625,-0.2419629693031311,0.8502190113067627,1.0243241786956787
1772619470658851300,0.951851318359375,-0.2384830117225647,0.9134363532066345,0.9579323530197144
1772619470668882400,0.96188232421875,-0.21149784326553345,0.8846278190612793,0.8388146162033081
1772619470678913300,0.971913330078125,-0.1837647408246994,0.8353404402732849,0.7290931940078735
1772619470688943400,0.981943359375,-0.19332939386367798,0.8001675009727478,0.6492916941642761
1772619470698974500,0.991974365234375,-0.23048874735832214,0.8199449181556702,0.5893250107765198
1772619470709005300,1.00200537109375,-0.10013014078140259,1.061105489730835,0.6942648887634277
1772619470719036400,1.012036376953125,0.5518683791160583,1.177467942237854,0.9137945771217346
1772619470729067300,1.0220673828125,1.078530192375183,1.2442338466644287,0.8714734315872192
1772619470739098400,1.032098388671875,0.9708122611045837,1.4919583797454834,0.2678892910480499
1772619470749129200,1.042129150390625,0.36248648166656494,0.6236643195152283,-1.1625313758850098
1772619470759159300,1.0521591796875,-0.4857873022556305,-1.2895792722702026,-2.4273030757904053
1772619470769190400,1.0621904296875,-1.4565415382385254,-3.3164713382720947,-2.768503427505493
1772619470779221200,1.07222119140625,-2.0137600898742676,-4.479050636291504,-2.2271902561187744
1772619470789252400,1.08225244140625,-1.7874031066894531,-4.130337715148926,-1.0943031311035156
1772619470799283500,1.092283447265625,-0.9040661454200745,-2.279282808303833,0.2546813488006592
1772619470809314600,1.102314453125,-0.14803004264831543,0.29511335492134094,1.4336216449737549
1772619470819345400,1.112345458984375,0.3515073359012604,2.1372900009155273,2.115473747253418
1772619470829375500,1.12237548828125,0.7504239082336426,1.9616429805755615,1.9040242433547974
1772619470839406600,1.132406494140625,1.1461513042449951,0.9394121170043945,1.2007372379302979
1772619470849437400,1.1424375,1.0565909147262573,0.761725902557373,0.8058246374130249
1772619470859468500,1.152468505859375,0.7838611602783203,0.6602184176445007,0.42927229404449463
1772619470869499400,1.16249951171875,0.5540185570716858,0.5237255096435547,0.13745447993278503
1772619470879530500,1.172530517578125,0.30409902334213257,0.19302883744239807,-0.13361084461212158
1772619470889561300,1.182561279296875,0.07026709616184235,-0.18166811764240265,-0.38599151372909546
1772619470899591400,1.19259130859375,-0.06851795315742493,-0.3832071125507355,-0.5759009718894958
1772619470909622500,1.20262255859375,-0.11276723444461823,-0.35855525732040405,-0.6816415786743164
1772619470919653400,1.2126533203125,-0.12258844077587128,-0.15242819488048553,-0.7073213458061218
1772619470929684500,1.2226845703125,-0.13503342866897583,0.11881580948829651,-0.6938924193382263
1772619470939715300,1.23271533203125,-0.1674307882785797,0.3533681333065033,-0.6532339453697205
1772619470949746400,1.242746337890625,-0.18834584951400757,0.5451697111129761,-0.604627251625061
1772619470959777300,1.25277734375,-0.17881307005882263,0.667485237121582,-0.5696737766265869
1772619470969807400,1.262807373046875,-0.14122503995895386,0.6797652840614319,-0.5543178915977478
1772619470979838500,1.27283837890625,-0.08323205262422562,0.5633696913719177,-0.5436093211174011
1772619470989869300,1.282869384765625,-0.022621499374508858,0.35415276885032654,-0.5248650312423706
1772619470999900400,1.292900390625,0.024437887594103813,0.09936308115720749,-0.45138394832611084
1772619471009931300,1.30293115234375,0.05705768242478371,-0.15929922461509705,-0.3151020407676697
1772619471019962400,1.31296240234375,0.06508871167898178,-0.3882703483104706,-0.13689449429512024
1772619471029993200,1.3229931640625,0.06113016605377197,-0.5147256255149841,0.07581043988466263
1772619471040023300,1.333023193359375,0.05246370658278465,-0.48417091369628906,0.28403714299201965
1772619471050054400,1.343054443359375,0.03353318199515343,-0.34810274839401245,0.4542821943759918
1772619471060085200,1.353085205078125,0.00668079499155283,-0.18311458826065063,0.5538322329521179
1772619471070116400,1.363116455078125,-0.02061586268246174,-0.027020039036870003,0.5652595162391663
1772619471080147500,1.3731474609375,-0.05301747843623161,0.11955582350492477,0.5091933608055115
1772619471090178600,1.383178466796875,-0.09103333950042725,0.2561528980731964,0.407227098941803
1772619471100209400,1.39320947265625,-0.12641556560993195,0.34635281562805176,0.28865304589271545
1772619471110239500,1.403239501953125,-0.1620536595582962,0.3974260985851288,0.20037487149238586
1772619471120270600,1.4132705078125,-0.19701458513736725,0.43712958693504333,0.16745314002037048
1772619471130301400,1.423301513671875,-0.22994589805603027,0.4530656635761261,0.1627771556377411
1772619471140332500,1.43333251953125,-0.25231271982192993,0.40248000621795654,0.16035501658916473
1772619471150363400,1.44336328125,-0.26293864846229553,0.30678683519363403,0.1441493034362793
1772619471160394500,1.45339453125,-0.27067700028419495,0.1794389933347702,0.09329517930746078
1772619471170425300,1.46342529296875,-0.27608367800712585,0.007788193877786398,0.012433772906661034
1772619471180455400,1.473455322265625,-0.27409854531288147,-0.2233278453350067,-0.028389822691679
1772619471190486500,1.483486572265625,-0.2620970606803894,-0.476350337266922,-0.01996825821697712
1772619471200517400,1.493517333984375,-0.2260487824678421,-0.6460394859313965,0.04635350778698921
1772619471210548500,1.503548583984375,-0.15452544391155243,-0.6359146237373352,0.15937957167625427
1772619471220579300,1.513579345703125,-0.056151993572711945,-0.44360196590423584,0.29556697607040405
1772619471230610400,1.5236103515625,0.06415364146232605,-0.15112535655498505,0.35672006011009216
1772619471240641300,1.533641357421875,0.21120592951774597,0.11571672558784485,0.3097189962863922
1772619471250671400,1.54367138671875,0.3508133292198181,0.26128092408180237,0.15340456366539001
1772619471260702500,1.553702392578125,0.44066011905670166,0.26406845450401306,-0.09171118587255478
1772619471270733300,1.5637333984375,0.4538029432296753,0.137892946600914,-0.3990854322910309
1772619471280764400,1.573764404296875,0.37500160932540894,-0.032010871917009354,-0.765387237071991
1772619471290795300,1.583795166015625,0.2139228880405426,-0.1571214646100998,-1.1833373308181763
1772619471300826400,1.593826416015625,-0.0035111545585095882,-0.2022247612476349,-1.6876596212387085
1772619471310857200,1.603857177734375,-0.2348080277442932,-0.1674271523952484,-2.210855007171631
1772619471320887300,1.61388720703125,-0.46071118116378784,-0.12341708689928055,-2.6644365787506104
1772619471330918400,1.62391845703125,-0.6424027681350708,-0.06211593747138977,-2.988915205001831
1772619471340949200,1.63394921875,-0.7380973100662231,0.0009953868575394154,-3.1126153469085693
1772619471350980400,1.64398046875,-0.7496137022972107,-0.03528627008199692,-3.0092973709106445
1772619471361011500,1.654011474609375,-0.6338950991630554,-0.30855268239974976,-2.703204870223999
1772619471371042600,1.66404248046875,-0.4264319837093353,-0.697054386138916,-2.2340807914733887
1772619471381073400,1.674073486328125,-0.20042867958545685,-1.0134176015853882,-1.6195231676101685
1772619471391103500,1.684103515625,-0.011563390493392944,-1.2132796049118042,-0.9404675364494324
1772619471401134600,1.694134521484375,0.08932913839817047,-1.2274712324142456,-0.30547651648521423
1772619471411165400,1.70416552734375,0.11109399050474167,-1.0376046895980835,0.2450302243232727
1772619471421196500,1.714196533203125,0.09978035092353821,-0.7137461304664612,0.6822083592414856
1772619471431227400,1.724227294921875,0.10360457748174667,-0.371612012386322,0.9831465482711792
1772619471441258500,1.734258544921875,0.12709099054336548,-0.08007070422172546,1.1390661001205444
1772619471451289300,1.744289306640625,0.1772223562002182,0.13013339042663574,1.1911250352859497
1772619471461319400,1.7543193359375,0.2558801472187042,0.2676962912082672,1.1864913702011108
1772619471471350500,1.7643505859375,0.3402520418167114,0.40534648299217224,1.166151762008667
1772619471481381400,1.77438134765625,0.4102897047996521,0.6178313493728638,1.1692430973052979
1772619471491412500,1.78441259765625,0.44859614968299866,0.8185237050056458,1.2012735605239868
1772619471501443300,1.794443359375,0.445387065410614,0.9076825976371765,1.2355180978775024
1772619471511474400,1.804474365234375,0.4333852529525757,0.8780030012130737,1.2689430713653564
1772619471521505300,1.81450537109375,0.4116818308830261,0.7682480216026306,1.306240439414978
1772619471531535400,1.824535400390625,0.3551408052444458,0.6278737783432007,1.3443574905395508
1772619471541566500,1.83456640625,0.26690495014190674,0.49718743562698364,1.3965407609939575
1772619471551597300,1.844597412109375,0.14390262961387634,0.38487863540649414,1.4598333835601807
1772619471561628400,1.85462841796875,0.00398920476436615,0.2998361587524414,1.5246427059173584
1772619471571659300,1.8646591796875,-0.11981812864542007,0.27172595262527466,1.5467026233673096
1772619471581689900,1.87468994140625,-0.1951453685760498,0.3138531446456909,1.513207197189331
1772619471591720700,1.884720703125,-0.22934608161449432,0.38622820377349854,1.4201688766479492
1772619471601750500,1.89475048828125,-0.23688548803329468,0.41732192039489746,1.2763997316360474
1772619471611782000,1.904781982421875,-0.2078859508037567,0.4114075005054474,1.1161168813705444
1772619471621812700,1.914812744140625,-0.1362900733947754,0.38434526324272156,0.9796624183654785
1772619471631843800,1.92484375,-0.055953554809093475,0.34932538866996765,0.8478625416755676
1772619471641874700,1.934874755859375,0.026056092232465744,0.31498658657073975,0.7368696928024292
1772619471651905800,1.94490576171875,0.12070604413747787,0.3108958601951599,0.6410287022590637
1772619471661936600,1.9549365234375,0.13878357410430908,0.3066590428352356,0.482633501291275
1772619471671966700,1.964966796875,0.0031066688243299723,0.21653419733047485,0.15817013382911682
1772619471681997800,1.974997802734375,-0.30999478697776794,-0.17261888086795807,-0.4007493555545807
1772619471692028700,1.985028564453125,-0.8098659515380859,-0.8171054720878601,-1.0643558502197266
1772619471702059800,1.995059814453125,-1.2753897905349731,-1.2692984342575073,-1.6423406600952148
1772619471712090600,2.005090576171875,-1.4758799076080322,-1.2610054016113281,-1.9574846029281616
1772619471722121700,2.015121826171875,-1.4642168283462524,-0.8986353874206543,-1.9274442195892334
1772619471732152600,2.025152587890625,-1.2714157104492188,-0.3376862406730652,-1.6460458040237427
1772619471742182700,2.0351826171875,-0.9230607748031616,0.19908292591571808,-1.284914255142212
1772619471752213800,2.0452138671875,-0.5053724646568298,0.5704119205474854,-0.9438987970352173
1772619471762244600,2.05524462890625,-0.10944590717554092,0.779274582862854,-0.6535282135009766
1772619471772275700,2.065275634765625,0.23387031257152557,0.9015849828720093,-0.40555503964424133
1772619471782306600,2.075306640625,0.46533840894699097,0.9778821468353271,-0.20286397635936737
1772619471792337700,2.085337646484375,0.5674518942832947,0.9280758500099182,-0.10271655023097992
1772619471802368800,2.09536865234375,0.5680751204490662,0.7007729411125183,-0.14253933727741241
1772619471812398600,2.105398681640625,0.5041429996490479,0.33664700388908386,-0.2881667912006378
1772619471822429700,2.1154296875,0.40940341353416443,-0.03684534877538681,-0.48947885632514954
1772619471832460500,2.12546044921875,0.3087465465068817,-0.3382628560066223,-0.6449745893478394
1772619471842491600,2.13549169921875,0.20925883948802948,-0.516575813293457,-0.7003941535949707
1772619471852522500,2.1455224609375,0.1460740715265274,-0.5497777462005615,-0.6584959030151367
1772619471862553900,2.155553955078125,0.12595708668231964,-0.47564223408699036,-0.5586361289024353
1772619471872584700,2.165584716796875,0.14225150644779205,-0.3564419150352478,-0.44740307331085205
1772619471882614500,2.175614501953125,0.1910185068845749,-0.19530203938484192,-0.3481750190258026
1772619471892646000,2.18564599609375,0.26558318734169006,-0.02142982929944992,-0.27990445494651794
1772619471902676700,2.1956767578125,0.3377905488014221,0.1393052637577057,-0.24939101934432983
1772619471912707800,2.205707763671875,0.3960018455982208,0.25960540771484375,-0.2448337823152542
1772619471922738700,2.21573876953125,0.43381819128990173,0.3367958068847656,-0.24984291195869446
1772619471932769800,2.225769775390625,0.4638596177101135,0.38196367025375366,-0.2635591924190521
1772619471942800600,2.235800537109375,0.49655818939208984,0.42018216848373413,-0.28318455815315247
1772619471952830700,2.245830810546875,0.5329311490058899,0.41922464966773987,-0.28983426094055176
1772619471962861800,2.25586181640625,0.5605193972587585,0.3749469220638275,-0.2831771671772003
1772619471972892700,2.265892578125,0.5752358436584473,0.2992252707481384,-0.2626670002937317
1772619471982923800,2.275923828125,0.5691713094711304,0.20255836844444275,-0.23091094195842743
1772619471992954600,2.28595458984375,0.512458860874176,0.060120947659015656,-0.2087329775094986
1772619472002985700,2.29598583984375,0.4197518229484558,-0.13406264781951904,-0.20580323040485382
1772619472013015800,2.306015869140625,0.28274720907211304,-0.3867844045162201,-0.23403450846672058
1772619472023046700,2.316046630859375,0.12698636949062347,-0.720435619354248,-0.28097379207611084
1772619472033077800,2.326077880859375,-0.01933232881128788,-1.0680103302001953,-0.30086103081703186
1772619472043108600,2.336108642578125,-0.1274082064628601,-1.3380714654922485,-0.24767717719078064
1772619472053139700,2.3461396484375,-0.1926918625831604,-1.46976637840271,-0.11001864820718765
1772619472063170600,2.356170654296875,-0.20226512849330902,-1.4138615131378174,0.07970201969146729
1772619472073201700,2.36620166015625,-0.165630504488945,-1.1408194303512573,0.2599101960659027
1772619472083232800,2.376232666015625,-0.0901075229048729,-0.6707795262336731,0.41863006353378296
1772619472093262600,2.3862626953125,-0.014500688761472702,-0.1351892650127411,0.4980015754699707
1772619472103293700,2.396293701171875,0.02053186483681202,0.2215949445962906,0.4609825611114502
1772619472113324500,2.406324462890625,0.011005572974681854,0.266040563583374,0.3248251974582672
1772619472123355600,2.416355712890625,-0.06274773925542831,0.03211597725749016,0.1667967140674591
1772619472133386500,2.426386474609375,-0.18647131323814392,-0.4071222245693207,0.06901594251394272
1772619472143417900,2.43641796875,-0.3189196288585663,-0.8010063767433167,0.0906597152352333
1772619472153448700,2.44644873046875,-0.42502155900001526,-0.8608753085136414,0.19061248004436493
1772619472163478500,2.456478515625,-0.471739798784256,-0.5519837737083435,0.2962808609008789
1772619472173510000,2.466510009765625,-0.4513697922229767,-0.07936441898345947,0.286560982465744
1772619472183540700,2.476540771484375,-0.3735106885433197,0.3211369216442108,0.09222346544265747
1772619472193571800,2.48657177734375,-0.22985418140888214,0.570033073425293,-0.27779313921928406
1772619472203602700,2.496602783203125,-0.0741274356842041,0.6744471192359924,-0.7341761589050293
1772619472213633800,2.5066337890625,0.027707718312740326,0.6416745781898499,-1.2030624151229858
1772619472223663900,2.516663818359375,0.06226063147187233,0.5299765467643738,-1.6313304901123047
1772619472233694700,2.52669482421875,0.047610584646463394,0.4732765555381775,-2.0247976779937744
1772619472243725800,2.536725830078125,0.004933163058012724,0.5065183639526367,-2.3689749240875244
1772619472253756700,2.546756591796875,-0.07148772478103638,0.4945600628852844,-2.575935125350952
1772619472263787800,2.556787841796875,-0.1334376335144043,0.2720015347003937,-2.596463918685913
1772619472273818600,2.566818603515625,-0.1000821590423584,0.038153275847435,-2.34967041015625
1772619472283849700,2.576849609375,0.02802174910902977,-0.19600436091423035,-1.8347033262252808
1772619472293879800,2.5868798828125,0.2222157120704651,-0.4790651500225067,-1.092522144317627
1772619472303910700,2.59691064453125,0.435757040977478,-0.7356641292572021,-0.2226833701133728
1772619472313941800,2.606941650390625,0.6230224370956421,-0.9076560735702515,0.6685817837715149
1772619472323972600,2.61697265625,0.7347449660301208,-0.9362403154373169,1.4690678119659424
1772619472334003700,2.627003662109375,0.7615302205085754,-0.8611611127853394,2.136516571044922
1772619472344034600,2.63703466796875,0.7611635327339172,-0.7454419732093811,2.639035224914551
1772619472354065700,2.647065673828125,0.7692508697509766,-0.6335944533348083,2.9945626258850098
1772619472364096800,2.6570966796875,0.7671597599983215,-0.5398426651954651,3.212709665298462
1772619472374126600,2.667126708984375,0.7449002265930176,-0.44765418767929077,3.320528268814087
1772619472384157700,2.67715771484375,0.696078896522522,-0.32444116473197937,3.3388357162475586
1772619472394188500,2.6871884765625,0.623755931854248,-0.17740656435489655,3.2711336612701416
1772619472404219600,2.6972197265625,0.5400658249855042,-0.009837552905082703,3.1271896362304688
1772619472414250500,2.70725048828125,0.4361930787563324,0.1891344040632248,2.932016372680664
1772619472424281900,2.71728173828125,0.32836195826530457,0.49619367718696594,2.7120566368103027
1772619472434311700,2.727311767578125,0.2497043013572693,0.9018297791481018,2.475923776626587
1772619472444342500,2.737342529296875,0.10727737843990326,1.124929666519165,2.191248893737793
1772619472454374000,2.747373779296875,-0.06571584194898605,1.1314338445663452,1.8969974517822266
1772619472464404700,2.75740478515625,-0.29081714153289795,1.0102053880691528,1.6018744707107544
1772619472474435800,2.767435791015625,-0.5422044992446899,0.7667783498764038,1.300899624824524
1772619472484466700,2.777466796875,-0.727050244808197,0.486920565366745,1.0233572721481323
1772619472494497800,2.787497802734375,-0.8097013831138611,0.27065184712409973,0.8269417881965637
1772619472504528000,2.79752783203125,-0.8131262063980103,0.1540309488773346,0.7002954483032227
1772619472514558700,2.807558837890625,-0.7736042737960815,0.09347899258136749,0.6137559413909912
1772619472524589800,2.81758984375,-0.6971582770347595,0.050771210342645645,0.5378004312515259
1772619472534620700,2.82762060546875,-0.6007641553878784,-0.016297651454806328,0.4503191411495209
1772619472544651800,2.83765185546875,-0.4687435030937195,-0.16154006123542786,0.37009379267692566
1772619472554682600,2.8476826171875,-0.3029669523239136,-0.3490608036518097,0.32279422879219055
1772619472564713700,2.857713623046875,-0.12251860648393631,-0.5243346095085144,0.29117852449417114
1772619472574744600,2.86774462890625,0.08581709116697311,-0.5767002701759338,0.2816384434700012
1772619472584775400,2.877775390625,0.3966156840324402,-0.4512028098106384,0.3365482985973358
1772619472594806500,2.887806640625,0.640953540802002,-0.0988120511174202,0.4079510271549225
1772619472604837400,2.89783740234375,0.6533527374267578,0.24857094883918762,0.16206589341163635
1772619472614868500,2.907868408203125,0.3178458511829376,-0.1380464732646942,-0.7807345390319824
1772619472624899300,2.9178994140625,-0.30296096205711365,-1.04949951171875,-2.1083004474639893
1772619472634930400,2.927930419921875,-1.1579902172088623,-1.6025211811065674,-3.2328248023986816
1772619472644960500,2.93796044921875,-1.8601059913635254,-1.6839356422424316,-3.9509975910186768
1772619472654991400,2.947991455078125,-2.161771297454834,-1.4198030233383179,-4.125168323516846
1772619472665022500,2.9580224609375,-2.0155606269836426,-1.156172752380371,-3.940385341644287
1772619472675053300,2.96805322265625,-1.523966670036316,-0.7156612277030945,-3.4467735290527344
1772619472685084400,2.97808447265625,-0.9256229996681213,-0.05698296055197716,-2.7054336071014404
1772619472695115300,2.988115234375,-0.35773444175720215,0.7214948534965515,-1.9078940153121948
1772619472705146400,2.998146484375,0.10307923704385757,1.4157816171646118,-1.2492802143096924
1772619472715176400,3.008176513671875,0.4367336630821228,1.7627865076065063,-0.8908272385597229
1772619472725207300,3.018207275390625,0.586165189743042,1.6800501346588135,-0.8437822461128235
1772619472735238400,3.02823828125,0.5443413853645325,1.2195589542388916,-1.015690803527832
1772619472745269200,3.038269287109375,0.39560994505882263,0.3971344232559204,-1.2794231176376343
1772619472755300400,3.04830029296875,0.2633518874645233,-0.40193241834640503,-1.4095882177352905
1772619472765331200,3.058331298828125,0.1447288542985916,-0.7831130623817444,-1.2960644960403442
1772619472775362300,3.0683623046875,0.07913366705179214,-0.7841041088104248,-1.0139018297195435
1772619472785392400,3.078392333984375,0.10298734158277512,-0.5196354389190674,-0.632361650466919
1772619472795423200,3.08842333984375,0.19518768787384033,-0.11869481950998306,-0.23790116608142853
1772619472805454300,3.098454345703125,0.2951750159263611,0.26519668102264404,0.07557231932878494
1772619472815485200,3.108485107421875,0.35802212357521057,0.5070367455482483,0.24814994633197784
1772619472825516500,3.1185166015625,0.43158581852912903,0.5832625031471252,0.3179655075073242
1772619472835547400,3.12854736328125,0.46667197346687317,0.6657508015632629,0.35610660910606384
1772619472845578500,3.13857861328125,0.4432814419269562,0.7938991785049438,0.41266387701034546
1772619472855608600,3.148608642578125,0.41291674971580505,0.8680484294891357,0.4579353332519531
1772619472865639400,3.158639404296875,0.3889017105102539,0.8147470951080322,0.44338274002075195
1772619472875670500,3.16867041015625,0.3899056315422058,0.6437047123908997,0.3594794273376465
1772619472885701400,3.178701416015625,0.40355032682418823,0.433044970035553,0.23465308547019958
1772619472895732500,3.188732421875,0.39470425248146057,0.21262739598751068,0.07524628192186356
1772619472905763300,3.198763427734375,0.3469386100769043,-0.04149968922138214,-0.07426890730857849
1772619472915794400,3.20879443359375,0.24282881617546082,-0.29695725440979004,-0.16734543442726135
1772619472925824500,3.218824462890625,0.09008748084306717,-0.5335878729820251,-0.18896524608135223
1772619472935855400,3.22885546875,-0.083587646484375,-0.725379228591919,-0.1659417450428009
1772619472945886500,3.238886474609375,-0.22333383560180664,-0.8626154065132141,-0.09779570996761322
1772619472955917300,3.248917236328125,-0.29363805055618286,-0.9368996024131775,-0.007644633296877146
1772619472965948400,3.258948486328125,-0.308539479970932,-0.9190422892570496,0.077452152967453
1772619472975979300,3.268979248046875,-0.28749343752861023,-0.7789090275764465,0.17154885828495026
1772619472986010400,3.27901025390625,-0.25080546736717224,-0.522445797920227,0.25216513872146606
1772619472996040400,3.28904052734375,-0.19557499885559082,-0.21788612008094788,0.31687310338020325
1772619473006071300,3.2990712890625,-0.1193513348698616,0.04371326416730881,0.3805319666862488
1772619473016102400,3.309102294921875,-0.06903457641601562,0.21290259063243866,0.4693804383277893
1772619473026133200,3.31913330078125,-0.0765572041273117,0.25256210565567017,0.5537374019622803
1772619473036164400,3.329164306640625,-0.12341875582933426,0.13804574310779572,0.613513708114624
1772619473046195200,3.3391953125,-0.1771637499332428,-0.05899568647146225,0.6606023907661438
1772619473056226300,3.349226318359375,-0.2249486893415451,-0.2743304669857025,0.6983222961425781
1772619473066256400,3.35925634765625,-0.2661789655685425,-0.5583145022392273,0.7305252552032471
1772619473076287200,3.369287353515625,-0.30501478910446167,-0.9223749041557312,0.7583591341972351
1772619473086318300,3.379318359375,-0.34203726053237915,-1.3056776523590088,0.7814620137214661
1772619473096349200,3.38934912109375,-0.37471508979797363,-1.6390321254730225,0.848405659198761
1772619473106380500,3.399380615234375,-0.39229753613471985,-1.8320811986923218,0.9841861128807068
1772619473116411400,3.409411376953125,-0.38537660241127014,-1.7764853239059448,1.1648792028427124
1772619473126442500,3.4194423828125,-0.3550088405609131,-1.481119990348816,1.3363749980926514
1772619473136472600,3.42947265625,-0.31881481409072876,-1.048806071281433,1.421768307685852
1772619473146503400,3.43950341796875,-0.2533002495765686,-0.5449175834655762,1.3730745315551758
1772619473156534500,3.449534423828125,-0.16794045269489288,-0.0935080274939537,1.1611262559890747
1772619473166565400,3.4595654296875,-0.09638157486915588,0.22565345466136932,0.8076770901679993
1772619473176596500,3.469596435546875,-0.09375400096178055,0.4127700626850128,0.3365054130554199
1772619473186627300,3.47962744140625,-0.1699124127626419,0.43413046002388,-0.21915170550346375
1772619473196658400,3.489658447265625,-0.29290804266929626,0.3269200026988983,-0.695182204246521
1772619473206688500,3.4996884765625,-0.42064255475997925,0.15492214262485504,-0.9455004334449768
1772619473216719400,3.50971923828125,-0.5108439922332764,-0.030729450285434723,-0.961563766002655
1772619473226750500,3.51975048828125,-0.5379467010498047,-0.21190349757671356,-0.8084533214569092
1772619473236781300,3.52978125,-0.4998152256011963,-0.39848074316978455,-0.5494555234909058
1772619473246812400,3.5398125,-0.40377122163772583,-0.5409848690032959,-0.25571557879447937
1772619473256843300,3.54984326171875,-0.28412604331970215,-0.6270806789398193,0.039712294936180115
1772619473266874400,3.559874267578125,-0.1507916897535324,-0.6445260047912598,0.3058110773563385
1772619473276904400,3.569904541015625,-0.020513441413640976,-0.6080754995346069,0.5071913003921509
1772619473286935300,3.579935302734375,0.08928842097520828,-0.5175541043281555,0.609100878238678
1772619473296966400,3.58996630859375,0.17140543460845947,-0.3714217245578766,0.6077314615249634
1772619473306997200,3.599997314453125,0.2178078293800354,-0.1696755439043045,0.5307072401046753
1772619473317028400,3.6100283203125,0.22201474010944366,0.07593148201704025,0.42884016036987305
1772619473327059200,3.62005908203125,0.21127209067344666,0.3435128629207611,0.3469200134277344
1772619473337090300,3.63009033203125,0.19473116099834442,0.5918768048286438,0.2973797917366028
1772619473347120400,3.640120361328125,0.1857461929321289,0.7865129113197327,0.30173060297966003
1772619473357151200,3.650151123046875,0.18247412145137787,0.916240930557251,0.3310677707195282
1772619473367182300,3.660182373046875,0.1921648383140564,0.9789456129074097,0.3798675239086151
1772619473377213200,3.670213134765625,0.21021419763565063,0.9533624053001404,0.4288124442100525
1772619473387244500,3.68024462890625,0.22727254033088684,0.8408947587013245,0.46079355478286743
1772619473397275400,3.690275390625,0.23663197457790375,0.6845694184303284,0.4641447365283966
1772619473407306500,3.700306396484375,0.23310914635658264,0.5228617787361145,0.444690078496933
1772619473417336600,3.710336669921875,0.21210089325904846,0.36048802733421326,0.4026878774166107
1772619473427367400,3.720367431640625,0.1658756136894226,0.1988983154296875,0.34210440516471863
1772619473437398500,3.7303984375,0.09943533688783646,0.06080543249845505,0.2650461196899414
1772619473447429400,3.740429443359375,0.012608563527464867,-0.04141867160797119,0.17754875123500824
1772619473457460500,3.75046044921875,-0.07895151525735855,-0.0950833186507225,0.10747498273849487
1772619473467491300,3.7604912109375,-0.16388317942619324,-0.16407649219036102,0.09242918342351913
1772619473477522400,3.7705224609375,-0.23502299189567566,-0.24423448741436005,0.17813831567764282
1772619473487552500,3.780552490234375,-0.24241778254508972,-0.24306988716125488,0.3721517324447632
1772619473497583400,3.790583251953125,-0.16570009291172028,-0.10471248626708984,0.5847620964050293
1772619473507614500,3.800614501953125,-0.01746189035475254,0.11652908474206924,0.6840458512306213
1772619473517645300,3.810645263671875,0.2405419647693634,0.402070015668869,0.6572083234786987
1772619473527676400,3.820676513671875,0.5558319687843323,0.6055320501327515,0.5139590501785278
1772619473537707300,3.830707275390625,0.6407912373542786,0.5916840434074402,0.10684294998645782
1772619473547738400,3.84073828125,0.4183847904205322,0.413303941488266,-0.6413913369178772
1772619473557768400,3.8507685546875,-0.04180556908249855,0.006963492836803198,-1.5993670225143433
1772619473567799300,3.86079931640625,-0.637472927570343,-0.6146987080574036,-2.4472079277038574
1772619473577829600,3.87082958984375,-1.1481529474258423,-1.1251791715621948,-2.9188292026519775
1772619473587860500,3.880860595703125,-1.4534194469451904,-1.2689547538757324,-2.875612497329712
1772619473597891600,3.8908916015625,-1.488832950592041,-1.0379079580307007,-2.3482468128204346
1772619473607922400,3.90092236328125,-1.2317057847976685,-0.5903269648551941,-1.555445671081543
1772619473617953500,3.91095361328125,-0.7712422013282776,-0.11795230209827423,-0.7627752423286438
1772619473627983600,3.920983642578125,-0.21925576031208038,0.28946632146835327,-0.17163072526454926
1772619473638014500,3.931014404296875,0.32615798711776733,0.6335177421569824,0.16131365299224854
1772619473648045600,3.941045654296875,0.705449640750885,0.9496623873710632,0.2945697009563446
1772619473658076700,3.95107666015625,0.8408092856407166,1.2346649169921875,0.2539743483066559
1772619473668107800,3.961107666015625,0.780393123626709,1.392059564590454,0.04857378453016281
1772619473678138600,3.971138671875,0.6020285487174988,1.3566713333129883,-0.2825116813182831
1772619473688168700,3.981168701171875,0.3646828234195709,1.1628907918930054,-0.6291253566741943
1772619473698199800,3.99119970703125,0.15745393931865692,0.9107092618942261,-0.8645206689834595
1772619473708230700,4.001230712890625,0.054145388305187225,0.698364794254303,-0.9013013243675232
1772619473718261800,4.01126171875,0.06711868941783905,0.6062885522842407,-0.7525058388710022
1772619473728292600,4.021292724609375,0.17569735646247864,0.5695164203643799,-0.4862491488456726
1772619473738323700,4.03132373046875,0.3408598303794861,0.5487390160560608,-0.17945648729801178
1772619473748354600,4.0413544921875,0.5090924501419067,0.5285360217094421,0.11209388077259064
1772619473758384600,4.051384521484375,0.633843183517456,0.47458088397979736,0.3240047097206116
1772619473768415700,4.061415771484375,0.6811012029647827,0.3849785625934601,0.4169394373893738
1772619473778446600,4.071446533203125,0.6608831882476807,0.27330729365348816,0.41420090198516846
1772619473788477700,4.081477783203125,0.5835039615631104,0.16390782594680786,0.3436524271965027
1772619473798508500,4.091508544921875,0.4658413529396057,0.033644940704107285,0.2392931580543518
1772619473808539600,4.10153955078125,0.3235401213169098,-0.08281242847442627,0.13928453624248505
1772619473818570500,4.111570556640625,0.18281342089176178,-0.1606668382883072,0.05263267830014229
1772619473828600600,4.1216005859375,0.07044079899787903,-0.19075258076190948,-0.021168041974306107
1772619473838631700,4.131631591796875,-0.021309658885002136,-0.1895548403263092,-0.06596928089857101
1772619473848662500,4.14166259765625,-0.08930868655443192,-0.1728389859199524,-0.0666409283876419
1772619473858693600,4.151693603515625,-0.14548121392726898,-0.15744386613368988,-0.02808516100049019
1772619473868724500,4.161724365234375,-0.19182394444942474,-0.16044658422470093,0.028262533247470856
1772619473878755600,4.171755615234375,-0.21848808228969574,-0.16099674999713898,0.1106862723827362
1772619473888786400,4.181786376953125,-0.22626905143260956,-0.14347794651985168,0.18236233294010162
1772619473898817500,4.191817626953125,-0.21015970408916473,-0.09330649673938751,0.22303763031959534
1772619473908847600,4.20184765625,-0.18081459403038025,-0.021944697946310043,0.21442337334156036
1772619473918878500,4.21187841796875,-0.14083971083164215,0.06494733691215515,0.168294295668602
1772619473928909600,4.22190966796875,-0.10819175094366074,0.15460851788520813,0.1203150600194931
1772619473938940700,4.231940673828125,-0.07662766426801682,0.20953558385372162,0.11545658856630325
1772619473948971800,4.2419716796875,-0.04343855008482933,0.24078644812107086,0.1663389503955841
1772619473959002600,4.252002685546875,-0.015042642131447792,0.25461575388908386,0.2669997811317444
1772619473969032700,4.26203271484375,-0.002996897790580988,0.19959697127342224,0.38564226031303406
1772619473979063800,4.272063720703125,0.0037826434709131718,0.05448843911290169,0.5042068362236023
1772619473989094700,4.2820947265625,0.007169918157160282,-0.12300671637058258,0.6072882413864136
1772619473999125800,4.292125732421875,-0.023027516901493073,-0.3171975314617157,0.6600815057754517
1772619474009156600,4.302156494140625,-0.07410295307636261,-0.5656108260154724,0.6396036744117737
1772619474019187700,4.312187744140625,-0.1475747525691986,-0.9432807564735413,0.5517498254776001
1772619474029218600,4.322218505859375,-0.2561691403388977,-1.4503183364868164,0.5080845952033997
1772619474039248600,4.33224853515625,-0.39955446124076843,-1.9919145107269287,0.5598036050796509
1772619474049279700,4.34227978515625,-0.5372318625450134,-2.381249189376831,0.7345807552337646
1772619474059310600,4.352310546875,-0.623453676700592,-2.473646640777588,1.019843339920044
1772619474069341700,4.362341796875,-0.6440934538841248,-2.286081552505493,1.3379446268081665
1772619474079372500,4.37237255859375,-0.5991432666778564,-1.8809973001480103,1.5643575191497803
1772619474089403600,4.382403564453125,-0.47893667221069336,-1.3325016498565674,1.5938161611557007
1772619474099434500,4.3924345703125,-0.28949472308158875,-0.7315970659255981,1.3784087896347046
1772619474109464600,4.402464599609375,-0.06960549205541611,-0.14880581200122833,0.9837700128555298
1772619474119495700,4.41249560546875,0.09872326999902725,0.3737356662750244,0.5084817409515381
1772619474129526500,4.422526611328125,0.19032695889472961,0.7746855020523071,0.0236642025411129
1772619474139557600,4.4325576171875,0.2446063756942749,1.0141856670379639,-0.4293164014816284
1772619474149588500,4.44258837890625,0.28151005506515503,1.045625925064087,-0.8468737006187439
1772619474159619600,4.45261962890625,0.31843656301498413,0.8806627988815308,-1.2121937274932861
1772619474169650400,4.462650390625,0.35532161593437195,0.5414727330207825,-1.4719120264053345
1772619474179680500,4.472680419921875,0.3983800709247589,0.10715469717979431,-1.5732929706573486
1772619474189711600,4.482711669921875,0.458859384059906,-0.306228369474411,-1.4921784400939941
1772619474199742500,4.492742431640625,0.5407512784004211,-0.5968472361564636,-1.2667858600616455
1772619474209773600,4.502773681640625,0.6199344992637634,-0.7420573830604553,-0.9730826020240784
1772619474219804700,4.5128046875,0.6710720658302307,-0.7552812695503235,-0.6651127338409424
1772619474229835800,4.522835693359375,0.6847729682922363,-0.6143667697906494,-0.3809371888637543
1772619474239866600,4.53286669921875,0.6665187478065491,-0.3695160150527954,-0.1599530577659607
1772619474249896700,4.542896728515625,0.6225786805152893,-0.08635036647319794,-0.036972541362047195
1772619474259927800,4.552927734375,0.5576052069664001,0.1629437506198883,-0.005248113069683313
1772619474269958700,4.562958740234375,0.4787418246269226,0.3436424136161804,-0.044960103929042816
1772619474279989800,4.57298974609375,0.4051131308078766,0.42992621660232544,-0.10973610728979111
1772619474290020600,4.5830205078125,0.362227201461792,0.48404166102409363,-0.14840812981128693
1772619474300051700,4.5930517578125,0.3634927570819855,0.5523617267608643,-0.1448066085577011
1772619474310082600,4.60308251953125,0.3898093104362488,0.6488776206970215,-0.08385882526636124
1772619474320112600,4.613112548828125,0.4311247169971466,0.7442000508308411,0.021608568727970123
1772619474330143700,4.623143798828125,0.47626182436943054,0.8674553632736206,0.16665656864643097
1772619474340174600,4.633174560546875,0.5003159642219543,0.9959590435028076,0.33018603920936584
1772619474350205700,4.643205810546875,0.48635566234588623,1.1006436347961426,0.5013889670372009
1772619474360236500,4.653236572265625,0.4270981550216675,1.1622207164764404,0.6575286984443665
1772619474370267600,4.663267578125,0.314567893743515,1.1417527198791504,0.7758976817131042
1772619474380298500,4.673298583984375,0.1664651781320572,1.0166724920272827,0.8416048884391785
1772619474390328600,4.68332861328125,0.011573058553040028,0.7780483961105347,0.8662013411521912
1772619474400359700,4.693359619140625,-0.13626085221767426,0.48684951663017273,0.8580929636955261
1772619474410390500,4.703390625,-0.27506744861602783,0.2585095465183258,0.8380537629127502
1772619474420421600,4.713421630859375,-0.3960476219654083,0.18549442291259766,0.8064247369766235
1772619474430452500,4.723452392578125,-0.47567373514175415,0.29070553183555603,0.7667545676231384
1772619474440483600,4.733483642578125,-0.5221233367919922,0.4597143828868866,0.6919408440589905
1772619474450514400,4.743514404296875,-0.5527875423431396,0.5032613277435303,0.5813384056091309
1772619474460544500,4.75354443359375,-0.5555082559585571,0.3709171712398529,0.4402715265750885
1772619474470575600,4.76357568359375,-0.5182535648345947,0.2561793923377991,0.3504503071308136
1772619474480606500,4.7736064453125,-0.41987475752830505,0.31607601046562195,0.36302340030670166
1772619474490637600,4.783637451171875,-0.21724626421928406,0.6224268674850464,0.5049474835395813
1772619474500668700,4.793668701171875,0.2088955193758011,1.25096595287323,0.7482865452766418
1772619474510699800,4.80369970703125,0.5998353362083435,2.145545482635498,0.9069720506668091
1772619474520730600,4.813730712890625,0.7461749315261841,2.8052210807800293,0.7191279530525208
1772619474530760700,4.8237607421875,0.5345633625984192,2.1766059398651123,-0.138213649392128
1772619474540791800,4.833791748046875,-0.07867936789989471,0.6773245930671692,-1.2467495203018188
1772619474550822700,4.84382275390625,-0.9892785549163818,-0.7354141473770142,-2.1211774349212646
1772619474560853800,4.853853759765625,-1.759589433670044,-1.6283655166625977,-2.585468292236328
1772619474570884600,4.863884521484375,-2.149106502532959,-1.7609789371490479,-2.6055567264556885
1772619474580916200,4.873916259765625,-2.2239317893981934,-1.3314106464385986,-2.3034794330596924
1772619474590947000,4.883947021484375,-2.0276825428009033,-0.6364308595657349,-1.8810596466064453
1772619474600977200,4.89397705078125,-1.5961370468139648,0.10817054659128189,-1.4888486862182617
1772619474611008300,4.90400830078125,-1.0218780040740967,0.6393422484397888,-1.167004942893982
1772619474621039000,4.9140390625,-0.3711651861667633,0.7715916037559509,-0.8899232745170593
1772619474631070200,4.9240703125,0.19927994906902313,0.7010939717292786,-0.5835667848587036
1772619474641101000,4.93410107421875,0.5319910645484924,0.5550261735916138,-0.24458584189414978
1772619474651132200,4.944132080078125,0.6634348630905151,0.33626317977905273,0.06273709982633591
1772619474661163000,4.9541630859375,0.6666610836982727,0.08807763457298279,0.28844061493873596
1772619474671193000,4.964193115234375,0.6031543016433716,-0.12072590738534927,0.44018781185150146
1772619474681224200,4.97422412109375,0.5179873704910278,-0.25865185260772705,0.5250338315963745
1772619474691255000,4.984255126953125,0.4546366035938263,-0.3121209442615509,0.56728595495224
1772619474701286100,4.9942861328125,0.40941092371940613,-0.29721006751060486,0.5550236701965332
1772619474711317000,5.00431689453125,0.347030371427536,-0.24680815637111664,0.49096477031707764
1772619474721348000,5.01434814453125,0.2600795328617096,-0.16989251971244812,0.3882545232772827
1772619474731379000,5.02437890625,0.15703919529914856,-0.06665747612714767,0.26864156126976013
1772619474741410000,5.03441015625,0.043562889099121094,0.07517015188932419,0.14792004227638245
1772619474751440100,5.044440185546875,-0.04889993369579315,0.23287563025951385,0.026008259505033493
1772619474761471000,5.054470947265625,-0.10046131908893585,0.3836337924003601,-0.08970354497432709
1772619474771502000,5.064502197265625,-0.12056099623441696,0.4957296848297119,-0.17395637929439545
1772619474781533000,5.074532958984375,-0.11764191836118698,0.5213772058486938,-0.23986966907978058
1772619474791564000,5.08456396484375,-0.09081988781690598,0.46216583251953125,-0.3012579381465912
1772619474801595100,5.09459521484375,-0.03979625925421715,0.3475581109523773,-0.3434467017650604
1772619474811625000,5.104625,-0.005261984188109636,0.19351130723953247,-0.36279696226119995
1772619474821656000,5.114656005859375,-0.0012800581753253937,-0.01533108577132225,-0.37358570098876953
1772619474831687200,5.124687255859375,-0.03809213265776634,-0.2928497791290283,-0.3755260705947876
1772619474841718300,5.13471826171875,-0.1200287714600563,-0.57911616563797,-0.33454686403274536
1772619474851749000,5.1447490234375,-0.2273552268743515,-0.8047098517417908,-0.2473938763141632
1772619474861780200,5.1547802734375,-0.326175719499588,-0.935585618019104,-0.11792553961277008
1772619474871811000,5.16481103515625,-0.39947202801704407,-0.9559502601623535,0.04963123798370361
1772619474881841200,5.174841064453125,-0.42091408371925354,-0.8206270337104797,0.22593453526496887
1772619474891872300,5.184872314453125,-0.387777715921402,-0.5543913245201111,0.3821539580821991
1772619474901903000,5.194903076171875,-0.3110530972480774,-0.2013973742723465,0.5025508999824524
1772619474911934200,5.204934326171875,-0.21530795097351074,0.18196013569831848,0.568850040435791
1772619474921965000,5.214965087890625,-0.12796014547348022,0.5027424097061157,0.5522015690803528
1772619474931996200,5.22499609375,-0.04689298942685127,0.7130447626113892,0.46262216567993164
1772619474942027000,5.235027099609375,-0.005232665222138166,0.8077319860458374,0.32662153244018555
1772619474952057000,5.24505712890625,-0.02036421373486519,0.7652271389961243,0.16824574768543243
1772619474962088200,5.255088134765625,-0.08955763280391693,0.5462728142738342,0.017391985282301903
1772619474972119000,5.265119140625,-0.20071929693222046,0.18017633259296417,-0.06730186194181442
1772619474982150100,5.275150146484375,-0.34584417939186096,-0.21890665590763092,-0.03604564443230629
1772619474992181000,5.285180908203125,-0.5013676881790161,-0.5853198170661926,0.10894403606653214
1772619475002212000,5.295212158203125,-0.6365048289299011,-0.9005425572395325,0.3493066430091858
1772619475012243000,5.305242919921875,-0.7453306913375854,-1.1304186582565308,0.6591310501098633
1772619475022273000,5.31527294921875,-0.8256880044937134,-1.2104066610336304,0.9733763337135315
1772619475032304000,5.32530419921875,-0.8573015928268433,-1.1619852781295776,1.2101893424987793
1772619475042335000,5.3353349609375,-0.8108404278755188,-1.0604315996170044,1.259894847869873
1772619475052366000,5.345365966796875,-0.6943351030349731,-0.9359014630317688,1.108500599861145
1772619475062397000,5.35539697265625,-0.58486407995224,-0.8103485107421875,0.7986760139465332
1772619475072428000,5.365427978515625,-0.5224587321281433,-0.7249118685722351,0.4559399485588074
1772619475082459100,5.375459228515625,-0.48790091276168823,-0.6769655346870422,0.18699894845485687
1772619475092490200,5.385490234375,-0.47232940793037415,-0.6211608648300171,0.04730815812945366
1772619475102520000,5.39552001953125,-0.46779802441596985,-0.5638495683670044,0.05743412300944328
1772619475112551200,5.40555126953125,-0.47088623046875,-0.4895572066307068,0.15683847665786743
1772619475122582300,5.415582275390625,-0.4389679729938507,-0.39152517914772034,0.2865413427352905
1772619475132613000,5.425613037109375,-0.3645656406879425,-0.32411766052246094,0.4057806432247162
1772619475142644200,5.435644287109375,-0.24134449660778046,-0.2317216694355011,0.5030839443206787
1772619475152675000,5.445675048828125,-0.11133135855197906,-0.1518625169992447,0.5327773690223694
1772619475162706200,5.4557060546875,-0.01766769215464592,-0.16280268132686615,0.4478999078273773
1772619475172736300,5.465736328125,0.010265938937664032,-0.31250855326652527,0.21386636793613434
1772619475182767000,5.47576708984375,-0.02278951182961464,-0.5597583651542664,-0.0954202264547348
1772619475192798200,5.485798095703125,-0.06167219206690788,-0.8398044109344482,-0.30770692229270935
1772619475202829000,5.4958291015625,-0.11088704317808151,-1.0660340785980225,-0.3139292895793915
1772619475212860200,5.505860107421875,-0.15688170492649078,-1.183463215827942,-0.14141079783439636
1772619475222891000,5.51589111328125,-0.16876812279224396,-1.154961109161377,0.14361776411533356
1772619475232922000,5.525922119140625,-0.13414356112480164,-0.9855403304100037,0.4599837064743042
1772619475242952200,5.5359521484375,-0.06485538929700851,-0.7625776529312134,0.758540689945221
1772619475252983000,5.545983154296875,0.0017550606280565262,-0.5199066996574402,1.026787281036377
1772619475263014100,5.55601416015625,0.054408684372901917,-0.281568706035614,1.2786065340042114
1772619475273045000,5.566044921875,0.08653812110424042,-0.09416979551315308,1.4814735651016235
1772619475283076000,5.576076171875,0.10809874534606934,0.07693369686603546,1.590407371520996
1772619475293107000,5.58610693359375,0.1115022599697113,0.18880990147590637,1.5311349630355835
1772619475303138000,5.596137939453125,0.1369004249572754,0.09754299372434616,1.2321275472640991
1772619475313168100,5.606168212890625,0.11799412220716476,0.06752410531044006,0.8754019737243652
1772619475323199000,5.616198974609375,0.04825383424758911,0.23023132979869843,0.5974435210227966
1772619475333230000,5.62622998046875,-0.015850046649575233,0.4786890745162964,0.39637166261672974
1772619475343261000,5.636260986328125,-0.0572744719684124,0.7127174735069275,0.2886720597743988
1772619475353292000,5.6462919921875,-0.09075573831796646,0.8344452381134033,0.26803362369537354
1772619475363323100,5.6563232421875,-0.14446480572223663,0.8761414289474487,0.2896241843700409
1772619475373354200,5.666354248046875,-0.21889668703079224,0.8725280165672302,0.3292754590511322
1772619475383384000,5.676384033203125,-0.28545311093330383,0.7969269156455994,0.33602800965309143
1772619475393415200,5.686415283203125,-0.3474762737751007,0.6850259304046631,0.27209457755088806
1772619475403446300,5.6964462890625,-0.38072633743286133,0.5999564528465271,0.15003198385238647
1772619475413477000,5.70647705078125,-0.35751742124557495,0.5704007148742676,0.0020547802560031414
1772619475423508200,5.71650830078125,-0.3255217969417572,0.5844829678535461,-0.13208505511283875
1772619475433539000,5.7265390625,-0.28363293409347534,0.6723393201828003,-0.2414941042661667
1772619475443569200,5.736569091796875,-0.21679633855819702,0.7572497129440308,-0.3459986448287964
1772619475453600300,5.746600341796875,-0.1245172843337059,0.8411211371421814,-0.428556352853775
1772619475463631000,5.756631103515625,-0.0061681559309363365,0.9101905822753906,-0.4566013813018799
1772619475473662200,5.766662109375,0.11606401205062866,0.9083969593048096,-0.432796448469162
1772619475483693000,5.776693115234375,0.231201633810997,0.8032122254371643,-0.32419872283935547
1772619475493724200,5.78672412109375,0.35139569640159607,0.5834811925888062,-0.10731460899114609
1772619475503755000,5.796755126953125,0.5099273324012756,0.37899497151374817,0.2207358479499817
1772619475513785000,5.80678515625,0.7175710797309875,0.36500540375709534,0.6552513837814331
1772619475523816200,5.816816162109375,1.0354171991348267,0.5113910436630249,1.1887623071670532
1772619475533847000,5.826846923828125,1.3138595819473267,0.48276153206825256,1.5723243951797485
1772619475543878100,5.836878173828125,1.1190712451934814,0.12150748074054718,1.3330718278884888
1772619475553909000,5.846908935546875,0.5965752601623535,-0.8284511566162109,0.38929370045661926
1772619475563940000,5.856940185546875,-0.04286938160657883,-2.164353847503662,-0.8020707964897156
1772619475573971000,5.866970947265625,-0.596194863319397,-3.100773334503174,-1.7175036668777466
1772619475584000800,5.877000732421875,-0.9394170641899109,-3.2431511878967285,-2.1751294136047363
1772619475594031900,5.887031982421875,-1.11598539352417,-2.385103464126587,-2.145756959915161
1772619475604062700,5.897062744140625,-0.9210177659988403,-0.9617968797683716,-1.818184494972229
1772619475614093800,5.90709375,-0.424555242061615,0.6563751697540283,-1.338340401649475
1772619475624124700,5.917124755859375,0.09664563834667206,2.091545820236206,-0.8558927178382874
1772619475634155800,5.92715576171875,0.6005407571792603,2.9863619804382324,-0.4878837764263153
1772619475644186600,5.9371865234375,0.9400377869606018,3.0850563049316406,-0.30770963430404663
1772619475654216700,5.947216796875,1.0619205236434937,2.3049964904785156,-0.3655811846256256
1772619475664247800,5.957247802734375,1.0468906164169312,0.8444924354553223,-0.7071267366409302
1772619475674278700,5.967278564453125,0.8640629649162292,-0.4666379392147064,-1.0498297214508057
1772619475684309800,5.977309814453125,0.6010032296180725,-1.3208162784576416,-1.2914701700210571
1772619475694340600,5.987340576171875,0.42126408219337463,-1.6668144464492798,-1.3789498805999756
1772619475704371700,5.997371826171875,0.3177793025970459,-1.625074863433838,-1.297165870666504
1772619475714402600,6.007402587890625,0.31534382700920105,-1.2099661827087402,-1.1064380407333374
1772619475724432600,6.0174326171875,0.4116724133491516,-0.48455655574798584,-0.8513039350509644
1772619475734463700,6.027463623046875,0.5708732604980469,0.3773441016674042,-0.5726104974746704
1772619475744494600,6.03749462890625,0.7005093097686768,1.141809105873108,-0.3175354599952698
1772619475754525700,6.047525634765625,0.7724066376686096,1.638218641281128,-0.1477738618850708
1772619475764556500,6.057556640625,0.771668016910553,1.7545955181121826,-0.07935748994350433
1772619475774587600,6.067587646484375,0.6771619915962219,1.5586004257202148,-0.07955003529787064
1772619475784618500,6.077618408203125,0.511189877986908,1.199277639389038,-0.11406934261322021
1772619475794648600,6.087648681640625,0.3333522379398346,0.7753581404685974,-0.17020903527736664
1772619475804679700,6.0976796875,0.18930751085281372,0.36449241638183594,-0.2336522340774536
1772619475814710500,6.10771044921875,0.10276622325181961,0.03545568138360977,-0.2972943186759949
1772619475824742000,6.117741943359375,0.07997943460941315,-0.17332756519317627,-0.34679603576660156
1772619475834772700,6.127772705078125,0.10027378797531128,-0.2941405475139618,-0.3740130066871643
1772619475844803800,6.137803955078125,0.12605351209640503,-0.36127373576164246,-0.3687475621700287
1772619475854834700,6.147834716796875,0.13146372139453888,-0.386222779750824,-0.32286104559898376
1772619475864865800,6.15786572265625,0.08726511895656586,-0.36931589245796204,-0.23874026536941528
1772619475874896000,6.167895751953125,-0.00421553198248148,-0.3051377236843109,-0.1309480220079422
1772619475884926700,6.1779267578125,-0.1205844134092331,-0.19986821711063385,-0.015036175958812237
1772619475894957800,6.187957763671875,-0.24278515577316284,-0.043807502835989,0.10141932964324951
1772619475904988700,6.19798876953125,-0.33020856976509094,0.15728478133678436,0.2081000804901123
1772619475915019800,6.208019775390625,-0.382920503616333,0.40226203203201294,0.30538004636764526
1772619475925050600,6.218050537109375,-0.42347991466522217,0.6667964458465576,0.3763977587223053
1772619475935081700,6.228081787109375,-0.450242817401886,0.9027189612388611,0.4151020050048828
1772619475945111800,6.23811181640625,-0.4669812023639679,1.0681873559951782,0.4171608090400696
1772619475955142700,6.248142578125,-0.4721509516239166,1.106434941291809,0.392694354057312
1772619475965173800,6.258173828125,-0.4679029881954193,1.014872431755066,0.3634897768497467
1772619475975204600,6.26820458984375,-0.4716939926147461,0.8379616141319275,0.32104218006134033
1772619475985235700,6.278235595703125,-0.4929054081439972,0.6136956810951233,0.27128130197525024
1772619475995266600,6.2882666015625,-0.5222033858299255,0.3480019271373749,0.20942434668540955
1772619476005297700,6.298297607421875,-0.5717021226882935,-0.018581734970211983,0.18680773675441742
1772619476015327700,6.30832763671875,-0.6362808346748352,-0.48582881689071655,0.2420579344034195
1772619476025358600,6.318358642578125,-0.6746515035629272,-0.9427883625030518,0.40451276302337646
1772619476035389700,6.3283896484375,-0.6644071340560913,-1.200863003730774,0.6659680604934692
1772619476045420500,6.338420654296875,-0.6274763941764832,-1.2162169218063354,0.9447996020317078
1772619476055451600,6.34845166015625,-0.5756741762161255,-1.050294280052185,1.1476187705993652
1772619476065482500,6.358482421875,-0.5100821256637573,-0.8124464154243469,1.1942639350891113
1772619476075513900,6.368513916015625,-0.43190184235572815,-0.5604860782623291,1.0566562414169312
1772619476085543700,6.378543701171875,-0.349012166261673,-0.3141367435455322,0.7731693387031555
1772619476095574500,6.388574462890625,-0.25623881816864014,-0.0911228209733963,0.38139331340789795
1772619476105606000,6.39860595703125,-0.1759641468524933,0.07670746743679047,-0.043315570801496506
1772619476115636700,6.40863671875,-0.13540047407150269,0.1401279866695404,-0.43015649914741516
1772619476125667800,6.418667724609375,-0.1626543402671814,0.08767006546258926,-0.7416290640830994
1772619476135698700,6.42869873046875,-0.2343306541442871,-0.06353303045034409,-0.9542006850242615
1772619476145729800,6.438729736328125,-0.2819964289665222,-0.24037261307239532,-1.0334769487380981
1772619476155759900,6.448759765625,-0.2611452043056488,-0.352450430393219,-1.0035020112991333
1772619476165790700,6.458790771484375,-0.179044708609581,-0.38393890857696533,-0.9034394025802612
1772619476175821800,6.46882177734375,-0.04592688009142876,-0.4040905237197876,-0.776728093624115
1772619476185852700,6.478852783203125,0.08906775712966919,-0.5097579956054688,-0.629052996635437
1772619476195883800,6.4888837890625,0.1833452731370926,-0.6555138826370239,-0.4451278746128082
1772619476205914600,6.49891455078125,0.22358570992946625,-0.7377527356147766,-0.22471413016319275
1772619476215945700,6.50894580078125,0.21625961363315582,-0.7378528714179993,-0.0013255173107609153
1772619476225975800,6.518975830078125,0.18353009223937988,-0.658917248249054,0.16827896237373352
1772619476236006700,6.529006591796875,0.14770233631134033,-0.5014181733131409,0.2869049310684204
1772619476246037800,6.539037841796875,0.12403073161840439,-0.2802659869194031,0.3433741629123688
1772619476256068600,6.549068603515625,0.1277085542678833,-0.04496024176478386,0.375411719083786
1772619476266099700,6.559099609375,0.15115657448768616,0.16749367117881775,0.41956308484077454
1772619476276130600,6.569130615234375,0.1931263953447342,0.32693448662757874,0.5066412687301636
1772619476286161700,6.57916162109375,0.2524299919605255,0.41826945543289185,0.6453986763954163
1772619476296191700,6.589191650390625,0.29911571741104126,0.45839396119117737,0.8071923851966858
1772619476306222600,6.59922265625,0.3376431167125702,0.4516828656196594,0.9552460312843323
1772619476316253700,6.609253662109375,0.358427494764328,0.4119727313518524,1.0631705522537231
1772619476326284500,6.619284423828125,0.3569912612438202,0.3306122422218323,1.0709879398345947
1772619476336315600,6.629315673828125,0.34390103816986084,0.16141709685325623,0.9735346436500549
1772619476346346500,6.639346435546875,0.32158809900283813,-0.07373610138893127,0.7872814536094666
1772619476356377900,6.6493779296875,0.2763596177101135,-0.24923016130924225,0.57893306016922
1772619476366408700,6.65940869140625,0.2129417061805725,-0.29778486490249634,0.41200345754623413
1772619476376438500,6.6694384765625,0.15494631230831146,-0.2547692060470581,0.30385807156562805
1772619476386470000,6.679469970703125,0.10151167958974838,-0.14184366166591644,0.28062617778778076
1772619476396500700,6.689500732421875,0.05029749125242233,0.018453342840075493,0.32831352949142456
1772619476406531800,6.69953173828125,-0.01026733499020338,0.16509059071540833,0.40544143319129944
1772619476416562700,6.709562744140625,-0.060380302369594574,0.1990693360567093,0.49365171790122986
1772619476426593800,6.71959375,-0.08830828964710236,0.06909805536270142,0.5559753775596619
1772619476436624600,6.729624755859375,-0.09878756105899811,-0.1337229609489441,0.5944908261299133
1772619476446654700,6.73965478515625,-0.07095036655664444,-0.32506468892097473,0.6467121839523315
1772619476456685800,6.749685791015625,0.017527835443615913,-0.42439284920692444,0.77273029088974
1772619476466716700,6.759716552734375,0.2629070580005646,-0.18190838396549225,1.1086617708206177
1772619476476747800,6.769747802734375,0.6340861916542053,-0.058411214500665665,1.4743531942367554
1772619476486778600,6.779778564453125,0.6914780139923096,-0.0740213692188263,1.4829614162445068
1772619476496809700,6.789809814453125,0.42173945903778076,-0.14805592596530914,0.8145899772644043
1772619476506840800,6.7998408203125,-0.03308490663766861,-0.7570304274559021,-0.5762935280799866
1772619476516870700,6.80987060546875,-0.5885508060455322,-1.645877718925476,-2.041109561920166
1772619476526901800,6.81990185546875,-1.0273646116256714,-2.202669858932495,-2.923957586288452
1772619476536932600,6.8299326171875,-1.327979326248169,-2.289879083633423,-3.07157039642334
1772619476546963700,6.839963623046875,-1.4259164333343506,-1.807539701461792,-2.631664514541626
1772619476556994600,6.84999462890625,-1.2714858055114746,-0.8801934719085693,-1.8608856201171875
1772619476567025700,6.860025634765625,-0.8654835820198059,0.06484271585941315,-1.0152583122253418
1772619476577056500,6.870056396484375,-0.3527393341064453,0.7692850232124329,-0.31578540802001953
1772619476587086300,6.88008642578125,0.12417574226856232,1.0052913427352905,0.06995994597673416
1772619476597117400,6.890117431640625,0.4603588283061981,0.9162668585777283,0.1829615980386734
1772619476607148300,6.900148193359375,0.5918766856193542,0.7847192883491516,0.11461375653743744
1772619476617179600,6.9101796875,0.5781206488609314,0.6625803709030151,-0.07723451405763626
1772619476627210500,6.92021044921875,0.4783986210823059,0.46460503339767456,-0.3724772334098816
1772619476637241600,6.93024169921875,0.34870800375938416,0.20817166566848755,-0.6608262062072754
1772619476647272700,6.940272705078125,0.26065313816070557,-0.0003241454251110554,-0.8099767565727234
1772619476657302500,6.950302490234375,0.2226106822490692,-0.04131978005170822,-0.7625170946121216
1772619476667333600,6.960333740234375,0.24543435871601105,0.021685658022761345,-0.5629283785820007
1772619476677364500,6.970364501953125,0.30737921595573425,0.17548267543315887,-0.2791941165924072
1772619476687395600,6.9803955078125,0.35882386565208435,0.38913246989250183,-0.007893131114542484
1772619476697426400,6.990426513671875,0.37410083413124084,0.5681169033050537,0.1744718700647354
1772619476707457500,7.00045751953125,0.34970250725746155,0.6831755638122559,0.2450496405363083
1772619476717488600,7.010488525390625,0.2928088903427124,0.7273534536361694,0.2162928283214569
1772619476727518500,7.0205185546875,0.21943186223506927,0.6939305663108826,0.11637428402900696
1772619476737549600,7.030549560546875,0.14712011814117432,0.6002605557441711,-0.02176547795534134
1772619476747580400,7.040580322265625,0.07886640727519989,0.4804157018661499,-0.15898488461971283
1772619476757611500,7.050611572265625,0.02941577322781086,0.3786528408527374,-0.22734582424163818
1772619476767642600,7.060642578125,0.008730216883122921,0.31914225220680237,-0.20726437866687775
1772619476777673500,7.070673583984375,0.01903372071683407,0.2655559778213501,-0.11259406059980392
1772619476787704600,7.08070458984375,0.053147733211517334,0.21559786796569824,0.030135503038764
1772619476797735400,7.0907353515625,0.10056398808956146,0.1932281106710434,0.19741451740264893
1772619476807765500,7.100765625,0.13782986998558044,0.2202518731355667,0.34663450717926025
1772619476817796400,7.11079638671875,0.16014130413532257,0.2614770829677582,0.4486748278141022
1772619476827827500,7.120827392578125,0.15864942967891693,0.28732895851135254,0.5012326240539551
1772619476837858600,7.130858642578125,0.13578006625175476,0.3239426016807556,0.5210364460945129
1772619476847889400,7.140889404296875,0.09586016833782196,0.3705761134624481,0.5017698407173157
1772619476857920500,7.15092041015625,0.04861355945467949,0.3983749747276306,0.4464663863182068
1772619476867951600,7.16095166015625,-0.003455779515206814,0.40273526310920715,0.37395796179771423
1772619476877981400,7.1709814453125,-0.057945385575294495,0.38386011123657227,0.3079938590526581
1772619476888012300,7.18101220703125,-0.10143104940652847,0.3605976998806,0.2664720118045807
1772619476898043600,7.191043701171875,-0.12061619013547897,0.3495618402957916,0.259947806596756
1772619476908074500,7.201074462890625,-0.1277788132429123,0.3396356999874115,0.27354487776756287
1772619476918105600,7.211105712890625,-0.12436942011117935,0.315234512090683,0.31424838304519653
1772619476928136700,7.22113671875,-0.1279100775718689,0.25738632678985596,0.3406284749507904
1772619476938167600,7.23116748046875,-0.15451586246490479,0.14426535367965698,0.33127760887145996
1772619476948197600,7.24119775390625,-0.1970345377922058,-0.027254030108451843,0.2810196876525879
1772619476958228500,7.251228515625,-0.2554861307144165,-0.23234352469444275,0.22730877995491028
1772619476968259600,7.261259521484375,-0.29709193110466003,-0.400199294090271,0.19773922860622406
1772619476978290400,7.27129052734375,-0.3161976933479309,-0.4653250277042389,0.22136066854000092
1772619476988321500,7.281321533203125,-0.2931395173072815,-0.38957926630973816,0.29947853088378906
1772619476998352600,7.2913525390625,-0.19717329740524292,-0.18053391575813293,0.40853044390678406
1772619477008383500,7.301383544921875,-0.0401405468583107,0.058168407529592514,0.48288431763648987
1772619477018413600,7.31141357421875,0.1284436732530594,0.14604127407073975,0.39686793088912964
1772619477028444400,7.3214443359375,0.24715742468833923,0.05136685073375702,0.1600692719221115
1772619477038475500,7.3314755859375,0.3259486258029938,-0.11613825708627701,-0.04561944305896759
1772619477048506600,7.341506591796875,0.4001290500164032,-0.14953477680683136,-0.10162092745304108
1772619477058537500,7.351537353515625,0.4742445647716522,0.06238545477390289,-0.06997191905975342
1772619477068568600,7.361568603515625,0.5608459115028381,0.37443551421165466,-0.07650823891162872
1772619477078599400,7.371599365234375,0.6315602660179138,0.6694543957710266,-0.16806717216968536
1772619477088629500,7.38162939453125,0.6597865223884583,0.8981738090515137,-0.3232201635837555
1772619477098660400,7.391660400390625,0.6610763072967529,1.050957441329956,-0.5116114020347595
1772619477108691500,7.40169140625,0.6546163558959961,1.1207716464996338,-0.6741822957992554
1772619477118722600,7.41172265625,0.6347339749336243,1.0751067399978638,-0.7710001468658447
1772619477128753400,7.42175341796875,0.6150977611541748,0.8594918847084045,-0.7941232919692993
1772619477138784500,7.431784423828125,0.6066848635673523,0.47615915536880493,-0.7503209710121155
1772619477148815600,7.441815673828125,0.5825080871582031,-0.0448094941675663,-0.649090588092804
1772619477158845400,7.451845458984375,0.5506836175918579,-0.5430352687835693,-0.488254576921463
1772619477168876300,7.461876220703125,0.5473889708518982,-0.8392190933227539,-0.2709096372127533
1772619477178907600,7.47190771484375,0.5397483706474304,-0.948657751083374,-0.0264735147356987
1772619477188938500,7.4819384765625,0.514690637588501,-0.8857422471046448,0.19226911664009094
1772619477198969600,7.491969482421875,0.5048004388809204,-0.6757533550262451,0.3500920236110687
1772619477209000700,7.502000732421875,0.5074677467346191,-0.360674649477005,0.4430674612522125
1772619477219031600,7.512031494140625,0.509192168712616,0.002388486173003912,0.47482994198799133
1772619477229062700,7.522062744140625,0.48257502913475037,0.35406962037086487,0.4551895260810852
1772619477239092500,7.532092529296875,0.43574175238609314,0.6429805159568787,0.36115410923957825
1772619477249123600,7.54212353515625,0.37145906686782837,0.8177028298377991,0.20894984900951385
1772619477259154400,7.552154541015625,0.28153663873672485,0.8741280436515808,0.049351662397384644
1772619477269185500,7.562185546875,0.16198670864105225,0.8202607035636902,-0.07803333550691605
1772619477279216600,7.572216552734375,0.03488336503505707,0.710585355758667,-0.13983705639839172
1772619477289247500,7.58224755859375,-0.06544645130634308,0.5683088898658752,-0.12980498373508453
1772619477299278600,7.592278564453125,-0.12991413474082947,0.42991846799850464,-0.047712504863739014
1772619477309308400,7.602308349609375,-0.16408824920654297,0.2904216945171356,0.09277450293302536
1772619477319339500,7.612339599609375,-0.17618326842784882,0.147250697016716,0.28048235177993774
1772619477329370600,7.62237060546875,-0.16645844280719757,0.021206598728895187,0.5052841901779175
1772619477339401500,7.6324013671875,-0.13040243089199066,-0.043086107820272446,0.7200162410736084
1772619477349432600,7.6424326171875,-0.09532046318054199,-0.10584235191345215,0.9080870151519775
1772619477359463400,7.65246337890625,-0.045329198241233826,-0.2110619843006134,1.0569560527801514
1772619477369494500,7.66249462890625,0.02240656316280365,-0.3588634431362152,1.1861599683761597
1772619477379524400,7.6725244140625,0.12584853172302246,-0.46514832973480225,1.3263895511627197
1772619477389555500,7.682555419921875,0.3528061807155609,-0.2359595149755478,1.5330127477645874
1772619477399586600,7.692586669921875,0.7747983932495117,0.05098968744277954,1.7333428859710693
1772619477409617400,7.702617431640625,0.7299171686172485,-0.19158928096294403,1.4840174913406372
1772619477419648500,7.7126484375,0.12179712951183319,-0.7856454849243164,0.6184701919555664
1772619477429679600,7.7226796875,-0.6533528566360474,-1.6424955129623413,-0.5877353549003601
1772619477439710700,7.732710693359375,-1.2733620405197144,-2.3461787700653076,-1.4276059865951538
1772619477449740300,7.742740234375,-1.5725778341293335,-2.54667592048645,-1.5907145738601685
1772619477459771600,7.752771728515625,-1.5461145639419556,-1.9440369606018066,-1.2255027294158936
1772619477469802500,7.762802490234375,-1.2761225700378418,-0.6580782532691956,-0.6229105591773987
1772619477479833600,7.77283349609375,-0.881589949131012,0.6797927021980286,-0.09933868050575256
1772619477489864700,7.78286474609375,-0.4355720579624176,1.403454303741455,0.050874218344688416
1772619477499895600,7.7928955078125,-0.05475575476884842,1.3623673915863037,-0.24193952977657318
1772619477509926700,7.8029267578125,0.13174483180046082,0.9558919668197632,-0.6968645453453064
1772619477519956500,7.81295654296875,0.12185252457857132,0.47998082637786865,-1.012865662574768
1772619477529987600,7.822987548828125,-0.00428471015766263,0.04380025342106819,-1.0656973123550415
1772619477540018400,7.833018310546875,-0.1947622448205948,-0.23458105325698853,-0.9212067127227783
1772619477550049500,7.843049560546875,-0.4159279763698578,-0.24563299119472504,-0.5364266633987427
1772619477560080600,7.85308056640625,-0.5118870139122009,-0.3704116642475128,-0.3360067307949066
1772619477570111500,7.863111572265625,-0.4701966643333435,-0.27781978249549866,-0.2734594941139221
1772619477580142300,7.873142333984375,-0.3250211179256439,-0.05889968201518059,-0.30282190442085266
1772619477590173200,7.883173095703125,-0.14573362469673157,0.18633535504341125,-0.35339075326919556
1772619477600203300,7.893203369140625,0.03708253428339958,0.40159517526626587,-0.4181242287158966
1772619477610234400,7.903234375,0.1473105400800705,0.5023449063301086,-0.4505453407764435
1772619477620265200,7.91326513671875,0.19975616037845612,0.44817405939102173,-0.47654950618743896
1772619477630296300,7.92329638671875,0.16665448248386383,0.4360133409500122,-0.3947586119174957
1772619477640327200,7.9333271484375,0.04569477215409279,0.20072706043720245,-0.20753733813762665
