time,seconds_elapsed,z,y,x
1772785960300160800,0.058160888671875,0.3962643401533365,1.4894859858229756,1.612230321960151
1772785960310177500,0.068177490234375,1.039602575945854,1.0343463359180838,2.1978170643992723
1772785960320193500,0.078193603515625,1.7151830391734837,0.6654287793084979,2.1480513091027738
1772785960330209800,0.088209716796875,1.5017945555150507,0.30168007670417424,1.9210902271658181
1772785960340225800,0.098225830078125,0.8805442328900098,0.05912336622849106,2.541973470044136
1772785960350241500,0.108241455078125,0.36450843493044377,0.4611819257438183,3.3920366399526594
1772785960360257500,0.118257568359375,0.8489379652708768,0.3230851221740246,3.4794106797620654
1772785960370273500,0.1282734375,2.507380880090594,-0.024807108998298643,1.5109887925788759
1772785960380289500,0.13828955078125,1.3588631713956594,0.09666311554983258,1.2078365244302898
1772785960390306800,0.148306884765625,1.0430945097148419,-0.31274186120554803,0.9143542941637337
1772785960400322600,0.158322509765625,0.8965613017112016,-0.8976822685651481,0.4019496923133731
1772785960410338600,0.168338623046875,0.42485389029979703,-0.9900482714429497,0.6997795233301818
1772785960420354600,0.1783544921875,0.40906186240613457,-1.0705185232132672,1.0439712194841355
1772785960430370600,0.18837060546875,0.3809580499500036,-1.354552760850638,1.4240624965369701
1772785960440386600,0.198386474609375,0.3440717961013317,-1.5910506096787749,1.416997964978218
1772785960450402800,0.20840283203125,0.21963936074674129,-1.8571409020856022,1.2102198393702506
1772785960460418800,0.218418701171875,0.07158873391747474,-2.0111251567475494,1.0888673959828912
1772785960470434600,0.2284345703125,-0.1515162571132183,-2.0381258302673695,0.9557377133011817
1772785960480450600,0.238450439453125,-0.43534138204455375,-1.8752181183069943,0.9189505359128117
1772785960490466600,0.248466552734375,-0.6133826579898596,-1.9051646360203622,0.76348218017295
1772785960500482600,0.258482666015625,-0.891592281126976,-2.2540265890076756,0.6045762511998415
1772785960510498600,0.26849853515625,-1.0873661976397038,-2.666574247702956,0.4045286028906703
1772785960520514800,0.278514892578125,-0.8887620261371135,-2.8807620650455354,-0.0486475649215281
1772785960530531600,0.288531494140625,-0.7699754877150058,-2.6394360654085873,-0.42414661881327625
1772785960540547600,0.298547607421875,-0.7595002709299326,-2.412633096642792,-0.5576037798836827
1772785960550563600,0.3085634765625,-0.7059305933058262,-2.220222519083321,-0.42014607793502506
1772785960560579600,0.31857958984375,-0.6567173573255538,-2.00263424564749,-0.06634140784852206
1772785960570595800,0.328595947265625,-0.5327864417523145,-1.688372773659229,0.08115092751085758
1772785960580611600,0.338611572265625,-0.545350155249238,-1.3979260386310517,0.10284275403283535
1772785960590627600,0.348627685546875,-0.8405120822310447,-1.4128078198119998,0.04948050861433148
1772785960600643600,0.3586435546875,-1.2436854711204766,-1.2488766100227833,-0.03663308280520141
1772785960610659600,0.36865966796875,-1.4509732998162508,-0.8505497113164514,0.04893040045090019
1772785960620675600,0.378675537109375,-1.2391495812565088,-0.5300992484949529,0.22533355380035935
1772785960630691600,0.388691650390625,-0.864338948020339,-0.21777398699996992,0.416127563008666
1772785960640707800,0.398707763671875,-0.43071430676579475,-0.06924525779755786,0.6332075215961783
1772785960650723600,0.4087236328125,0.01155833584666252,-0.07207494653183967,0.7650934147618711
1772785960660739600,0.418739501953125,0.2656143454581499,-0.09627723977109416,0.7987248315330594
1772785960670756600,0.428756591796875,0.3402314872860908,-0.06898967560129239,0.7281850221466273
1772785960680772600,0.438772705078125,0.23407003715932367,0.08993134134309366,0.5328809881679714
1772785960690788600,0.44878857421875,-0.14936638560295104,0.1856528469275683,0.3949649479925632
1772785960700804600,0.4588046875,-0.7553186013311147,0.12218042777725495,0.4270402213629335
1772785960710820600,0.468820556640625,-1.1774182244867086,0.07961285862284712,0.26951749037653205
1772785960720836600,0.478836669921875,-1.19462947152853,-0.014684779037814587,-0.10295680886656046
1772785960730852600,0.4888525390625,-0.9315566272467374,-0.3065351885851472,-0.6358240607701242
1772785960740868600,0.49886865234375,-0.7084323469936847,-0.6265059781309217,-0.9737967362787574
1772785960750884600,0.508884521484375,-0.4584796810477972,-1.0020791932374238,-1.3024186689876018
1772785960760900600,0.518900634765625,-0.29119711500406265,-1.4208388583153486,-1.6564960185356437
1772785960770916600,0.52891650390625,-0.1789607288777828,-1.825449294270575,-2.016563694539666
1772785960780932600,0.5389326171875,-0.14724866279661655,-2.2546695630863307,-2.338576657437533
1772785960790948600,0.548948486328125,-0.17078852833807467,-2.5697233544960616,-2.676483062776923
1772785960800964600,0.558964599609375,-0.37245968619585035,-2.5903309659779072,-2.9609593450933693
1772785960810980600,0.568980712890625,-0.5331330632328987,-2.457920975872874,-2.920398202124238
1772785960820997600,0.57899755859375,-0.4769049800544977,-2.3769386829271912,-2.4638269850462673
1772785960831013600,0.589013671875,-0.3080442049086094,-2.3515774471774695,-2.015642926432937
1772785960841029600,0.599029541015625,-0.2532698276698589,-2.2008424035698173,-1.5272493147671222
1772785960851045600,0.609045654296875,-0.3744908997625112,-1.8926530911020933,-0.906125395000726
1772785960861061600,0.6190615234375,-0.5469616820991039,-1.4879182981148362,-0.30607383641740304
1772785960871077600,0.62907763671875,-0.6649462564885615,-1.1433424980141222,0.11067651639841496
1772785960881093600,0.63909375,-0.6119277830064296,-0.9089916711520403,0.5011211374223232
1772785960891109600,0.649109619140625,-0.4195037614434957,-0.7896408499106764,0.6480868916243314
1772785960901125600,0.659125732421875,-0.19079671262204645,-0.7153983135487884,0.7439995541330426
1772785960911141600,0.6691416015625,0.3019739450842142,-1.0014854651279748,0.7392918878987431
1772785960921157600,0.67915771484375,0.8239303652644157,-1.5332386183097957,0.6759017310712486
1772785960931173600,0.689173583984375,1.256387716305256,-1.9327143217250704,0.5836246485859156
1772785960941189600,0.699189697265625,1.7524813809543847,-2.2607725561365486,0.38541795196831224
1772785960951205600,0.70920556640625,2.241133497425914,-2.607690389318764,0.1447175368838012
1772785960961221600,0.7192216796875,2.5412860723018644,-2.832087758247554,-0.0735662536686752
1772785960971238700,0.72923876953125,2.621603471598029,-2.890658312898874,-0.2665574349945411
1772785960981254700,0.739254638671875,2.577677236109972,-2.783057185357809,-0.6124678446998819
1772785960991270700,0.749270751953125,2.356479540005326,-2.617709386768937,-0.7916006787415594
1772785961001286400,0.759286376953125,1.8253601546823977,-2.409585691770911,-0.8758198347166181
1772785961011302700,0.769302734375,0.9710252988040446,-2.195050668425858,-1.0734995848506688
1772785961021318700,0.779318603515625,0.08863573030829429,-1.9729221212118864,-1.1346518265582621
1772785961031334700,0.789334716796875,-0.3242699480444193,-1.8834084390252828,-1.0866164021857083
1772785961041350700,0.7993505859375,-0.6082464641451836,-1.974823717049509,-0.9149104667417705
1772785961051366700,0.80936669921875,-0.7719377276986837,-1.9178302024565637,-0.8310605094052851
1772785961061382700,0.819382568359375,-0.8219108421355485,-1.7073158129297197,-0.8162691099215298
1772785961071398700,0.829398681640625,-0.6684007808566093,-1.5166865658290682,-0.6775749980457126
1772785961081414700,0.83941455078125,-0.2761369085162878,-1.4152582817040382,-0.4470436198739335
1772785961091430700,0.8494306640625,0.1544955651849508,-1.411776138676703,-0.1717370612345636
1772785961101446700,0.85944677734375,0.30552199295461174,-1.5474784483253954,0.008060922184959053
1772785961111462700,0.869462646484375,0.197953598639369,-1.7522529790259898,0.16523421867918223
1772785961121479400,0.8794794921875,-0.046940030351281165,-1.9279517834983766,0.3425975588303059
1772785961131495700,0.88949560546875,-0.3998679176032543,-2.0601400936767456,0.37090763444826
1772785961141511700,0.89951171875,-0.6646294456243514,-1.864543579557538,0.30737156634405255
1772785961151527700,0.909527587890625,-0.7535083370387554,-1.1175710009630768,0.25327947228103875
1772785961161543700,0.919543701171875,-0.8353466622918844,-0.30556385933496055,0.3169027072120458
1772785961171559700,0.9295595703125,-0.8661345992654561,-0.11685557035952805,0.2982286210760474
1772785961181575400,0.939575439453125,-0.9763193135589361,-0.5059726325741037,0.11306143877357244
1772785961191591700,0.949591796875,-1.2362684728622435,-0.5706473127868026,0.2892098867096007
1772785961201607700,0.959607666015625,-1.6398925281286238,-0.3956173840193078,0.4390837103780359
1772785961211623700,0.969623779296875,-2.185129870653152,0.12638714961893857,0.542894359594956
1772785961221639700,0.9796396484375,-2.8093150776863096,0.7795528788775206,0.39150414001420136
1772785961231655700,0.98965576171875,-3.107665571576357,0.8250913718678057,-0.11829371340386569
1772785961241671700,0.999671630859375,-2.9943524961292742,-0.505356509969756,-1.1001181271851062
1772785961251687400,1.0096875,-2.623233703148365,-1.4714295201286673,-1.9244047585412858
1772785961261703700,1.01970361328125,-2.0752736576616764,-2.039579828467965,-2.702445479290187
1772785961271720700,1.029720703125,-1.3582061687916516,-1.9911524821683764,-2.9410332861348985
1772785961281736700,1.03973681640625,-0.7350216632336377,-1.2693392600759863,-2.924562920588255
1772785961291752700,1.049752685546875,-0.42275721028149127,-0.5288190724913031,-2.683571267472207
1772785961301768400,1.0597685546875,-0.31161855626404283,0.13278258627709,-2.130224852772057
1772785961311784700,1.06978466796875,-0.29872049624621866,0.7612966528274119,-1.2405518492698668
1772785961321800700,1.07980078125,-0.39447044247388835,1.2381658309161663,-0.2984087999485433
1772785961331816700,1.089816650390625,-0.6353215180754661,1.5828768017038701,0.5557341866195201
1772785961341832700,1.099832763671875,-0.6413672279804945,1.657093984428793,1.1987584610920399
1772785961351848700,1.1098486328125,-0.5769762966126203,1.6208436903961,1.56943046015352
1772785961361864700,1.11986474609375,-0.26227029572725297,1.630432187474519,1.711886920237541
1772785961371880700,1.129880615234375,0.33131986655592915,1.7419745999872684,1.5967067357443272
1772785961381896700,1.139896728515625,0.979860931688547,1.9365543382793664,1.6890402976572512
1772785961391912700,1.14991259765625,1.7023124516844748,2.2487404652982947,1.9388618845693766
1772785961401928700,1.1599287109375,2.2527567152023313,2.5118092179268596,2.2261671067014337
1772785961411944700,1.16994482421875,2.639108733150363,2.6485557759314773,2.3575755185484883
1772785961421960700,1.179960693359375,2.8565117131471633,2.656693197418749,2.3468258687362074
1772785961431976700,1.189976806640625,2.932900540822744,2.513088151821494,2.215280094245076
1772785961441993700,1.19999365234375,2.9062615402221676,2.2344296158730983,1.9127875321142374
1772785961452009700,1.210009765625,2.749673386672139,1.7233192916169762,1.4671040581449866
1772785961462025700,1.220025634765625,2.4390824198901653,1.2284674437224865,1.009808106989041
1772785961472041700,1.230041748046875,2.0141332525223494,0.7346261611100285,0.5305778257921338
1772785961482057700,1.2400576171875,1.6208938131481407,0.24458880082517861,0.0371994114510715
1772785961492073700,1.25007373046875,1.3110551260381935,-0.2419727365752682,-0.3938303910046816
1772785961502089700,1.26008984375,1.0369055919468402,-0.6315719562835991,-0.7850371555075049
1772785961512105700,1.270105712890625,0.7770616465836763,-0.796436282204464,-1.0816839872848243
1772785961522121700,1.280121826171875,0.591796264603734,-0.7498108707603067,-1.2530816604971884
1772785961532137700,1.2901376953125,0.35480011086463925,-0.6637411915477365,-1.2260668123215437
1772785961542153500,1.300153564453125,0.010707271975278853,-0.5326575546756387,-1.0529968950480222
1772785961552169700,1.310169677734375,-0.45390871987044806,-0.5348115909043699,-0.7090117543168366
1772785961562185700,1.320185791015625,-0.7580453959465027,-0.5888541467372328,-0.3399762704160064
1772785961572201700,1.33020166015625,-0.9306997181564569,-0.7083042636346072,0.015391265073046088
1772785961582217700,1.3402177734375,-0.994210359558463,-0.8156319810617715,0.2341005053628236
1772785961592233700,1.350233642578125,-0.9307961642682552,-0.8589621503528208,0.4013746689043939
1772785961602250800,1.360250732421875,-0.7023387062937021,-0.8281951831020414,0.6177280667830258
1772785961612266800,1.370266845703125,-0.4156459169715643,-0.7017368679430336,0.7583405795007944
1772785961622282800,1.38028271484375,-0.102987496265769,-0.5841610935501754,0.9287344094328581
1772785961632298800,1.390298828125,0.3028542350500822,-0.47371363666728133,1.0725427955824882
1772785961642314800,1.400314697265625,0.7281435941576957,-0.45510348261296746,1.2068093733396381
1772785961652330800,1.410330810546875,1.0888789402902126,-0.4044944083601236,1.3086277527607977
1772785961662346500,1.420346435546875,1.4352104980170726,-0.3398581239290535,1.4443550507202743
1772785961672362800,1.43036279296875,1.6411095027029514,-0.2621644972652197,1.6141640665017067
1772785961682378800,1.440378662109375,1.702642122030258,-0.3088578593790531,1.6423916514679788
1772785961692394800,1.450394775390625,1.6697662728667257,-0.4315064800567925,1.5529685701742768
1772785961702410800,1.46041064453125,1.6010411116868257,-0.49993265829011796,1.4853062159202992
1772785961712426800,1.4704267578125,1.6061258676052093,-0.5972115676507354,1.3460001826912165
1772785961722442800,1.48044287109375,1.717846120902896,-0.6859453515060245,1.2095596949610858
1772785961732458500,1.49045849609375,1.8262813611805437,-0.8561417591698467,1.0304163760580123
1772785961742474800,1.500474853515625,1.8278554786294698,-1.0389603325195609,0.7726232988100499
1772785961752490800,1.51049072265625,1.5915589975923299,-1.1806072297863661,0.5753733914606273
1772785961762506800,1.5205068359375,1.0942337453216313,-1.5146949536204337,0.47414625593088566
1772785961772523500,1.5305234375,0.3835632640123367,-1.8940286172389984,0.22497407283820212
1772785961782539500,1.54053955078125,-0.3518301551431417,-2.290936662123352,-0.0820003108818084
1772785961792555800,1.5505556640625,-1.0757441489070654,-2.673160055834055,-0.31092334054149684
1772785961802571800,1.56057177734375,-1.8229747208505869,-2.8912834590598937,-0.48059280172176655
1772785961812587800,1.570587890625,-2.6677333546102044,-2.8680256253302097,-0.8426840194426476
1772785961822603800,1.580603759765625,-3.465738420501351,-2.7068910605221985,-1.1230223251715301
1772785961832619800,1.590619873046875,-3.9169653539419174,-2.4852637408286333,-1.314555243113637
1772785961842635500,1.600635498046875,-3.9332349362194536,-2.3155121543228625,-1.26918319273144
1772785961852651500,1.610651611328125,-3.6131261995077133,-2.208916112171113,-1.10978115080446
1772785961862667800,1.620667724609375,-2.9528344908267257,-2.0470278063863514,-0.9218683230556547
1772785961872683800,1.630683837890625,-2.255155593037605,-1.8838168736957013,-0.6307914734303951
1772785961882699800,1.64069970703125,-1.6937579738289117,-1.7019047476664184,-0.3859097540732473
1772785961892715800,1.6507158203125,-1.3643956710815428,-1.401050454261899,-0.276928899144195
1772785961902731800,1.660731689453125,-1.2129817052990197,-1.1346459813393652,-0.2785139398459345
1772785961912747500,1.67074755859375,-1.1636118174523113,-0.5388640081003307,-0.29273163109496236
1772785961922763800,1.680763671875,-1.4674918884187935,0.08496566349342465,-0.08846183504611253
1772785961932779800,1.69077978515625,-2.1175994722157716,0.71751917816028,0.2773565134391188
1772785961942795800,1.700795654296875,-2.8057272823274135,1.4313969310782848,0.7007069403734058
1772785961952812500,1.7108125,-3.321193171444535,2.0582005039162934,1.063392251529917
1772785961962828500,1.72082861328125,-3.5247172636926174,2.453110652981698,1.4101153658576309
1772785961972844500,1.730844482421875,-3.2944074558496474,2.6073800081953404,1.7420844901025294
1772785961982860800,1.74086083984375,-2.746737917742133,2.7783751650214192,1.833457536420226
1772785961992876800,1.750876708984375,-2.0112603274345395,3.124031015443802,1.6656500697195529
1772785962002892800,1.760892822265625,-1.1879431256324051,3.404244379618764,1.5339936744607985
1772785962012908800,1.77090869140625,-0.6943810252875089,3.1423391178116202,1.24332482111454
1772785962022924500,1.780924560546875,-0.32905893588662144,2.5029507886886595,0.5613245539724826
1772785962032940500,1.7909404296875,0.10853753160834312,2.1108523360431195,0.00803841809220612
1772785962042956500,1.80095654296875,0.567252774977684,1.8049694008216262,-0.4486412277963012
1772785962052972800,1.810972900390625,0.9074754944354295,1.2950300200410187,-0.7791139760036021
1772785962062988800,1.82098876953125,1.147875903660059,0.8417094753220676,-1.1330836273934692
1772785962073004800,1.8310048828125,1.3247294311255216,0.31476079981252547,-1.6569193585142492
1772785962083020800,1.841020751953125,1.2488970682889222,-0.26657471492290497,-2.25380841621235
1772785962093036500,1.85103662109375,0.8549345753371715,-0.6040771060386673,-2.6450577046826482
1772785962103052500,1.861052490234375,0.3984820162028074,-0.6346865811727941,-2.6576737328886986
1772785962113068800,1.87106884765625,-0.094770287540555,-0.2005832530232146,-2.3200220329627395
1772785962123085800,1.8810859375,-0.6118605629891157,0.2650879104312509,-1.780474718773365
1772785962133101800,1.891101806640625,-0.9535767358750105,0.6446703611791134,-1.0776184183463453
1772785962143117600,1.90111767578125,-0.7446610137164592,0.8616228939946741,-0.46388278220035134
1772785962153133600,1.911133544921875,-0.2552104403436184,0.9590070903606712,0.002077902252599597
1772785962163149600,1.921149658203125,0.22944120831489562,1.1125146674215793,0.25420791223756967
1772785962173165800,1.931165771484375,0.5428694443494081,1.2348504227578638,0.36457046731598675
1772785962183181800,1.941181884765625,0.7946616006821393,1.258789224489033,0.527911017735675
1772785962193197800,1.95119775390625,0.9171493317097424,1.1906904515791683,0.5894722055703401
1772785962203213600,1.961213623046875,0.855485779479146,1.15049426946491,0.5638036574371159
1772785962213229600,1.9712294921875,0.7886293347805738,1.1405508945342153,0.4848155339833349
1772785962223245600,1.98124560546875,0.42406946192383765,1.1682405732315033,0.29149551342874763
1772785962233261800,1.99126171875,-0.2489361823797226,1.1893748389359562,-0.011682619813457132
1772785962243277800,2.00127783203125,-0.9395160618185996,1.0943198161698877,-0.2619013893496245
1772785962253293800,2.0112939453125,-1.3365221602499484,0.8639671190332621,-0.4855420946922153
1772785962263309800,2.021309814453125,-1.4882769022941589,0.5806406278064474,-0.741014327777177
1772785962273325600,2.03132568359375,-1.4021984552532434,0.30846264951638874,-0.9147784378599375
1772785962283341600,2.041341552734375,-1.0970803669244051,0.17318079376947135,-0.9732372026998549
1772785962293357600,2.051357666015625,-0.729845721900463,-0.009083808092446997,-0.9876697788085788
1772785962303374800,2.061374755859375,-0.3794920690506696,-0.28730096608204764,-0.9325120282754301
1772785962313390300,2.071390380859375,-0.03369242624342442,-0.41131523082349447,-0.8066684109486639
1772785962323406300,2.08140625,0.4799216975271702,-0.3445551226388663,-0.5151008551970124
1772785962333422000,2.091422119140625,1.2402408836245535,-0.0707974922082387,0.008340031387284397
1772785962343438000,2.10143798828125,1.9762632483333349,0.23034423983553423,0.5912680394785479
1772785962353454000,2.1114541015625,2.547033091521263,0.3987001889981329,1.0267630411822348
1772785962363470300,2.12147021484375,2.97017082555294,0.4785208542859182,1.2277483356676995
1772785962373486300,2.131486328125,3.0736762082129716,0.5284049752650782,1.3258153266660868
1772785962383502300,2.14150244140625,3.1270120770812033,0.3567811286140233,1.297769820268452
1772785962393518300,2.151518310546875,3.3180367532402273,-0.027071218005381523,1.1522634710945188
1772785962403534000,2.1615341796875,3.6278777784377336,-0.43932782133221626,0.8614365776423364
1772785962413550000,2.171550048828125,3.9119945797920224,-0.9081718061365187,0.6354364496920257
1772785962423566000,2.181566162109375,4.051308942458033,-1.2827457080073654,0.4775335968142375
1772785962433582300,2.191582275390625,3.9611113696604963,-1.4559591254048048,0.36102479406576604
1772785962443598300,2.201598388671875,3.547593696889281,-1.4927590161442756,0.22974183522928504
1772785962453614300,2.2116142578125,2.926702270704508,-1.4305740703880787,0.17068872122541068
1772785962463630000,2.221630126953125,2.422891163545847,-1.283774904924631,0.02846552190799266
1772785962473646000,2.23164599609375,2.1636709030389785,-1.1420526043340564,-0.03705737263187766
1772785962483663400,2.241663330078125,2.055986188867688,-1.08499990689978,0.1350717201275751
1772785962493679400,2.251679443359375,1.895383538979292,-1.053473718779534,0.29366606240086257
1772785962503695400,2.2616953125,1.6921557993292808,-0.9483429268747567,0.26487689802907405
1772785962513711000,2.271711181640625,1.3157365618526935,-0.9936357745409011,0.004336494834348559
1772785962523727000,2.28172705078125,0.8669359787762164,-1.3641627391085027,-0.08037709359414875
1772785962533743000,2.2917431640625,0.7797206366598606,-1.5573678280465304,-0.0267888574000448
1772785962543759000,2.301759033203125,0.6735124247819185,-1.4999641252174973,0.1605044502109289
1772785962553775400,2.311775390625,0.18976386244297028,-1.4184016942963003,0.34625761570781466
1772785962563791400,2.321791259765625,-0.2654442495882511,-1.3454169759757817,0.43333720261529085
1772785962573807400,2.331807373046875,-0.672405340322852,-1.1684122765365987,0.5305914889913051
1772785962583823000,2.341822998046875,-1.1348609392642974,-1.0677131104037165,0.6517695987250656
1772785962593839000,2.351839111328125,-1.6560533893346785,-1.0804347909413277,0.6890744433119893
1772785962603855000,2.361855224609375,-2.184059611073136,-1.0907152158066629,0.7023122566781937
1772785962613871000,2.37187109375,-2.510059743911028,-1.008684875112772,0.6856915228754281
1772785962623887400,2.381887451171875,-2.887038953357935,-0.8685553236063569,0.7130015546053647
1772785962633903400,2.3919033203125,-3.216075677412748,-0.8385417320061475,0.6709231389410794
1772785962643919000,2.401919189453125,-3.397755602121353,-1.017154743424803,0.5932132187295704
1772785962653935000,2.41193505859375,-3.5914351767033335,-1.479013107125461,0.2713539120234549
1772785962663951000,2.421951171875,-4.280486531400681,-1.802758592904359,-0.4012830450981855
1772785962673967000,2.431967041015625,-5.164591087120771,-1.7337912935316562,-1.1050341024078427
1772785962683984400,2.441984375,-5.842940430539846,-1.2819139333583414,-1.70575294752717
1772785962694000000,2.452000244140625,-5.987269991019367,-0.8309906590394676,-2.2721932370781897
1772785962704016100,2.46201611328125,-6.051724050751328,-0.21943872360810637,-2.292937334421277
1772785962714032000,2.4720322265625,-5.784111809474229,0.4084946935100481,-1.8868655937418342
1772785962724048100,2.482048095703125,-5.188153164494038,0.691039752035588,-1.311147480496764
1772785962734064000,2.492064208984375,-4.486846723857521,0.8457710256725549,-0.970245254342258
1772785962744080400,2.502080322265625,-3.784916013842821,1.116290094307065,-0.5369185365883633
1772785962754096400,2.512096435546875,-2.8468618412703273,1.3173334756553172,-0.13048501339182256
1772785962764112100,2.522112060546875,-1.7754343865185975,1.2656725542619824,0.2494315098823048
1772785962774128000,2.532128173828125,-0.8496861532896757,1.3311999423138796,0.5091746800184249
1772785962784144100,2.54214404296875,-0.20251053129136562,1.4905284806132315,0.4677617425255477
1772785962794160000,2.55216015625,0.2815279539048672,1.808011252735555,0.3445937741488218
1772785962804176100,2.562176025390625,0.6454442681610584,2.226905796239525,0.3744008833914995
1772785962814192400,2.5721923828125,0.6544441516965628,2.31071469091326,0.35531405173614616
1772785962824208400,2.58220849609375,0.38097792369425293,2.2933280873045323,0.19181390857426447
1772785962834224000,2.59222412109375,0.1788169364929199,1.9818641370803116,-0.22142083733603357
1772785962844240100,2.602240234375,0.12607844899594783,1.595034857009351,-0.4816564488979056
1772785962854256000,2.612256103515625,0.08437222764492035,1.2726049838736653,-0.7287715898629278
1772785962864272100,2.622272216796875,0.024444120904803274,1.0344749307338148,-0.8290325107090175
1772785962874289200,2.6322890625,0.06773673466444015,1.0367510589722544,-0.6247390415236354
1772785962884305200,2.64230517578125,0.24729133778214454,1.2282289587914943,-0.24319636008609086
1772785962894321200,2.652321044921875,0.5334276622653007,1.329135557129979,0.1024885703003034
1772785962904337200,2.662337158203125,0.7727303393810987,1.2982606725253163,0.28269296082993967
1772785962914353200,2.672353271484375,0.7515233007013797,1.1105254663657396,0.24430147178377953
1772785962924369200,2.682369140625,0.9174825091868638,0.9303565307419747,0.25362788385991003
1772785962934385400,2.692385498046875,1.1719301484644413,0.6705443687565624,0.26744170701578257
1772785962944401200,2.702401123046875,1.492234115487337,0.40696686288826167,0.3310141616076231
1772785962954417200,2.712417236328125,1.7194921345442533,0.2403459756236523,0.40161669749934226
1772785962964433200,2.72243310546875,1.703902935746312,0.08693002236895263,0.33432650102600453
1772785962974449200,2.73244921875,1.5827882466375827,0.029281404868140817,0.2622777666476555
1772785962984465200,2.742465087890625,1.4138503146022556,0.04046805785819888,0.18439071803726254
1772785962994481400,2.7524814453125,1.1630822406202554,0.06375628672614693,0.0696899602246005
1772785963004497400,2.762497314453125,0.6344353828907012,0.11576521783955394,-0.060001464237272734
1772785963014513200,2.77251318359375,-0.07297638888359069,0.13154811257869004,-0.11355778005630708
1772785963024529200,2.782529052734375,-0.6195172152221202,0.025212913320213554,-0.2015625829167664
1772785963034545200,2.792545166015625,-0.7341893040627241,-0.09943594126403331,-0.2910603734144941
1772785963044561200,2.80256103515625,-0.3021241672098636,-0.27383659568466245,-0.2766389397542924
1772785963054577200,2.8125771484375,0.4693494501084089,-0.47935989892594516,-0.15347831443380563
1772785963064593400,2.822593505859375,1.3068068209439516,-0.5843410532269626,-0.01603866873164661
1772785963074610200,2.832610107421875,2.0132319197684527,-0.5346623186267913,0.19606376630477607
1772785963084626200,2.842626220703125,2.46930512419641,-0.548032307005301,0.5203943584952503
1772785963094642200,2.85264208984375,2.657482009708881,-0.472943090686202,0.8610507931951433
1772785963104658200,2.862658203125,2.522266314533353,-0.35888489596024153,1.0747804915066808
1772785963114674200,2.872674072265625,2.250284187608957,-0.16349267224147915,1.2162632111877203
1772785963124690200,2.882690185546875,1.8820798207700251,0.04593362978771329,1.2460707588218152
1772785963134706200,2.8927060546875,1.490857566437125,0.18005056994110344,1.2631911127097903
1772785963144722200,2.90272216796875,1.331606915679574,0.14432963354475795,1.224181875357777
1772785963154738200,2.91273828125,1.469089386743307,0.08605535842627286,1.102841049342975
1772785963164754200,2.922754150390625,1.8253081322342157,-0.028428295170143246,1.0201939649902283
1772785963174770200,2.932770263671875,2.3446622609615324,-0.08207607953175902,0.993744203351438
1772785963184786400,2.942786376953125,2.9359143356859683,-0.07772928249910474,0.9942914619706571
1772785963194802200,2.95280224609375,3.374123966643214,-0.12925203753076492,0.9258748552832752
1772785963204818200,2.962818115234375,3.636379064801335,-0.1488739989761263,0.8722130423963069
1772785963214834200,2.972834228515625,3.815488846760988,-0.19993520091064274,0.8845318412214517
1772785963224850200,2.98285009765625,4.034740669494867,-0.27655769121162593,0.831854144001007
1772785963234866200,2.9928662109375,4.15928007235527,-0.2667789322581142,0.7881886052757501
1772785963244882200,3.002882080078125,4.063968517544866,-0.10164170768000184,0.7202977029629051
1772785963254898400,3.0128984375,3.7498838634282348,0.03155512195378542,0.7143994387045502
1772785963264914200,3.0229140625,3.191886992573738,0.11656791252456605,0.7595718748614192
1772785963274930200,3.03293017578125,2.5288538762301207,0.226721793288365,0.9020090457230806
1772785963284946200,3.0429462890625,2.068209126102924,0.3574094896454364,1.0374719205927103
1772785963294963200,3.052963134765625,1.5338146646320818,0.4604125488065183,0.9684418581821024
1772785963304979200,3.062979248046875,0.8516454706639051,0.590056142938137,0.7345239428445697
1772785963314995200,3.0729951171875,0.12263970671892166,0.5797160968400538,0.5697673881471157
1772785963325011200,3.08301123046875,-0.6724228759795426,0.20460385030880568,0.14819319537142292
1772785963335027200,3.093027099609375,-1.3933686675876378,-0.4313553811483085,-0.556465058177337
1772785963345043200,3.103043212890625,-2.0539619895637036,-1.2453376222416759,-1.2293548940815031
1772785963355059200,3.11305908203125,-2.5023861405432224,-1.6949293556958436,-1.6990972890302538
1772785963365075500,3.123075439453125,-2.5871558430731296,-1.8145722186863422,-2.033901344440132
1772785963375091200,3.13309130859375,-2.4787042361825704,-1.876205375778675,-2.15071102983132
1772785963385107200,3.143107177734375,-2.441409986054897,-1.9047693530924616,-2.1207297330655157
1772785963395123200,3.153123291015625,-2.2564263436257836,-1.9735909603841602,-1.8105984927497802
1772785963405139200,3.16313916015625,-1.8998025244653223,-1.9051868478521703,-1.3826077657289801
1772785963415155200,3.1731552734375,-1.587093834877014,-1.8471144519813358,-0.8678638342108577
1772785963425171200,3.183171142578125,-1.2065361824214458,-1.8120907771341501,-0.35672366280574347
1772785963435187500,3.1931875,-0.7780418897926807,-1.6455922010749577,0.0055953317932697245
1772785963445203200,3.203203125,-0.4683697914212942,-1.4455952600397168,0.22573402436003087
1772785963455219200,3.21321923828125,-0.21120178726911543,-1.3109348606593907,0.36527488925829527
1772785963465235200,3.223235107421875,0.07819792292416096,-1.2205094704553485,0.40393772432543334
1772785963475251200,3.233251220703125,0.320437822535634,-1.0375340991087256,0.35531573223657903
1772785963485267200,3.24326708984375,0.47744566280245776,-0.5393551526181399,0.3309526406787336
1772785963495283500,3.253283447265625,0.32471886085569857,-0.04087824609428644,0.3697253658611327
1772785963505299500,3.263299560546875,-0.1640039827644825,0.18574162118956444,0.5143668783666566
1772785963515316200,3.273316162109375,-0.7453881589472293,0.37776436847522854,0.5515661802198738
1772785963525332200,3.283332275390625,-1.439540636175871,0.7512813086390495,0.5758077277572825
1772785963535348200,3.29334814453125,-2.2762305297702548,1.287200057067722,0.6867099792029708
1772785963545364200,3.3033642578125,-2.9596482624948024,1.6803941959954798,0.7355248635154217
1772785963555380200,3.313380126953125,-3.3254572586297986,1.907744423380494,0.6930904740203172
1772785963565396200,3.323396240234375,-2.929534279260039,1.865702832595259,0.7909565356191247
1772785963575412200,3.333412109375,-2.1313351521015167,1.6147091331638395,0.9068784053251147
1772785963585428200,3.34342822265625,-1.1048504164040087,1.3987917155496776,0.9259524505641311
1772785963595444200,3.3534443359375,0.047585927039384836,1.305480686906725,0.8782442123193294
1772785963605460200,3.363460205078125,1.0387731393843889,1.2278382059082389,0.8543876089788973
1772785963615476200,3.373476318359375,1.584443612629175,1.2223182734429836,0.7761345948666334
1772785963625492200,3.3834921875,1.7484475953936576,1.227222412097454,0.4898800873639062
1772785963635508200,3.39350830078125,1.581370196533203,1.0517105084992944,-0.06275685932605993
1772785963645524200,3.403524169921875,1.2892495369434356,0.78276402294375,-0.6393628293555229
1772785963655540200,3.413540283203125,0.9118202456414699,0.42097836404070255,-1.2526499910816549
1772785963665556200,3.42355615234375,0.5460837302207946,-0.07608436483629047,-1.8914999755442141
1772785963675572200,3.433572265625,0.2555155607700348,-0.5457313365865498,-2.3909441196650265
1772785963685588500,3.44358837890625,0.04098784394860267,-0.8170313995309174,-2.585204709005356
1772785963695604200,3.453604248046875,0.0691764120787382,-1.019497214897722,-2.441972442243248
1772785963705620200,3.4636201171875,0.2327057630687952,-1.1661872939635067,-2.190984441900253
1772785963715636200,3.47363623046875,0.31468612714111804,-1.1905454170852898,-1.9038328028947114
1772785963725652200,3.48365234375,0.28584698614776133,-1.161537787657231,-1.6381911310382187
1772785963735668200,3.493668212890625,0.2655535551816225,-1.1593239840652794,-1.533125074932724
1772785963745684200,3.503684326171875,0.28828151981830596,-1.1285374353311954,-1.3537779770858585
1772785963755701200,3.513701171875,0.30983225736916065,-1.1209711647953837,-1.122839954341948
1772785963765717200,3.52371728515625,0.15542729307711123,-1.1263360528293997,-0.9974578170470892
1772785963775733200,3.533733154296875,0.024168226572871206,-0.8691603037621826,-0.9051840224973857
1772785963785749200,3.543749267578125,-0.054636430072784424,-0.6065887600660324,-0.694100673976168
1772785963795765200,3.55376513671875,-0.03737491414844989,-0.4989792300228029,-0.4701739182338118
1772785963805781200,3.56378125,0.07966682643294334,-0.34793044429086145,-0.1530536136151757
1772785963815797200,3.57379736328125,0.34765842241644856,-0.02283968138284981,0.15941979677937923
1772785963825813200,3.583813232421875,0.4665273784250021,0.09751447168216108,0.532870466773957
1772785963835829200,3.593829345703125,0.6023211657494306,0.017374986236169933,0.8250606844685971
1772785963845845200,3.60384521484375,0.7535404857426882,-0.08802607397735118,1.0041882943458855
1772785963855861200,3.613861328125,0.9340531202375888,-0.16286774527616799,1.0897419137950985
1772785963865877200,3.623877197265625,1.133548687621951,-0.27019027507156135,1.0593450950309633
1772785963875893200,3.633893310546875,1.2152800453692674,-0.41933943772725757,0.956398003840819
1772785963885909200,3.6439091796875,1.2537135286599397,-0.5556205701772123,0.6855116362638771
1772785963895925200,3.65392529296875,1.1460142014414072,-0.6099359516020864,0.3923643370401114
1772785963905941200,3.663941162109375,1.1174451095610856,-0.7755524841297418,0.17682817382849753
1772785963915957200,3.673957275390625,1.141797460529208,-1.001993999172002,-0.08320384145267307
1772785963925973200,3.68397314453125,1.1566583450525998,-1.2551911999970673,-0.27798034442588687
1772785963935989200,3.6939892578125,1.178816400846839,-1.5941588048271833,-0.48502851914688944
1772785963946005200,3.704005126953125,1.1020622469902037,-1.8412769779995082,-0.7657008791357278
1772785963956021200,3.714021240234375,0.8312246139258146,-1.9435984115719793,-1.0224259618259965
1772785963966037200,3.724037353515625,0.504909423789382,-1.975356362621486,-1.2150549313765018
1772785963976053200,3.73405322265625,0.3581418225079775,-1.9007995726786553,-1.3524554963104427
1772785963986069200,3.7440693359375,0.32603520415127274,-1.7258403345271944,-1.3990095960840583
1772785963996085200,3.754085205078125,0.35920623686909675,-1.5213193401962517,-1.3009594100899993
1772785964006102300,3.764102294921875,0.40929508664011954,-1.3975539904482661,-1.1212820573754607
1772785964016118300,3.7741181640625,0.48764323168992996,-1.3410958979062735,-0.9082752665109932
1772785964026134300,3.78413427734375,0.4948083010137081,-1.3204090837083755,-0.6868941035982221
1772785964036150300,3.794150390625,0.40535657814741133,-1.2764414932966233,-0.41580567411053926
1772785964046166300,3.804166259765625,0.20994506520628928,-1.1948828617677092,-0.11867818267680703
1772785964056182300,3.814182373046875,-0.04623392790853977,-1.0691729538232086,0.1477588042758405
1772785964066198300,3.8241982421875,-0.29794132856726646,-0.9241419670760631,0.33663886962160466
1772785964076214300,3.83421435546875,-0.5128723654925823,-0.8847007680475711,0.39129290841631587
1772785964086230300,3.844230224609375,-0.654999447491765,-0.9886355551008135,0.36706827548108995
1772785964096246300,3.854246337890625,-0.732456781181693,-1.0593054206077008,0.10469934168495237
1772785964106262300,3.86426220703125,-0.8344587735414505,-1.1366089519754052,-0.31155645081326366
1772785964116278300,3.8742783203125,-0.8729156377077102,-1.2835934108778833,-0.5959680703956634
1772785964126294000,3.8842939453125,-0.7987357182532548,-1.663736637313664,-0.8907570724118501
1772785964136310300,3.894310302734375,-0.8622405144363641,-2.186608564903587,-1.3361553727641702
1772785964146326300,3.904326171875,-0.9575918167352676,-2.1758549695685505,-1.634018229267746
1772785964156342300,3.91434228515625,-0.8848048129439353,-1.3696451160423457,-1.7566443458527325
1772785964166358300,3.924358154296875,-0.8196002271056175,-0.2591351029740646,-1.8122041743807493
1772785964176374300,3.934374267578125,-1.1831646591842173,0.38340449325405057,-1.6329728118680416
1772785964186390300,3.944390380859375,-1.6571575511842964,0.9573398878008127,-1.0160964665435255
1772785964196406300,3.95440625,-1.9915216077417135,1.5309557680696249,-0.09125873575564473
1772785964206422300,3.96442236328125,-2.0331506722033024,1.6235025343418121,0.8028177268698811
1772785964216438300,3.974438232421875,-1.9546756859034298,1.3411917594961822,1.243961511582881
1772785964226454300,3.984454345703125,-2.1258336320757865,1.559949661233276,1.3334848383806646
1772785964236470300,3.99447021484375,-2.0984125411868093,2.143291693485528,1.168059590641409
1772785964246486300,4.004486328125,-1.889240213918686,2.8237220809623595,0.9300198461335152
1772785964256502300,4.014502197265625,-1.3384095814317465,2.383030570061505,0.33842597223408516
1772785964266518300,4.024518310546875,-0.3956605290412903,1.7008398949138819,-0.16112060934789477
1772785964276535300,4.034535400390625,0.6230640940487384,1.258503247154504,-0.426358340045996
1772785964286551300,4.04455126953125,1.5379355439543723,0.8954068709790706,-0.7433912129763514
1772785964296567300,4.0545673828125,2.2133482493996617,0.6666407123815268,-0.9048303136888891
1772785964306583000,4.0645830078125,2.5929578073501585,0.57311399516128,-0.9541077740117907
1772785964316599000,4.07459912109375,2.7340771736115217,0.5543038250228389,-0.8857225123107433
1772785964326615300,4.084615234375,2.6916625117301938,0.7164619241923094,-0.7770974485494196
1772785964336631300,4.09463134765625,2.62454829287827,0.9821548878446221,-0.5613942582078277
1772785964346647300,4.104647216796875,2.493664489427209,1.386690943389386,-0.29697938819993286
1772785964356663300,4.114663330078125,2.450013563749194,1.8025436349794268,0.1047887004688382
1772785964366679300,4.12467919921875,2.3134645741432904,2.093729644067585,0.5153849693680181
1772785964376695000,4.134695068359375,2.0056039091080424,2.2013120669081805,0.843068488715589
1772785964386711300,4.144711181640625,1.539491541224718,2.227083637024462,0.9948415701340884
1772785964396727300,4.154727294921875,1.0458452697277068,1.9285116093382237,0.9683538876377046
1772785964406743300,4.164743408203125,0.6312602599859237,1.5925820570297538,0.9554401916593313
1772785964416759300,4.17475927734375,0.27467969544529913,1.358456198029965,0.9504230941496788
1772785964426775300,4.184775390625,-0.006954641443490982,1.1024632290065288,0.921944310901314
1772785964436791300,4.194791259765625,-0.14873276387453077,0.9716897540621459,0.9356767028514296
1772785964446807000,4.20480712890625,-0.24050620768666267,0.9047409549050033,0.949439197678864
1772785964456823300,4.2148232421875,-0.2959346649199724,0.8661207168705761,0.9232482331067323
1772785964466839300,4.22483935546875,-0.32192835335433484,0.6710192927919327,0.7169285187907517
1772785964476855300,4.234855224609375,-0.3500754204303026,0.3902788360029459,0.45822775211334227
1772785964486871300,4.244871337890625,-0.2689741772800684,-0.02063281898833811,0.22357830763086675
1772785964496887300,4.25488720703125,-0.07940729871392249,-0.43198914900720115,0.061798065330460665
1772785964506903300,4.2649033203125,0.11989479192495345,-0.7826584436774253,-0.07241758595705032
1772785964516919000,4.2749189453125,0.26119360640645023,-0.9769454826332629,-0.16432620045617222
1772785964526935300,4.284935302734375,0.37393677301108835,-0.9940195131614804,-0.22677754206359385
1772785964536951300,4.294951416015625,0.3989607396304607,-0.8692277429752051,-0.21293767115101217
1772785964546967300,4.30496728515625,0.31813597533404825,-0.7550055898591875,-0.17107720908634363
1772785964556983300,4.3149833984375,0.14063538213670254,-0.6720717244543135,-0.09680946521796285
1772785964567000000,4.325,-0.14404665188491345,-0.5907972436290234,-0.05804981871284544
1772785964577016300,4.335016357421875,-0.31513503995239733,-0.5748916723582893,0.017819807394221423
1772785964587032300,4.3450322265625,-0.31742753480374813,-0.5871115408536046,0.12787965319901703
1772785964597048300,4.35504833984375,-0.32955168783962724,-0.6415121163439005,0.17451332101486622
1772785964607064300,4.365064208984375,-0.2354635373443365,-0.6689509620852768,0.2456606678403914
1772785964617080300,4.375080322265625,-0.019405542215704917,-0.6633576721228659,0.31186566289290785
1772785964627096000,4.385095947265625,0.22100012770593164,-0.5050651988729834,0.38387729839757084
1772785964637112000,4.395112060546875,0.44873336305916306,-0.30268121657073493,0.47179077884592113
1772785964647128300,4.40512841796875,0.5126496626526117,-0.25748320758119225,0.47633346377685665
1772785964657144300,4.415144287109375,0.46514790676534173,-0.2931727989912033,0.46442989468909796
1772785964667160300,4.425160400390625,0.4233049072921276,-0.4056374409154057,0.4271014500308782
1772785964677176300,4.43517626953125,0.33482290624082084,-0.5250350969731807,0.36472426963821053
1772785964687192300,4.4451923828125,0.20264087967276573,-0.7161078500576317,0.2786228070478886
1772785964697208000,4.4552080078125,0.07612345473766327,-0.8517159055516124,0.21091785576120017
1772785964707224000,4.46522412109375,0.010269465079903601,-0.8592046538718044,0.23234277497529982
1772785964717240300,4.475240234375,-0.14235738362371922,-0.8230283018581569,0.33039106127321716
1772785964727256300,4.48525634765625,-0.36373511247038837,-0.8674277078159153,0.36271278368532656
1772785964737272300,4.495272216796875,-0.5770540380239486,-0.9200888922929763,0.32327143852636214
1772785964747288300,4.505288330078125,-0.843463917773962,-0.970646967010945,0.3330491015013307
1772785964757304000,4.515303955078125,-1.0345978995263576,-1.1375675678744912,0.36074053376428783
1772785964767320000,4.525320068359375,-1.0860048461586236,-1.312638741967827,0.2887909306451678
1772785964777336300,4.53533642578125,-1.1498872434824705,-1.4191319082669913,0.1683016068931669
1772785964787352300,4.545352294921875,-1.1323206071317196,-1.4464930856622755,0.09685447340346873
1772785964797368300,4.555368408203125,-0.9654618194580078,-1.395001821747422,0.041112054850161076
1772785964807384300,4.56538427734375,-0.7505413039267063,-1.220701997352764,-0.12285824484042823
1772785964817400300,4.575400390625,-0.5036509481608867,-0.6337372445587068,-0.252206582352519
1772785964827416000,4.585416015625,-0.45370004555583,0.41189569759257133,-0.23863939090147612
1772785964837432000,4.59543212890625,-0.7088187159627676,1.278644264037907,-0.05228526383675634
1772785964847448300,4.6054482421875,-1.2404893054276704,1.8230252819940447,0.295930719397217
1772785964857464300,4.61546435546875,-1.8570248744904994,2.1214530789040027,0.6981513376064599
1772785964867480300,4.625480224609375,-2.5571891593545675,2.3535735894307495,1.038384359262511
1772785964877496300,4.635496337890625,-3.18052505608201,2.5555735408514737,1.1474206341732294
1772785964887512300,4.64551220703125,-3.469786234587431,2.7541914486184713,1.135024678458646
1772785964897529300,4.655529296875,-3.2768981026440858,2.865555143563449,1.041587685348466
1772785964907545300,4.66554541015625,-2.438123803991079,2.66468273486793,0.8460277769125998
1772785964917561300,4.675561279296875,-1.1513602386444806,2.131355318106711,0.6178101190432905
1772785964927577300,4.685577392578125,0.15974457175433635,1.605292631651461,0.30992413690369575
1772785964937593300,4.69559326171875,1.2795067260861397,1.0937042415548115,-0.02681333425417542
1772785964947609000,4.705609130859375,2.1162918967485425,0.687690149346739,-0.30518238573670387
1772785964957625000,4.715625,2.7158453513503074,0.3342207756292075,-0.5139576765112579
1772785964967641300,4.725641357421875,2.9688661726951597,-0.023986732526123523,-0.675239906161651
1772785964977657300,4.7356572265625,2.8372008634775874,-0.49356933380328116,-0.8675428586281836
1772785964987673300,4.74567333984375,2.328146594968438,-0.8979274024326354,-1.067825192476064
1772785964997689300,4.755689453125,1.5417209077119827,-1.2344745751827955,-1.3180731881067156
1772785965007705000,4.765705078125,0.7054238128274679,-1.389535665296018,-1.6252359340056777
1772785965017721000,4.77572119140625,0.01085866314470768,-1.3063381805188954,-1.6997760650746523
1772785965027737000,4.785737060546875,-0.5256447533041239,-1.3658227812752126,-1.7021879485219715
1772785965037753300,4.79575341796875,-0.7771084083348512,-1.0388374367922544,-1.367026896367967
1772785965047769300,4.805769287109375,-0.8897276562988757,-0.7171612315680831,-0.9435141915440559
1772785965057785300,4.815785400390625,-0.8732318640500306,-0.4733471414424479,-0.5898839647090062
1772785965067801300,4.82580126953125,-0.8045967192411422,-0.3521953351937234,-0.3274146758109331
1772785965077817000,4.835817138671875,-0.7016343574166297,-0.33713490951023994,-0.16055987019259482
1772785965087833000,4.8458330078125,-0.5606739811092615,-0.40859636378623543,-0.08818857106268406
1772785965097849000,4.85584912109375,-0.4035544971615076,-0.43322767782621086,-0.101975506211631
1772785965107865300,4.865865234375,-0.2173860288619995,-0.4175737432289868,-0.052189000388048586
1772785965117881300,4.87588134765625,0.05907470478117466,-0.33603878483660515,0.024007355189044028
1772785965127897300,4.8858974609375,0.30521687252819535,-0.26892873070314527,0.11528958141813055
1772785965137913300,4.895913330078125,0.44219022502601146,-0.2361406328883022,0.17212951288456096
1772785965147929000,4.90592919921875,0.5329512769252062,-0.17486103847399354,0.18308809273978693
1772785965157945000,4.915945068359375,0.5962742868006229,-0.17604374545253812,0.15589408860495313
1772785965167961300,4.92596142578125,0.6665782416045666,-0.26515513044856487,0.14945282177738844
1772785965177977300,4.935977294921875,0.6908370690703391,-0.30149390648230906,0.04876121789645403
1772785965187993300,4.945993408203125,0.6676064156085252,-0.4018885367106646,-0.038920316959545016
1772785965198009300,4.95600927734375,0.6067243691444396,-0.5935157818727195,-0.13593414564318954
1772785965208025300,4.966025390625,0.5358581042826175,-0.801341297641769,-0.2409014906145632
1772785965218041000,4.976041015625,0.4885854809761047,-0.9662864337138831,-0.3095409828050062
1772785965228057000,4.98605712890625,0.5017366389721631,-1.033158368242532,-0.3338718525936827
1772785965238073300,4.9960732421875,0.5210615171670914,-1.0884363841544835,-0.248481972338818
1772785965248089300,5.00608935546875,0.5497732323884964,-1.0807461949780583,-0.15663966454155742
1772785965258105300,5.016105224609375,0.5554401721090078,-0.9722948803484439,-0.06616499183569104
1772785965268121300,5.026121337890625,0.6067968498587608,-0.798504247584939,0.04775430587623268
1772785965278137000,5.03613720703125,0.7071423071831464,-0.657092035856843,0.19998137813992797
1772785965288153000,5.046153076171875,0.7955793000489473,-0.5635647341147065,0.4514766338853165
1772785965298170400,5.05617041015625,0.9155039025902748,-0.4899588151559233,0.688242230271548
1772785965308186400,5.066186279296875,1.0259475600808858,-0.49226957631632684,0.8150966320760548
1772785965318202600,5.07620263671875,1.0375409672409295,-0.555940011389926,0.8828922573208808
1772785965328218600,5.086218505859375,1.0420733499735593,-0.6566748333580792,0.9158388336330652
1772785965338234600,5.096234619140625,1.05550040230155,-0.7509358562022447,0.9591068974733352
1772785965348251000,5.1062509765625,1.0068728572547436,-0.7341874043665826,1.0195385698214172
1772785965358267000,5.116266845703125,0.9509510635465382,-0.7311684218715876,0.9787683141462504
1772785965368283000,5.126282958984375,0.807269737842679,-0.6767836284723132,0.9899426191113888
1772785965378299000,5.136298828125,0.7096043133825063,-0.6954072265300899,0.9724655607402324
1772785965388314600,5.146314697265625,0.6450298421412706,-0.7857908234190195,0.9238657074179499
1772785965398330600,5.15633056640625,0.6093687461733818,-0.8491618371546268,0.8171477924522011
1772785965408346600,5.1663466796875,0.6172942784756422,-0.9428565313529222,0.7062826216138899
1772785965418363000,5.17636279296875,0.6349070920556783,-0.9740185623358935,0.5915836082337423
1772785965428379000,5.18637890625,0.5698199951171875,-0.999675054705143,0.4986258865404874
1772785965438395000,5.196394775390625,0.37962767812907694,-1.0424866069495677,0.3866686096165329
1772785965448410600,5.20641064453125,0.03232873667478561,-1.0324322459250688,0.26017624605745077
1772785965458426600,5.216426513671875,-0.3500327503323555,-1.1102574630793183,0.00833762023448944
1772785965468442600,5.226442626953125,-0.8038853561013937,-1.1299302048638462,-0.36201837168037887
1772785965478458600,5.236458740234375,-1.136355561736226,-1.2886048092991114,-0.707428430648148
1772785965488475000,5.246474853515625,-1.2937906875044107,-1.668731084600091,-0.9384712289407848
1772785965498491000,5.256490966796875,-1.2040057871609926,-1.4395876901879905,-1.275247899597883
1772785965508507000,5.2665068359375,-1.0632447328180075,-0.4095041628135368,-1.5113757460698485
1772785965518522600,5.276522705078125,-0.8355068212896585,0.9189826846167445,-1.1473355131730436
1772785965528538600,5.28653857421875,-0.7891168260365724,1.7179472431898115,-0.6496439848732203
1772785965538554600,5.2965546875,-1.1036439632236956,1.6357026752233503,-0.008373403933923692
1772785965548570600,5.306570556640625,-1.631630311217904,1.64286964424327,0.7957341983497143
1772785965558587000,5.3165869140625,-2.430857612380385,1.8140112238027155,1.1756826328657566
1772785965568603000,5.326602783203125,-3.27265681181252,1.8527575724348424,1.106481816998124
1772785965578619000,5.336618896484375,-3.7903754482924934,1.8708178375214337,0.6352152081567793
1772785965588634600,5.346634521484375,-3.6390608512312173,1.7005996564172208,-0.28364671789081763
1772785965598650600,5.356650634765625,-2.95978328705132,1.1023126415546982,-1.2419313209295273
1772785965608666600,5.36666650390625,-2.0711124463289976,0.36634463738165796,-2.0543768539749085
1772785965618683000,5.376682861328125,-1.0529822820007801,-0.11881428494555875,-2.801134693840146
1772785965628699000,5.386698974609375,-0.09924187999665736,-0.25355739417327566,-3.3340313179686665
1772785965638715000,5.39671484375,0.782776517099142,-0.11342577857393771,-3.531530450838804
1772785965648731000,5.40673095703125,1.5552736322462557,0.1714832691365853,-3.076329645331204
1772785965658746600,5.41674658203125,2.1755080558270214,0.4377132988076657,-2.1558602292880416
1772785965668762600,5.4267626953125,2.6231208904236554,0.7620692446351051,-1.185198210838437
1772785965678778600,5.436778564453125,2.8394091871768237,1.1849279425296932,-0.39461324847806245
1772785965688795000,5.446794921875,2.8633301609903574,1.6462350290231407,0.2777758530960418
1772785965698811000,5.456810791015625,2.7202894712775945,2.0660623233325777,0.7886222474526613
1772785965708827000,5.466826904296875,2.432579613867402,2.3057110374070704,1.0990826466575265
1772785965718842600,5.476842529296875,2.09296596621871,2.149631856292486,1.164152646330744
1772785965728858600,5.486858642578125,1.5560580606222152,2.123011122000962,1.1986005671165882
1772785965738874600,5.49687451171875,0.8678671221464872,2.274320896756649,1.1833175116583705
1772785965748890600,5.506890625,0.19863632020652294,2.476959438341856,1.1522888977967203
1772785965758907000,5.516906982421875,-0.3182598939746618,2.675560394974053,1.1485112789541483
1772785965768923000,5.5269228515625,-0.7433931857377291,2.7781843186244366,1.0539867098029703
1772785965778939000,5.53693896484375,-0.9057488167732953,2.7968495638668536,0.8488288788732141
1772785965788954600,5.54695458984375,-0.7476409063100814,2.703179054261744,0.6346197995468974
1772785965798970600,5.556970703125,-0.3768652276784181,1.9308166714102029,0.197543958392553
1772785965808986600,5.566986572265625,0.0925350758343935,0.9729861505482346,-0.23550098327789454
1772785965819003000,5.5770029296875,0.6107780284494161,0.18589118572808802,-0.5963211581496521
1772785965829019000,5.587018798828125,1.096933067408204,-0.34662900630347426,-0.884610605546087
1772785965839035600,5.59703564453125,1.4886451510846614,-0.5875014534866437,-0.9895617300350218
1772785965849051600,5.6070517578125,1.7357634703874587,-0.6207651694566011,-0.9065391634333878
1772785965859067600,5.617067626953125,1.7170991019278763,-0.48110396611429745,-0.6099457058111205
1772785965869083600,5.627083740234375,1.4265285943895578,-0.19108464445164425,-0.21699330321736632
1772785965879100000,5.637099853515625,0.961949427422881,0.1087072073531337,0.08133815717864781
1772785965889116000,5.647115966796875,0.5328174214124679,0.2671718040332198,0.40912250655218957
1772785965899131600,5.657131591796875,0.2009644708931446,0.28833489397335793,0.6583550415299833
1772785965909147600,5.667147705078125,-0.10769465104341507,0.24074703070521353,0.8019277922928333
1772785965919163600,5.67716357421875,-0.4638689728707075,0.18622681089062243,0.8964389905057847
1772785965929179600,5.6871796875,-0.7948504012525082,0.11721917950753122,0.8872956068463623
1772785965939195600,5.697195556640625,-0.9277321005225181,0.0318790566785261,0.8378523615024983
1772785965949212000,5.7072119140625,-0.8842541933238506,-0.06799315711092203,0.8405619127221405
1772785965959228000,5.717227783203125,-0.739323744341731,-0.1679268552966416,0.77854209439978
1772785965969243600,5.72724365234375,-0.5738742389440536,-0.30615510322637857,0.6387342491284013
1772785965979259600,5.737259765625,-0.4086000901132822,-0.4677960831865668,0.43800457337182014
1772785965989275600,5.747275634765625,-0.30774434517920013,-0.6444744002155959,0.1597644820312038
1772785965999291600,5.757291748046875,-0.1862105538755655,-0.8555248693805187,-0.1551543213546276
1772785966009308000,5.767307861328125,-0.07753682866692542,-1.0628600443493574,-0.477127573296614
1772785966019324000,5.777323974609375,-0.012523381486535071,-1.2506807368353008,-0.733917574449256
1772785966029340000,5.78733984375,0.014913491493463516,-1.3046172019451856,-0.8955262595750391
1772785966039355600,5.797355712890625,0.02706511705815792,-1.2343272756665944,-0.9730682758737355
1772785966049371600,5.80737158203125,0.08031739929616451,-1.0191793080549687,-0.9628587973527609
1772785966059387600,5.8173876953125,0.2203916404187679,-0.7360058519653976,-0.7722423366684467
1772785966069403600,5.827403564453125,0.4054793277442455,-0.5386507306758314,-0.4755155349900946
1772785966079420000,5.837419921875,0.5223164856642485,-0.46761765787973997,-0.14683708632104098
1772785966089436000,5.847435791015625,0.5994307050049305,-0.3837731804359704,0.1710066646007821
1772785966099452000,5.857451904296875,0.617542700278759,-0.19680212704930453,0.4539555912194773
1772785966109467600,5.867467529296875,0.534216182294488,-0.0012407573087140917,0.6593426643278449
1772785966119483600,5.877483642578125,0.414042573428154,0.17036701499037443,0.8188781964413822
1772785966129499600,5.887499755859375,0.269676188069582,0.3489888307699933,0.967594009181112
1772785966139515600,5.897515625,0.12902327027618885,0.5056131516119465,1.041286145118624
1772785966149532000,5.907531982421875,0.03785480661988258,0.5543019983919337,1.0659457354050128
1772785966159548000,5.9175478515625,0.0419102194905281,0.4118130242777988,1.031146151637286
1772785966169563600,5.927563720703125,0.08745850322246551,0.19104261367451397,0.9525447624787687
1772785966179579600,5.93757958984375,0.12259879018664359,-0.08018339765295386,0.7846445759933441
1772785966189595600,5.947595703125,0.16462708309888838,-0.30318737599458545,0.5563260150328279
1772785966199611600,5.957611572265625,0.19550211383402347,-0.45875093573722986,0.30544352089092136
1772785966209628000,5.9676279296875,0.2509475222021341,-0.2851271474406123,0.09163609943436458
1772785966219644000,5.977643798828125,0.19429273804426192,0.27811182531844825,-0.04572051675999537
1772785966229660000,5.987659912109375,-0.14287410097420214,0.7843013885788619,-0.06712455758284777
1772785966239675600,5.997675537109375,-0.6729477766364812,1.0078599685959517,-0.05591001193886622
1772785966249691600,6.007691650390625,-1.2033370941191912,1.1776673038769512,0.04282041140431538
1772785966259707600,6.017707763671875,-1.6275801590442656,1.377546682947129,0.18977990026231853
1772785966269723600,6.0277236328125,-1.9131033200651406,1.5558073007315396,0.36417503825761377
1772785966279740000,6.037739990234375,-2.0213520978599786,1.7839409335792065,0.506640558430925
1772785966289756000,6.047755859375,-1.9482745866894722,2.1234292012825606,0.6131564480185508
1772785966299772000,6.05777197265625,-1.6847200963705777,2.466903031490743,0.6812564630374311
1772785966309787600,6.06778759765625,-1.3194237259328365,2.634235281895101,0.6370194080345333
1772785966319804000,6.077803955078125,-0.8683867621064185,2.622075473023951,0.5144923679098486
1772785966329820000,6.08781982421875,-0.3691881171792745,2.573649880290031,0.31655542814433574
1772785966339836000,6.0978359375,0.0075397478550672525,2.380107083830237,0.024579181993938982
1772785966349852200,6.10785205078125,0.34475451766848564,2.1143805101692674,-0.33653613989949227
1772785966359868200,6.1178681640625,0.5803975032329559,1.8135611419476567,-0.6964492098636925
1772785966369884000,6.1278837890625,0.7027940488457679,1.4692666430063546,-1.0942612178504467
1772785966379900000,6.13789990234375,0.7302572253108024,1.0643031558297573,-1.5233569835036993
1772785966389916000,6.147916015625,0.6869125891029835,0.6675277974143624,-1.9913557496555148
1772785966399932000,6.157931884765625,0.6097352413982152,0.26120299528930335,-2.521174719904363
1772785966409948200,6.1679482421875,0.4467728766411543,-0.13772141265245152,-2.9989196579143402
1772785966419964200,6.177964111328125,0.26476737323999405,-0.44463148069828745,-3.384247593511641
1772785966429980200,6.187980224609375,0.12652969989478588,-0.7166101004913449,-3.5832781737327575
1772785966439996000,6.197995849609375,-0.07343173143565654,-0.9089676326893269,-3.5740380517005916
1772785966450012000,6.208011962890625,-0.28637247132658955,-0.969725760512799,-3.3699881820127366
1772785966460028000,6.21802783203125,-0.5531307261228561,-0.7747714898198843,-3.0001702424973247
1772785966470044000,6.2280439453125,-0.7526543505579233,-0.61433309058249,-2.5201754797339437
1772785966480060200,6.23806005859375,-0.9649357497572898,-0.5949311650959774,-2.1098209471687674
1772785966490076200,6.248076171875,-0.917692937067151,-0.33387437334433195,-1.7791145363360643
1772785966500092000,6.258091796875,-0.7302794371426105,-0.10693079053144901,-1.560940864227712
1772785966510108000,6.26810791015625,-0.5320318239927292,-0.1236283158974722,-1.2991077908739448
1772785966520124000,6.2781240234375,-0.24374328991174696,-0.14523366971239446,-1.0585136126428842
1772785966530140000,6.288139892578125,0.10874386783540248,-0.07819514644518494,-0.8771632121495903
1772785966540156000,6.298156005859375,0.3931991073638201,-0.07615395947378129,-0.7205871874287724
1772785966550172200,6.308172119140625,0.5812766241550446,-0.10062233803700656,-0.5984814779886976
1772785966560188200,6.318188232421875,0.72343585485816,-0.05859342407025397,-0.46595330486409364
1772785966570204000,6.328203857421875,0.825865717241168,0.020549743814766406,-0.389293587825261
1772785966580220000,6.338219970703125,0.8226257124066353,0.04501439605094492,-0.34721546442192047
1772785966590236000,6.34823583984375,0.7448726106405258,-0.007830584027804434,-0.2966272502940148
1772785966600252000,6.358251953125,0.6890776581823825,-0.09877320303898304,-0.25248371879346665
1772785966610268200,6.36826806640625,0.722713970324397,-0.2033482242245227,-0.20239033897779882
1772785966620284200,6.3782841796875,0.7817553573578596,-0.3538631222754717,-0.21000158116649836
1772785966630300200,6.388300048828125,0.806363144391775,-0.5616394286079331,-0.29140918685216455
1772785966640316000,6.39831591796875,0.8592886788934468,-0.6914489173583686,-0.3725578493406996
1772785966650332000,6.408331787109375,0.8681219736903906,-0.8300408109687268,-0.4717290752539411
1772785966660348000,6.418347900390625,0.8490162912040948,-0.9276452990218996,-0.5530146985277533
1772785966670364000,6.428364013671875,0.7511731720894574,-1.015966702684015,-0.57976052050367
1772785966680380200,6.438380126953125,0.6845148803114891,-1.0109487283915282,-0.5588150553695858
1772785966690396200,6.448396240234375,0.6054594637751579,-0.9224107593692839,-0.5430785570554435
1772785966700412200,6.458412109375,0.47915071315467356,-0.780704679261148,-0.5154873702965677
1772785966710428000,6.468427978515625,0.3769207572579384,-0.69717197118029,-0.4257260700244456
1772785966720444000,6.47844384765625,0.24119185186326503,-0.7328159698829054,-0.38494748491235076
1772785966730460000,6.4884599609375,0.1702285563677549,-0.7185469137728214,-0.3556570564875379
1772785966740476000,6.498475830078125,0.10101415036618709,-0.748758804424107,-0.33539650487769396
1772785966750492200,6.5084921875,0.10069967758953571,-0.7610689815513789,-0.3335268020156771
1772785966760508200,6.518508056640625,0.21499650337696075,-0.7747570959683507,-0.2703098828632384
1772785966770524000,6.52852392578125,0.36525136225223537,-0.7795793284930288,-0.2259217654844746
1772785966780540000,6.538539794921875,0.5153296955168247,-0.7252581749144941,-0.14401914282348005
1772785966790556000,6.548555908203125,0.6669342154353857,-0.7466850668899715,-0.06367898370623588
1772785966800572000,6.558572021484375,0.7350111418396235,-0.8768407021969556,-0.020025975668989122
1772785966810588000,6.568587890625,0.7984972333222627,-0.9580492051139473,-0.03941896893037483
1772785966820604200,6.578604248046875,0.7909580699890851,-0.8986234949380159,-0.08771768388161436
1772785966830620200,6.5886201171875,0.7004910326004028,-0.7573237306084484,-0.1987882776315324
1772785966840636000,6.598635986328125,0.6150836166888475,-0.5929408680615946,-0.23528109344951806
1772785966850652000,6.60865185546875,0.5791296752542257,-0.5397103592639788,-0.25507689535813405
1772785966860668000,6.61866796875,0.4883031569033861,-0.49312454917784776,-0.34779578506052494
1772785966870684000,6.628683837890625,0.3889011179089546,-0.4815752368878573,-0.4672765162918716
1772785966880700200,6.6387001953125,0.2649953367769718,-0.5645592981100082,-0.5760717124557122
1772785966890716200,6.648716064453125,0.12837503550052642,-0.6877067351553589,-0.7291147042121737
1772785966900732200,6.658732177734375,0.03031856589615345,-0.8239673362739384,-0.9606156946010888
1772785966910748000,6.668747802734375,-0.0543716416567564,-0.9718980630505829,-1.2337943378336726
1772785966920764000,6.678763916015625,-0.13355273039937018,-1.1376282850857824,-1.562021791332215
1772785966930780000,6.68877978515625,-0.20687223363220691,-1.2975152609854936,-1.8230346343442796
1772785966940796000,6.6987958984375,-0.3215373082101345,-1.5429066103652118,-2.133085502900183
1772785966950812200,6.708812255859375,-0.43685295565128324,-1.8037544720739125,-2.4217823255211113
1772785966960828200,6.718828125,-0.48233460388779636,-1.9998186037048695,-2.666717747826874
1772785966970844000,6.728843994140625,-0.4917091659545898,-2.160352572271228,-2.8356156401127577
1772785966980860000,6.73885986328125,-0.4739928920000791,-2.265873240276426,-2.9167943324133754
1772785966990876000,6.7488759765625,-0.5100964710384607,-2.2231156101763245,-2.940586126889288
1772785967000892000,6.758891845703125,-0.6344067413181066,-1.784329640635848,-2.8979987387895583
1772785967010908000,6.768907958984375,-0.8527472944259643,-1.053142075672373,-2.6259409162804483
1772785967020924200,6.778924072265625,-1.1576076086014508,-0.3171737427057698,-2.070439223242551
1772785967030940200,6.788940185546875,-1.4673592019498347,0.297347490859963,-1.266462973987311
1772785967040956000,6.798955810546875,-1.811730273258686,0.8951135871209204,-0.28430779388174415
1772785967050972000,6.808971923828125,-2.119450653040409,1.5340706852197645,0.7483255275733769
1772785967060988000,6.81898779296875,-2.457749126437306,2.037992559276521,1.577419266950339
1772785967071004000,6.82900390625,-2.659845231708884,2.296318501292169,2.1251094094544647
1772785967081020200,6.839020263671875,-2.7253882557213305,2.380300706706196,2.3178332907468078
1772785967091036200,6.8490361328125,-2.7152023772716523,2.4275115168228742,2.049743641216308
1772785967101052200,6.85905224609375,-2.2045219688653943,2.0227114035144447,1.248856444017589
1772785967111068000,6.86906787109375,-1.2957143490433691,1.4226163893818855,0.48490949587710197
1772785967121084000,6.879083984375,-0.2535316934764385,0.7148563886918127,-0.21337012601783498
1772785967131100000,6.889099853515625,0.6978840649724006,-0.015653112613316623,-0.9887717487011104
1772785967141116000,6.899115966796875,1.621450862509012,-0.40229854228366163,-1.6780641456127166
1772785967151132200,6.909132080078125,2.325200604644418,-0.6422971292417496,-2.0138314930967987
1772785967161148200,6.919148193359375,2.8251263948023317,-0.6847895325344056,-1.8497995994120835
1772785967171164200,6.9291640625,3.1305963653087616,-0.4974499015636742,-1.2906443523027002
1772785967181180000,6.939179931640625,3.1155934419661757,-0.08890830017197876,-0.5892434017831459
1772785967191196000,6.94919580078125,2.700338570138812,0.4588315632253885,0.09776252815909683
1772785967201212000,6.9592119140625,2.0085539910852908,0.8443995181236416,0.5887758208040148
1772785967211228000,6.969227783203125,1.14539343919456,1.2638682813189923,0.9224313637658953
1772785967221244200,6.979244140625,0.3643056058347225,1.6656585452869535,1.1348542903278023
1772785967231260200,6.98926025390625,-0.1301011286407709,1.818406243891269,1.2846207080990075
1772785967241276000,6.99927587890625,-0.3126940765410661,1.8791260855309664,1.379505561929941
1772785967251292000,7.0092919921875,-0.2488531802713871,1.8671157681331036,1.4889233835041522
1772785967261308000,7.019307861328125,0.037463761475682256,1.8512043516434729,1.5684119307607411
1772785967271324000,7.029323974609375,0.4415992733955383,1.8472075370922683,1.6529805577605963
1772785967281340000,7.03933984375,0.7940104432970285,1.6821220427013932,1.713120992077142
1772785967291356200,7.049356201171875,1.0339596016228199,1.5229470875285565,1.6447425985082984
1772785967301372200,7.0593720703125,1.0777543196856976,1.3166031155541538,1.417408299344778
1772785967311387600,7.0693876953125,0.977962404590845,1.0333675540138036,1.0832210606589914
1772785967321403400,7.0794033203125,0.7611825249284505,0.7616520421363413,0.80951517868191
1772785967331419400,7.08941943359375,0.4026134169191122,0.5286360075419768,0.5143660381164401
1772785967341435400,7.099435302734375,-0.021495792493224142,0.4467878915471956,0.24535810469724237
1772785967351451400,7.109451416015625,-0.3851321207642555,0.41803482140209525,0.13825447834953664
1772785967361467600,7.119467529296875,-0.6186462776064873,0.4005201344342902,0.11875650861002504
1772785967371483600,7.129483642578125,-0.7435545137792825,0.29971476798057556,0.022890461722016333
1772785967381499600,7.139499755859375,-0.7195446926385164,0.16601870185406878,-0.03848214473798871
1772785967391515400,7.149515380859375,-0.5393640665769577,0.06098618269199505,-0.03323291897289455
1772785967401531400,7.159531494140625,-0.2961310642749071,-0.04058605821467936,0.03090732556954026
1772785967411547400,7.16954736328125,-0.018244097220897672,-0.14083026538798585,0.13505195598118006
1772785967421563400,7.1795634765625,0.2982370966434479,-0.2320597567828372,0.2293608365550637
1772785967431579600,7.18957958984375,0.6019020635545254,-0.30888982541989535,0.3124675743088126
1772785967441595600,7.199595703125,0.8409621640861034,-0.3777002171978354,0.3683479400280863
1772785967451611400,7.209611328125,0.990922423928976,-0.5127679187374189,0.38114991926029324
1772785967461627400,7.21962744140625,1.1253577823817729,-0.6480262474782764,0.3453686309788376
1772785967471643400,7.229643310546875,1.1116039823174475,-0.7226715194221586,0.2642891612689942
1772785967481659400,7.239659423828125,0.9627326867550611,-0.7779629062723368,0.1590016444325447
1772785967491675600,7.249675537109375,0.7516974882245063,-0.8467340985510498,0.11326083380319177
1772785967501691600,7.259691650390625,0.4627963752031326,-0.8728744289144873,-0.013811229339987038
1772785967511707600,7.269707763671875,0.1399918235361576,-0.8500902771111577,-0.17660137933529912
1772785967521723400,7.279723388671875,-0.13343991767466068,-0.7833475949853658,-0.2826791697666049
1772785967531739400,7.289739501953125,-0.3651116615206003,-0.6649048284996301,-0.2925006718832999
1772785967541755400,7.29975537109375,-0.5859592290133238,-0.5700649828542024,-0.2607950355429202
1772785967551771400,7.309771484375,-0.8376601999312638,-0.5231968486953527,-0.16063713667988777
1772785967561787600,7.31978759765625,-1.029513143607974,-0.5035996563650668,-0.04506846432574093
1772785967571803600,7.3298037109375,-1.0358306561917066,-0.46650633563697336,-0.006804565448313951
1772785967581819600,7.339819580078125,-0.7906547031283379,-0.4221034225478768,0.01812843495197594
1772785967591835400,7.34983544921875,-0.43611178189516064,-0.3945092401143163,0.0415652054451406
1772785967601851400,7.359851318359375,-0.049125557696819304,-0.4122544479023665,0.051331689438968896
1772785967611867400,7.369867431640625,0.3413473395735025,-0.34747122928127644,0.06562825461048633
1772785967621883400,7.37988330078125,0.5079278948277235,-0.29226452503986655,0.05038680980429053
1772785967631899600,7.389899658203125,0.5265262123137712,-0.2733265272706747,0.01718194788210094
1772785967641915600,7.39991552734375,0.47099487922787664,-0.3261549580734223,-0.0427176268832758
1772785967651931600,7.409931640625,0.35259178716540335,-0.3683019819945097,-0.07628522117063402
1772785967661947400,7.419947509765625,0.2163660381644964,-0.4028568702861666,-0.07634805727377533
1772785967671963400,7.42996337890625,0.09200900613367557,-0.4786830956429243,-0.020063275472074746
1772785967681979400,7.4399794921875,0.017456746235489845,-0.5619990191679447,0.0808222800783813
1772785967691995400,7.449995361328125,-0.06559037028551101,-0.615136442854628,0.10864837157167494
1772785967702011600,7.46001171875,-0.08535597798526287,-0.7193835107274353,0.018214651930704713
1772785967712027600,7.470027587890625,0.034327217015624044,-0.8315785419300198,-0.12380195543132722
1772785967722043400,7.48004345703125,0.1428542272299528,-0.9916904856920242,-0.24723485835455355
1772785967732059400,7.490059326171875,0.26469606156945225,-1.1093659210670739,-0.2775749784953892
1772785967742075400,7.500075439453125,0.2530786890119314,-1.137729334307462,-0.33888686774410304
1772785967752091400,7.51009130859375,0.20504034202992916,-1.0982720609270036,-0.37838169665597376
1772785967762107600,7.520107666015625,0.05476093323528766,-1.0698888470076025,-0.2645308610703796
1772785967772123600,7.53012353515625,-0.0006914893954992294,-0.631036826493591,0.20290749471969902
1772785967782139600,7.5401396484375,-0.06842237884104252,-0.334503063169308,0.5797052831850945
1772785967792155400,7.5501552734375,-0.14252104975283145,-0.1993909014334902,0.7698474043559282
1772785967802171400,7.56017138671875,-0.1990957544118166,0.0741523738604039,0.7903820967320352
1772785967812187400,7.5701875,-0.3981646208167076,0.3002421528555453,0.7362807233840226
1772785967822203400,7.580203369140625,-0.5450006111592054,0.30578711016420274,0.8522493548411876
1772785967832219600,7.5902197265625,-0.625702041336894,0.22384481307994572,1.0476482274964452
1772785967842235600,7.600235595703125,-0.8419751405209303,0.16618304383661597,1.216994009680301
1772785967852251600,7.610251708984375,-1.1661544876724481,0.16401501561515033,1.2941302947223186
1772785967862267400,7.620267333984375,-1.6233189944684505,0.35330066608712074,1.1403184740178287
1772785967872283400,7.630283447265625,-2.0541034438610075,1.0850006375521422,1.0976447958741335
1772785967882299400,7.64029931640625,-2.2520739936351775,1.6638162784211337,1.0927554163973778
1772785967892315400,7.6503154296875,-2.2162229280531407,1.9386660697363316,1.0851049747094512
1772785967902331600,7.66033154296875,-2.012637461006641,1.9570169883325694,1.134652118819207
1772785967912347600,7.67034765625,-1.6117822859317064,1.846915276147425,1.1864938766721635
1772785967922363400,7.68036328125,-1.1839701303482055,1.717000171598047,1.1477606067173183
1772785967932379400,7.69037939453125,-0.7192623685657977,1.6329137751571834,1.0648747451726346
1772785967942395400,7.7003955078125,-0.26224282319843767,1.5426494207337498,0.9092412619989365
1772785967952411400,7.710411376953125,0.17283844660520553,1.4486850427486002,0.6607167291600257
1772785967962427600,7.720427734375,0.5954027646631002,1.3081535593777893,0.34898148771375415
1772785967972443600,7.730443603515625,0.9868354468762874,1.10868531839177,-0.06994082057997585
1772785967982459600,7.740459716796875,1.2929828782528638,0.762654935568571,-0.5719438554033637
1772785967992475400,7.750475341796875,1.4394745852023363,0.35837007830590006,-1.0515140360791235
1772785968002491400,7.760491455078125,1.4848831682026384,0.03869934941893443,-1.493365311474353
1772785968012507400,7.77050732421875,1.436750128674507,-0.2784027162901126,-1.845030631444603
1772785968022523400,7.7805234375,1.3720727815806866,-0.571280276928097,-2.1818583016365767
1772785968032539600,7.79053955078125,1.2127689393311738,-0.9331208078235387,-2.48962456638664
1772785968042555600,7.8005556640625,0.7498001301705837,-1.217153511090949,-2.617714939726889
1772785968052571600,7.810571533203125,0.17510288440585137,-1.2361984763659537,-2.593477155049145
1772785968062587400,7.82058740234375,-0.38848318475782867,-1.132193254425004,-2.490241236980259
1772785968072603400,7.830603271484375,-0.9066238460421562,-0.9927157370865345,-2.3416803225412965
1772785968082619400,7.840619384765625,-1.3304355338126421,-0.8575421274870634,-2.0705346464410423
1772785968092635400,7.850635498046875,-1.578134283351898,-1.3042550906345247,-1.9803582625620066
1772785968102651600,7.860651611328125,-1.6317355251580477,-1.7772523957259951,-1.804047902062535
1772785968112667600,7.870667724609375,-1.3583447004795073,-1.6442591989055275,-1.4189704340949654
1772785968122683600,7.88068359375,-1.0353770672053098,-1.1893939820278436,-1.1310424769546836
1772785968132699400,7.890699462890625,-0.6168892048060893,-0.769331636853516,-0.9223379133287817
1772785968142715400,7.90071533203125,-0.27447920443713664,-0.5064950490130111,-0.6860229467868805
1772785968152731400,7.9107314453125,0.14383739304840565,-0.27186759716663506,-0.32313904431834817
1772785968162747400,7.920747314453125,0.44909927376210684,-0.15704380662934853,-0.020600304958224295
1772785968172762400,7.930762451171875,0.534601966741681,-0.16688896361626684,0.18866759163886307
1772785968182778600,7.940778564453125,0.52291035990417,-0.06722545610747765,0.3687198420803994
1772785968192794600,7.950794677734375,0.4994669404745102,0.031300788716401434,0.44077480527013535
1772785968202810600,7.960810546875,0.6478261948615313,0.08304773757550865,0.4435685276418924
1772785968212826400,7.970826416015625,0.8630623522132634,0.15177843344705177,0.6377220764111727
1772785968222842400,7.98084228515625,0.865817788401246,0.1602513157000765,0.6966371336512267
1772785968232858400,7.9908583984375,0.680188249284029,0.06604293179202358,0.6830206231657415
1772785968242874400,8.000874267578125,0.6491197418034076,-0.04315325095471926,0.6558229657690972
1772785968252890600,8.010890625,0.8334358602344989,-0.11896177625800482,0.6254232243955135
1772785968262906600,8.02090673828125,1.1872376077115534,-0.3584225756781175,0.5638504191882908
1772785968272922600,8.030922607421875,1.3937965376108885,-0.7719970566704869,0.4213931553866714
1772785968282938400,8.0409384765625,1.1983663199692964,-1.1610913590639829,0.16661745319850743
1772785968292954400,8.050954345703126,0.9798808054327964,-1.3408457225374877,-0.1941434657666832
1772785968302970400,8.060970458984375,0.695527857235074,-1.4824061105646191,-0.4778421147741377
1772785968312986600,8.070986572265625,0.4253974956572056,-1.5742957281023262,-0.6434674151301384
1772785968323002600,8.081002685546874,0.27337738067507744,-1.7475801649093627,-0.7446626942168921
1772785968333018600,8.0910185546875,0.13390636614263057,-1.8203981483608482,-0.8444909957993775
1772785968343034600,8.10103466796875,-0.006741875475645065,-1.6361822754338382,-0.8230117891147732
1772785968353050400,8.11105029296875,0.0985913071334362,-1.5323346552073955,-0.6400498617716133
1772785968363066600,8.121066650390626,0.15835867035388945,-1.4707278016000984,-0.4836485360305756
1772785968373082600,8.13108251953125,-0.029922260054945943,-1.5133629743643104,-0.42942214806340634
1772785968383098600,8.1410986328125,-0.21635610129237173,-1.47078099309206,-0.5534483407046645
1772785968393114600,8.151114501953124,-0.22605858013927935,-1.4911824144773185,-0.722338268879801
1772785968403130600,8.161130615234375,-0.1308726975351572,-1.5219379104860127,-0.7644922339983284
1772785968413146400,8.171146484375,-0.008027239111065863,-1.4449778587937354,-0.7549694225672632
1772785968423162600,8.18116259765625,0.1438268716543913,-1.3002642674326896,-0.674860405324772
1772785968433178600,8.1911787109375,0.2493319036990404,-1.2792349234074354,-0.548786413308233
1772785968443194600,8.201194580078125,0.2874935843110084,-1.4011971692562102,-0.49981122386753557
1772785968453210600,8.211210693359375,0.22655659278929233,-1.4958613660737872,-0.518860353861004
1772785968463226600,8.2212265625,0.03465805640518665,-1.4378509295232593,-0.4355849084768444
1772785968473242600,8.23124267578125,-0.20828326947391032,-1.230611908405274,-0.3422193731676787
1772785968483258400,8.24125830078125,-0.5141185661613941,-0.7998031282890588,-0.31621275218650696
1772785968493274600,8.251274658203124,-0.7584405327439308,-0.390967183593288,-0.29004867562130093
1772785968503290600,8.26129052734375,-0.9088292471319437,-0.19122392505817115,-0.14610701848082244
1772785968513306600,8.271306640625,-1.0225970806092024,-0.21383871164396404,-0.10766615560129285
1772785968523322600,8.281322509765625,-0.9490782554119824,-0.33062845022566617,-0.12456146856173872
1772785968533338600,8.291338623046874,-0.7286661567270756,-0.32827772238105535,-0.10158449760004877
1772785968543354600,8.301354736328125,-0.5061018484443426,-0.24021372754611073,-0.09815554606467485
1772785968553370400,8.311370361328125,-0.23068156376481055,-0.4174504821754992,-0.0784385998122394
1772785968563386600,8.32138671875,-0.07774374941587447,-0.7730065259739756,0.017226225415244698
1772785968573402600,8.331402587890626,-0.20015490807592867,-0.8840173158280551,0.1257050125736743
1772785968583418600,8.341418701171875,-0.5040998609721661,-0.804009201676771,0.1740980182122439
1772785968593434600,8.3514345703125,-0.804024472311139,-0.5737965705979615,0.17827325807027516
1772785968603450600,8.36145068359375,-1.0369979464054107,-0.2964701600361615,0.2052094880517572
1772785968613466600,8.371466552734375,-1.210437281513214,-0.007030263962969184,0.16006123648807405
1772785968623482400,8.381482421875,-1.2750620216369628,0.43609534221701324,0.3193373870130628
1772785968633498600,8.39149853515625,-1.2076122872203587,0.9998089102178811,0.6006624387569726
1772785968643514600,8.4015146484375,-1.074170615980029,1.5833333132997154,0.8372096066195517
1772785968653530600,8.411530517578125,-0.7206190438717603,1.962747348678112,1.1014064864952116
1772785968663545600,8.421545654296875,-0.20579495978951454,2.1108141959898172,1.2946563644230364
1772785968673561600,8.4315615234375,0.31826573919355866,2.056421511545032,1.3605112308636307
1772785968683577600,8.44157763671875,0.7219593525648117,1.8540405979827046,1.276816464088857
1772785968693593600,8.451593505859375,1.0318412942945956,1.5730775844842195,0.8884105092857032
1772785968703609300,8.461609375,1.1061229205578564,1.3262972649641334,0.6691288759354501
1772785968713625600,8.47162548828125,0.9020984775722026,1.241182986780256,0.5552472798854112
1772785968723641600,8.4816416015625,0.7317004098564386,1.5450561896145343,0.23066479529310016
1772785968733657600,8.49165771484375,0.8671347162187099,1.4945667962186038,0.21416355968415735
1772785968743673600,8.501673583984376,0.6510141772478818,1.0853934362620115,0.08838515308070927
1772785968753689600,8.511689697265625,0.9005804742246866,1.0916763159237801,-0.05005534936022013
1772785968763705600,8.52170556640625,0.875512083941698,1.1845439847134054,-0.20456771954949943
1772785968773721600,8.5317216796875,0.9279828604131937,1.2204846282750368,-0.32633977658841756
1772785968783737600,8.541737548828126,1.0820172378271817,1.185781125292927,-0.3194176491750404
1772785968793753600,8.551753662109375,1.1444091043323277,1.0655141390547156,-0.19350129540562627
1772785968803769600,8.56176953125,1.2454302689611911,0.9673267365470528,-0.20283669450581074
1772785968813785600,8.57178564453125,1.433824012094736,1.0966729551672936,-0.2868904673187062
1772785968823801600,8.581801513671875,1.6456126593410967,1.102655975099653,-0.2284939540600404
1772785968833817600,8.591817626953125,1.627280883836746,0.8702673151560127,-0.26946272798199206
1772785968843833600,8.60183349609375,1.4608113877415656,1.1530771255649626,-0.4759954274615273
1772785968853849600,8.611849609375,0.9930343015164136,1.0285826578248292,-0.6521561138246208
1772785968863865600,8.621865478515625,0.29184885691106316,1.1098318580783904,-0.6124861475415527
1772785968873881600,8.631881591796875,-0.10911387019157409,1.4037515299141405,-0.4611368444930762
1772785968883897600,8.641897705078126,-0.32370413085520267,1.5373378703221678,-0.23903229920919983
1772785968893913600,8.65191357421875,-0.25913375126719473,1.5972215533986687,0.07832739452272654
1772785968903929300,8.661929443359375,-0.1746393585473299,1.6211811056569219,0.14172175260130315
1772785968913945600,8.671945556640624,-0.1523614757657051,1.6154979454539715,0.10359375506322831
1772785968923961600,8.681961669921876,-0.1997965961575508,1.5293676220953463,0.09702456927336751
1772785968933977600,8.6919775390625,-0.2101011325508356,1.3608069989398122,0.01577262907344848
1772785968943993600,8.70199365234375,-0.15397066452801228,1.101249615433067,-0.030675379977189002
1772785968954009600,8.712009521484376,-0.06917524303495884,0.7668412813425064,-0.10047872831523418
1772785968964025600,8.722025634765625,0.06898468889892101,0.39251149042584,-0.15534326805546878
1772785968974041600,8.73204150390625,0.10024550408124923,0.04991210496462881,-0.15003690527565777
1772785968984057600,8.7420576171875,0.16290274352431297,-0.13591054557189344,-0.0886478591375053
1772785968994073600,8.752073486328126,0.2616138776451349,-0.20746333139315246,0.07951481420900672
1772785969004089600,8.762089599609375,0.29379823741316796,-0.16235117405615745,0.18685948277097195
1772785969014105600,8.772105712890625,0.33032910195291043,0.04628872683569789,0.27142599087897684
1772785969024121600,8.78212158203125,0.01601005455851555,0.4951202165070921,0.31033870905395594
1772785969034136600,8.792136474609375,-0.10631517938375472,0.8912341884043067,-0.014951850742474198
1772785969044152600,8.802152587890625,-0.3406599418312311,1.1639202258143573,0.053914509006403384
1772785969054168600,8.81216845703125,-0.4744377131581306,1.0683504584591834,0.41503830646723505
1772785969064184600,8.8221845703125,-0.3434358362853527,0.8466367756564169,0.4615988725142553
1772785969074200600,8.83220068359375,-0.4151303686648607,0.5989565116219222,0.25883549897298214
1772785969084216600,8.842216552734374,-0.403566772121191,0.4497011851780116,0.1226629779966548
1772785969094232600,8.852232666015626,-0.35214813505113124,0.29801417460776863,0.07985208333935588
1772785969104248600,8.86224853515625,-0.3437479709744453,0.18967888757325707,0.01795589139666408
1772785969114264600,8.8722646484375,-0.2974035684287548,0.06268814603798091,-0.12445019020698964
