time,seconds_elapsed,z,y,x
1772785960300160800,0.058160888671875,-0.10311205685138702,-0.5144438743591309,0.4347568452358246
1772785960310177500,0.068177490234375,-0.04377523064613342,-0.7049887776374817,0.43963149189949036
1772785960320193500,0.078193603515625,0.09218791127204895,-0.6250349879264832,0.4363093972206116
1772785960330209800,0.088209716796875,0.3578832149505615,-0.36955952644348145,0.39565595984458923
1772785960340225800,0.098225830078125,0.7852059006690979,0.10170332342386246,0.38399866223335266
1772785960350241500,0.108241455078125,1.1796698570251465,0.12221205979585648,0.3139790892601013
1772785960360257500,0.118257568359375,1.2822233438491821,-0.17570164799690247,0.22644871473312378
1772785960370273500,0.1282734375,1.2379562854766846,-0.3077782094478607,0.20031484961509705
1772785960380289500,0.13828955078125,1.104028344154358,-0.3392012417316437,0.14464685320854187
1772785960390306800,0.148306884765625,0.9675286412239075,-0.31569379568099976,0.08553425967693329
1772785960400322600,0.158322509765625,0.889252781867981,-0.301235556602478,0.04751360043883324
1772785960410338600,0.168338623046875,0.850382924079895,-0.39893200993537903,0.007135285530239344
1772785960420354600,0.1783544921875,0.8387841582298279,-0.5074471235275269,-0.07212387025356293
1772785960430370600,0.18837060546875,0.8279001116752625,-0.5258561968803406,-0.1922428160905838
1772785960440386600,0.198386474609375,0.778931736946106,-0.48770639300346375,-0.31100672483444214
1772785960450402800,0.20840283203125,0.6860060691833496,-0.4575343728065491,-0.37811440229415894
1772785960460418800,0.218418701171875,0.5815231204032898,-0.434281587600708,-0.3566276729106903
1772785960470434600,0.2284345703125,0.5073903203010559,-0.3816410303115845,-0.24197672307491302
1772785960480450600,0.238450439453125,0.44589704275131226,-0.3359072506427765,-0.102024607360363
1772785960490466600,0.248466552734375,0.37293386459350586,-0.22022351622581482,-0.01858111470937729
1772785960500482600,0.258482666015625,0.2566744089126587,-0.05416284501552582,-0.061739228665828705
1772785960510498600,0.26849853515625,0.10192476958036423,0.1278327852487564,-0.26333945989608765
1772785960520514800,0.278514892578125,-0.047791022807359695,0.35635650157928467,-0.5708523988723755
1772785960530531600,0.288531494140625,-0.1553739309310913,0.5984596610069275,-0.9086006283760071
1772785960540547600,0.298547607421875,-0.20737871527671814,0.7254129648208618,-1.1405137777328491
1772785960550563600,0.3085634765625,-0.21881219744682312,0.6940971612930298,-1.1955296993255615
1772785960560579600,0.31857958984375,-0.2021302431821823,0.5725594162940979,-1.0952320098876953
1772785960570595800,0.328595947265625,-0.19190636277198792,0.4002230763435364,-0.9156539440155029
1772785960580611600,0.338611572265625,-0.20962955057621002,0.2546288073062897,-0.7206850647926331
1772785960590627600,0.348627685546875,-0.2048635631799698,0.21840158104896545,-0.5743212103843689
1772785960600643600,0.3586435546875,-0.15733422338962555,0.2471405416727066,-0.4697253704071045
1772785960610659600,0.36865966796875,-0.07722900062799454,0.255315899848938,-0.3885330557823181
1772785960620675600,0.378675537109375,0.03247982636094093,0.27545690536499023,-0.3144311308860779
1772785960630691600,0.388691650390625,0.14771027863025665,0.24316979944705963,-0.2430104911327362
1772785960640707800,0.398707763671875,0.26605522632598877,0.1376952826976776,-0.19229336082935333
1772785960650723600,0.4087236328125,0.3816438913345337,-0.004212589934468269,-0.17090950906276703
1772785960660739600,0.418739501953125,0.4960971176624298,-0.1267649531364441,-0.18747909367084503
1772785960670756600,0.428756591796875,0.6034451723098755,-0.21799792349338531,-0.2166934311389923
1772785960680772600,0.438772705078125,0.6998458504676819,-0.28221771121025085,-0.21209733188152313
1772785960690788600,0.44878857421875,0.8068769574165344,-0.31265443563461304,-0.1436503678560257
1772785960700804600,0.4588046875,0.9239089488983154,-0.2941552698612213,-0.050301652401685715
1772785960710820600,0.468820556640625,1.0155819654464722,-0.25830966234207153,0.02746744453907013
1772785960720836600,0.478836669921875,1.054568886756897,-0.21016168594360352,0.06954799592494965
1772785960730852600,0.4888525390625,1.0562471151351929,-0.15765079855918884,0.057430874556303024
1772785960740868600,0.49886865234375,1.0139116048812866,-0.09514817595481873,0.009429864585399628
1772785960750884600,0.508884521484375,0.9264760613441467,-0.006480890326201916,-0.0507916659116745
1772785960760900600,0.518900634765625,0.7914722561836243,0.11169686913490295,-0.1490016132593155
1772785960770916600,0.52891650390625,0.6307147741317749,0.25178685784339905,-0.2812137007713318
1772785960780932600,0.5389326171875,0.4465474784374237,0.43095606565475464,-0.4281262159347534
1772785960790948600,0.548948486328125,0.23666615784168243,0.6575548648834229,-0.5629251003265381
1772785960800964600,0.558964599609375,0.02609051950275898,0.8749672770500183,-0.6653904318809509
1772785960810980600,0.568980712890625,-0.16393721103668213,1.0176905393600464,-0.7357649803161621
1772785960820997600,0.57899755859375,-0.3270111680030823,1.0835528373718262,-0.7779303789138794
1772785960831013600,0.589013671875,-0.4612105190753937,1.0811604261398315,-0.7866540551185608
1772785960841029600,0.599029541015625,-0.5530712604522705,1.0109379291534424,-0.7573615908622742
1772785960851045600,0.609045654296875,-0.5827834010124207,0.9329289793968201,-0.6883148550987244
1772785960861061600,0.6190615234375,-0.5492227077484131,0.8634594082832336,-0.5832710862159729
1772785960871077600,0.62907763671875,-0.48879584670066833,0.794607937335968,-0.4585787057876587
1772785960881093600,0.63909375,-0.40821507573127747,0.757250964641571,-0.33343514800071716
1772785960891109600,0.649109619140625,-0.32435718178749084,0.7537025809288025,-0.21180939674377441
1772785960901125600,0.659125732421875,-0.2531532049179077,0.6837589740753174,-0.08919371664524078
1772785960911141600,0.6691416015625,-0.20541976392269135,0.5564311146736145,0.036190301179885864
1772785960921157600,0.67915771484375,-0.17654848098754883,0.4029505252838135,0.14458565413951874
1772785960931173600,0.689173583984375,-0.17136649787425995,0.22290219366550446,0.20008353888988495
1772785960941189600,0.699189697265625,-0.17786049842834473,0.022989146411418915,0.19086062908172607
1772785960951205600,0.70920556640625,-0.16418489813804626,-0.16274982690811157,0.1312958300113678
1772785960961221600,0.7192216796875,-0.13123904168605804,-0.3275848925113678,0.04341842979192734
1772785960971238700,0.72923876953125,-0.09798761457204819,-0.491576224565506,-0.051196761429309845
1772785960981254700,0.739254638671875,-0.05931363254785538,-0.6457927823066711,-0.12352828681468964
1772785960991270700,0.749270751953125,-0.020014163106679916,-0.772753119468689,-0.15136444568634033
1772785961001286400,0.759286376953125,0.01317797414958477,-0.8111549019813538,-0.12250296026468277
1772785961011302700,0.769302734375,0.029399022459983826,-0.7764227390289307,-0.050785891711711884
1772785961021318700,0.779318603515625,0.020179226994514465,-0.7013228535652161,0.041977252811193466
1772785961031334700,0.789334716796875,0.0017030159942805767,-0.6154260635375977,0.13963404297828674
1772785961041350700,0.7993505859375,-0.01658197119832039,-0.49512940645217896,0.224717915058136
1772785961051366700,0.80936669921875,-0.025706492364406586,-0.35293444991111755,0.2969236671924591
1772785961061382700,0.819382568359375,-0.023764075711369514,-0.23811163008213043,0.35365864634513855
1772785961071398700,0.829398681640625,-0.003756278660148382,-0.20341357588768005,0.37959304451942444
1772785961081414700,0.83941455078125,0.032986290752887726,-0.24714507162570953,0.3561473786830902
1772785961091430700,0.8494306640625,0.07329456508159637,-0.321396142244339,0.3053065538406372
1772785961101446700,0.85944677734375,0.11646828800439835,-0.3818930685520172,0.24633245170116425
1772785961111462700,0.869462646484375,0.15970709919929504,-0.40320369601249695,0.2191125452518463
1772785961121479400,0.8794794921875,0.23331566154956818,-0.3792661428451538,0.2152976244688034
1772785961131495700,0.88949560546875,0.3357323110103607,-0.29250994324684143,0.1968752145767212
1772785961141511700,0.89951171875,0.452049195766449,-0.14989833533763885,0.11236123740673065
1772785961151527700,0.909527587890625,0.5680221319198608,0.027142217382788658,-0.0429665669798851
1772785961161543700,0.919543701171875,0.5782497525215149,0.13663780689239502,-0.18699808418750763
1772785961171559700,0.9295595703125,0.5130636096000671,0.17599372565746307,-0.274853378534317
1772785961181575400,0.939575439453125,0.42656955122947693,0.12245671451091766,-0.2929186224937439
1772785961191591700,0.949591796875,0.38700056076049805,0.021370837464928627,-0.2579233646392822
1772785961201607700,0.959607666015625,0.4384503662586212,-0.04552260786294937,-0.22169950604438782
1772785961211623700,0.969623779296875,0.5444678664207458,-0.008069243282079697,-0.21633324027061462
1772785961221639700,0.9796396484375,0.5645818710327148,0.008392000570893288,-0.13904795050621033
1772785961231655700,0.98965576171875,0.47051316499710083,0.008303050883114338,0.022652793675661087
1772785961241671700,0.999671630859375,0.2761589586734772,0.04217752441763878,0.14136752486228943
1772785961251687400,1.0096875,0.03439691662788391,0.05603821203112602,0.17432920634746552
1772785961261703700,1.01970361328125,-0.19618186354637146,0.0315386988222599,0.09806506335735321
1772785961271720700,1.029720703125,-0.3835155665874481,-0.003988401498645544,-0.017019713297486305
1772785961281736700,1.03973681640625,-0.5350346565246582,-0.046953633427619934,-0.1151764839887619
1772785961291752700,1.049752685546875,-0.6316008567810059,-0.08553378283977509,-0.19534029066562653
1772785961301768400,1.0597685546875,-0.6608095169067383,-0.13021303713321686,-0.23347324132919312
1772785961311784700,1.06978466796875,-0.629444420337677,-0.18198782205581665,-0.1901412159204483
1772785961321800700,1.07980078125,-0.5496327877044678,-0.1966107189655304,-0.08242210000753403
1772785961331816700,1.089816650390625,-0.45037174224853516,-0.20259937644004822,0.0786948874592781
1772785961341832700,1.099832763671875,-0.3603397011756897,-0.18946191668510437,0.25687330961227417
1772785961351848700,1.1098486328125,-0.30654439330101013,-0.12935490906238556,0.3848041296005249
1772785961361864700,1.11986474609375,-0.2763383388519287,-0.06253430992364883,0.46552082896232605
1772785961371880700,1.129880615234375,-0.2427327036857605,-0.038114722818136215,0.5035315752029419
1772785961381896700,1.139896728515625,-0.15378810465335846,-0.03821515664458275,0.4920451045036316
1772785961391912700,1.14991259765625,-0.0020417124032974243,-0.06617754697799683,0.4388396739959717
1772785961401928700,1.1599287109375,0.17256903648376465,-0.10315665602684021,0.3588026762008667
1772785961411944700,1.16994482421875,0.353954553604126,-0.13399846851825714,0.24045391380786896
1772785961421960700,1.179960693359375,0.5188656449317932,-0.16132459044456482,0.10344739258289337
1772785961431976700,1.189976806640625,0.6320641040802002,-0.20722949504852295,-0.027913028374314308
1772785961441993700,1.19999365234375,0.6771542429924011,-0.23415064811706543,-0.1535027027130127
1772785961452009700,1.210009765625,0.6773795485496521,-0.19660300016403198,-0.27597135305404663
1772785961462025700,1.220025634765625,0.6375308632850647,-0.10834678262472153,-0.3816821277141571
1772785961472041700,1.230041748046875,0.571749746799469,0.005691907834261656,-0.48002469539642334
1772785961482057700,1.2400576171875,0.4864991009235382,0.1408206820487976,-0.6056102514266968
1772785961492073700,1.25007373046875,0.38373249769210815,0.26090019941329956,-0.7262195348739624
1772785961502089700,1.26008984375,0.26654183864593506,0.3558659553527832,-0.8243659138679504
1772785961512105700,1.270105712890625,0.1441858410835266,0.401458203792572,-0.8860231637954712
1772785961522121700,1.280121826171875,0.018737927079200745,0.40732529759407043,-0.9011120200157166
1772785961532137700,1.2901376953125,-0.08442707359790802,0.369406133890152,-0.8712819814682007
1772785961542153500,1.300153564453125,-0.1597013771533966,0.31870654225349426,-0.7889991402626038
1772785961552169700,1.310169677734375,-0.21893353760242462,0.25322580337524414,-0.6878733038902283
1772785961562185700,1.320185791015625,-0.27691492438316345,0.18542428314685822,-0.5785660147666931
1772785961572201700,1.33020166015625,-0.3344154953956604,0.1467386782169342,-0.4812828302383423
1772785961582217700,1.3402177734375,-0.38536569476127625,0.14904320240020752,-0.3931088447570801
1772785961592233700,1.350233642578125,-0.41047877073287964,0.14076344668865204,-0.3141935169696808
1772785961602250800,1.360250732421875,-0.42385122179985046,0.12486635148525238,-0.23421287536621094
1772785961612266800,1.370266845703125,-0.4081883728504181,0.10756326466798782,-0.16325055062770844
1772785961622282800,1.38028271484375,-0.3643307387828827,0.08733509480953217,-0.12339027225971222
1772785961632298800,1.390298828125,-0.3024740219116211,0.05759717524051666,-0.11835423111915588
1772785961642314800,1.400314697265625,-0.21660761535167694,0.035588596016168594,-0.14543680846691132
1772785961652330800,1.410330810546875,-0.11044282466173172,-0.015420258045196533,-0.18451523780822754
1772785961662346500,1.420346435546875,0.01764173060655594,-0.05620880424976349,-0.2210991531610489
1772785961672362800,1.43036279296875,0.1501779407262802,-0.08418238162994385,-0.25124695897102356
1772785961682378800,1.440378662109375,0.2895425856113434,-0.11013567447662354,-0.24682141840457916
1772785961692394800,1.450394775390625,0.42235255241394043,-0.14236551523208618,-0.18980766832828522
1772785961702410800,1.46041064453125,0.5379367470741272,-0.178810253739357,-0.09196241199970245
1772785961712426800,1.4704267578125,0.6230428218841553,-0.19887930154800415,-0.005862678401172161
1772785961722442800,1.48044287109375,0.663175106048584,-0.2013091742992401,0.018820563331246376
1772785961732458500,1.49045849609375,0.6621659994125366,-0.2104126513004303,-0.016446879133582115
1772785961742474800,1.500474853515625,0.6313506960868835,-0.21728576719760895,-0.07844073325395584
1772785961752490800,1.51049072265625,0.5896844863891602,-0.19855469465255737,-0.16215400397777557
1772785961762506800,1.5205068359375,0.5312725901603699,-0.1326259970664978,-0.2930852770805359
1772785961772523500,1.5305234375,0.4465883672237396,-0.03968485817313194,-0.4639100134372711
1772785961782539500,1.54053955078125,0.3317530155181885,0.04561302438378334,-0.6503711938858032
1772785961792555800,1.5505556640625,0.18885284662246704,0.13013537228107452,-0.7943006753921509
1772785961802571800,1.56057177734375,0.030813759192824364,0.2280997931957245,-0.8221280574798584
1772785961812587800,1.570587890625,-0.13543300330638885,0.3129158914089203,-0.6934260129928589
1772785961822603800,1.580603759765625,-0.29676681756973267,0.36247044801712036,-0.4359314441680908
1772785961832619800,1.590619873046875,-0.4305536448955536,0.3698330223560333,-0.1293424814939499
1772785961842635500,1.600635498046875,-0.5291381478309631,0.32100576162338257,0.1479026824235916
1772785961852651500,1.610651611328125,-0.5892342329025269,0.23283039033412933,0.34615424275398254
1772785961862667800,1.620667724609375,-0.6156935095787048,0.09749861806631088,0.4881083369255066
1772785961872683800,1.630683837890625,-0.6399453282356262,-0.09041056036949158,0.6073066592216492
1772785961882699800,1.64069970703125,-0.6451582312583923,-0.29053667187690735,0.7096957564353943
1772785961892715800,1.6507158203125,-0.68545001745224,-0.5072934627532959,0.7466694712638855
1772785961902731800,1.660731689453125,-0.7886946797370911,-0.7009782195091248,0.6668721437454224
1772785961912747500,1.67074755859375,-0.874106228351593,-0.75356125831604,0.46896520256996155
1772785961922763800,1.680763671875,-0.8894596695899963,-0.5985283851623535,0.17057070136070251
1772785961932779800,1.69077978515625,-0.8518206477165222,-0.31486231088638306,-0.15323667228221893
1772785961942795800,1.700795654296875,-0.7605218291282654,0.004407062195241451,-0.38112014532089233
1772785961952812500,1.7108125,-0.6461033821105957,0.27796241641044617,-0.4385991394519806
1772785961962828500,1.72082861328125,-0.5058303475379944,0.45017775893211365,-0.31691309809684753
1772785961972844500,1.730844482421875,-0.34790652990341187,0.5030567049980164,-0.051494747400283813
1772785961982860800,1.74086083984375,-0.16597013175487518,0.4395463764667511,0.29547998309135437
1772785961992876800,1.750876708984375,0.025556161999702454,0.27660059928894043,0.6421273946762085
1772785962002892800,1.760892822265625,0.18033643066883087,0.04394928365945816,0.9605244398117065
1772785962012908800,1.77090869140625,0.26565665006637573,-0.18492119014263153,1.218316912651062
1772785962022924500,1.780924560546875,0.3047717213630676,-0.29991570115089417,1.3186143636703491
1772785962032940500,1.7909404296875,0.3459306061267853,-0.3222638964653015,1.2697330713272095
1772785962042956500,1.80095654296875,0.3854951858520508,-0.322797566652298,1.1462069749832153
1772785962052972800,1.810972900390625,0.38717323541641235,-0.30731502175331116,0.9395477771759033
1772785962062988800,1.82098876953125,0.2991844415664673,-0.2889385223388672,0.683830201625824
1772785962073004800,1.8310048828125,0.1182790994644165,-0.27444639801979065,0.4359931945800781
1772785962083020800,1.841020751953125,-0.08104538172483444,-0.20136703550815582,0.24080392718315125
1772785962093036500,1.85103662109375,-0.2656565010547638,-0.07902221381664276,0.12527653574943542
1772785962103052500,1.861052490234375,-0.4080519378185272,0.04791684448719025,0.12042969465255737
1772785962113068800,1.87106884765625,-0.4923013150691986,0.14357119798660278,0.24198248982429504
1772785962123085800,1.8810859375,-0.500079870223999,0.23532071709632874,0.4048181176185608
1772785962133101800,1.891101806640625,-0.4625841975212097,0.27593445777893066,0.5408878326416016
1772785962143117600,1.90111767578125,-0.4027295410633087,0.23796501755714417,0.6066457629203796
1772785962153133600,1.911133544921875,-0.3441290855407715,0.16986693441867828,0.6096200346946716
1772785962163149600,1.921149658203125,-0.2862997055053711,0.09489502012729645,0.584811270236969
1772785962173165800,1.931165771484375,-0.2221021056175232,0.018266821280121803,0.5414778590202332
1772785962183181800,1.941181884765625,-0.15647581219673157,-0.05179816856980324,0.48769617080688477
1772785962193197800,1.95119775390625,-0.09611234068870544,-0.11703895777463913,0.4132959842681885
1772785962203213600,1.961213623046875,-0.02549748495221138,-0.17897146940231323,0.3192271888256073
1772785962213229600,1.9712294921875,0.03972599282860756,-0.19157540798187256,0.24145063757896423
1772785962223245600,1.98124560546875,0.0880790650844574,-0.13477396965026855,0.20420369505882263
1772785962233261800,1.99126171875,0.12308764457702637,-0.025152672082185745,0.18277190625667572
1772785962243277800,2.00127783203125,0.14864900708198547,0.1228560209274292,0.15087120234966278
1772785962253293800,2.0112939453125,0.16886800527572632,0.2731432616710663,0.13405200839042664
1772785962263309800,2.021309814453125,0.17455540597438812,0.3750412166118622,0.15927936136722565
1772785962273325600,2.03132568359375,0.16415657103061676,0.4356134831905365,0.21871766448020935
1772785962283341600,2.041341552734375,0.14093147218227386,0.4701915681362152,0.298152893781662
1772785962293357600,2.051357666015625,0.09134235978126526,0.4974990785121918,0.3730356693267822
1772785962303374800,2.061374755859375,0.031600456684827805,0.5178647637367249,0.41989997029304504
1772785962313390300,2.071390380859375,-0.012841841205954552,0.5156823396682739,0.420315146446228
1772785962323406300,2.08140625,-0.015220878645777702,0.4683689475059509,0.38241705298423767
1772785962333422000,2.091422119140625,0.028707964345812798,0.38390305638313293,0.3380884826183319
1772785962343438000,2.10143798828125,0.10059472918510437,0.287946492433548,0.29582151770591736
1772785962353454000,2.1114541015625,0.18011245131492615,0.20152932405471802,0.25208017230033875
1772785962363470300,2.12147021484375,0.2746705114841461,0.17445950210094452,0.2096572369337082
1772785962373486300,2.131486328125,0.36913150548934937,0.16328994929790497,0.1664077639579773
1772785962383502300,2.14150244140625,0.44775390625,0.15941055119037628,0.10628917813301086
1772785962393518300,2.151518310546875,0.5027399063110352,0.13665463030338287,0.01899980939924717
1772785962403534000,2.1615341796875,0.5344952940940857,0.06416567414999008,-0.08537854999303818
1772785962413550000,2.171550048828125,0.5577518939971924,-0.036412063986063004,-0.197457417845726
1772785962423566000,2.181566162109375,0.5698414444923401,-0.13112300634384155,-0.2827751934528351
1772785962433582300,2.191582275390625,0.580613911151886,-0.20181767642498016,-0.30547598004341125
1772785962443598300,2.201598388671875,0.6015961766242981,-0.24395819008350372,-0.2646234333515167
1772785962453614300,2.2116142578125,0.6089358329772949,-0.26613831520080566,-0.19372636079788208
1772785962463630000,2.221630126953125,0.6240494251251221,-0.2878757417201996,-0.12578590214252472
1772785962473646000,2.23164599609375,0.6762803792953491,-0.32169413566589355,-0.08481475710868835
1772785962483663400,2.241663330078125,0.7836195826530457,-0.36339983344078064,-0.08017728477716446
1772785962493679400,2.251679443359375,0.817670464515686,-0.49249231815338135,-0.018064651638269424
1772785962503695400,2.2616953125,0.7904535531997681,-0.5877369046211243,0.08888998627662659
1772785962513711000,2.271711181640625,0.7378172278404236,-0.6014317274093628,0.14824733138084412
1772785962523727000,2.28172705078125,0.6558102965354919,-0.6287959218025208,0.14442238211631775
1772785962533743000,2.2917431640625,0.5715295076370239,-0.6729050874710083,0.1354171633720398
1772785962543759000,2.301759033203125,0.5265620350837708,-0.6893717646598816,0.12490357458591461
1772785962553775400,2.311775390625,0.49289196729660034,-0.6829000115394592,0.08332791179418564
1772785962563791400,2.321791259765625,0.45742663741111755,-0.6565394997596741,0.04169110953807831
1772785962573807400,2.331807373046875,0.42305055260658264,-0.6279163956642151,0.0065866513177752495
1772785962583823000,2.341822998046875,0.3860042691230774,-0.5428257584571838,-0.04360728710889816
1772785962593839000,2.351839111328125,0.3550271689891815,-0.39249640703201294,-0.11962482333183289
1772785962603855000,2.361855224609375,0.3504597842693329,-0.19084222614765167,-0.2267802208662033
1772785962613871000,2.37187109375,0.37550628185272217,0.03583965823054314,-0.3391059637069702
1772785962623887400,2.381887451171875,0.41285440325737,0.23329249024391174,-0.4491964876651764
1772785962633903400,2.3919033203125,0.4285910129547119,0.3492704927921295,-0.5682252049446106
1772785962643919000,2.401919189453125,0.36413681507110596,0.3736262023448944,-0.6742764711380005
1772785962653935000,2.41193505859375,0.2702651917934418,0.44426441192626953,-0.7936215400695801
1772785962663951000,2.421951171875,0.11797737330198288,0.6150927543640137,-0.8920015692710876
1772785962673967000,2.431967041015625,-0.08157568424940109,0.8651680946350098,-0.9446328282356262
1772785962683984400,2.441984375,-0.34024378657341003,1.019428014755249,-0.8884912729263306
1772785962694000000,2.452000244140625,-0.5610404014587402,1.0749621391296387,-0.7478345632553101
1772785962704016100,2.46201611328125,-0.7245271801948547,1.0275520086288452,-0.5408158302307129
1772785962714032000,2.4720322265625,-0.8034760355949402,0.9528987407684326,-0.3562030792236328
1772785962724048100,2.482048095703125,-0.8573240041732788,0.8672824501991272,-0.19737854599952698
1772785962734064000,2.492064208984375,-0.8745048642158508,0.809095561504364,-0.08021622896194458
1772785962744080400,2.502080322265625,-0.8497788906097412,0.764753520488739,-0.03359011560678482
1772785962754096400,2.512096435546875,-0.7718276381492615,0.7012688517570496,-0.06618187576532364
1772785962764112100,2.522112060546875,-0.6623278260231018,0.6287024021148682,-0.13625192642211914
1772785962774128000,2.532128173828125,-0.5512402057647705,0.5522981882095337,-0.19867855310440063
1772785962784144100,2.54214404296875,-0.42798060178756714,0.4422975778579712,-0.24101071059703827
1772785962794160000,2.55216015625,-0.2629740536212921,0.2906063199043274,-0.25169745087623596
1772785962804176100,2.562176025390625,-0.09053148329257965,0.13566060364246368,-0.20611432194709778
1772785962814192400,2.5721923828125,0.07512219995260239,-0.0047007594257593155,-0.1357429474592209
1772785962824208400,2.58220849609375,0.17884302139282227,-0.07983721047639847,-0.09823344647884369
1772785962834224000,2.59222412109375,0.22346481680870056,-0.11890392005443573,-0.08950094133615494
1772785962844240100,2.602240234375,0.19529560208320618,-0.07433302700519562,-0.10874580591917038
1772785962854256000,2.612256103515625,0.12872909009456635,-0.04744388535618782,-0.11046354472637177
1772785962864272100,2.622272216796875,0.06300038844347,0.01377702597528696,-0.10950947552919388
1772785962874289200,2.6322890625,0.05379410460591316,0.05140243098139763,-0.09919318556785583
1772785962884305200,2.64230517578125,0.08208277076482773,0.11637122184038162,-0.10311206430196762
1772785962894321200,2.652321044921875,0.12769553065299988,0.18138191103935242,-0.09524215757846832
1772785962904337200,2.662337158203125,0.1649976223707199,0.22228141129016876,-0.03399292007088661
1772785962914353200,2.672353271484375,0.17207764089107513,0.20638607442378998,0.028491497039794922
1772785962924369200,2.682369140625,0.15636569261550903,0.14696617424488068,0.05293770506978035
1772785962934385400,2.692385498046875,0.1322164088487625,0.0482928641140461,0.01634347438812256
1772785962944401200,2.702401123046875,0.10733085125684738,-0.04457729309797287,-0.08322912454605103
1772785962954417200,2.712417236328125,0.08266864717006683,-0.11936391890048981,-0.1957351714372635
1772785962964433200,2.72243310546875,0.06295549124479294,-0.18106596171855927,-0.2903534770011902
1772785962974449200,2.73244921875,0.04478447884321213,-0.23402585089206696,-0.3600500226020813
1772785962984465200,2.742465087890625,0.023013193160295486,-0.2371467798948288,-0.4182899594306946
1772785962994481400,2.7524814453125,-0.0027353139594197273,-0.17602618038654327,-0.449485182762146
1772785963004497400,2.762497314453125,-0.035482943058013916,-0.04866112023591995,-0.42788952589035034
1772785963014513200,2.77251318359375,-0.07060551643371582,0.13036589324474335,-0.34936168789863586
1772785963024529200,2.782529052734375,-0.11433667689561844,0.31564369797706604,-0.24361881613731384
1772785963034545200,2.792545166015625,-0.15463057160377502,0.4481056034564972,-0.1546785533428192
1772785963044561200,2.80256103515625,-0.1746613085269928,0.5028179287910461,-0.108451247215271
1772785963054577200,2.8125771484375,-0.1758405566215515,0.47561103105545044,-0.10288550704717636
1772785963064593400,2.822593505859375,-0.15982583165168762,0.35648030042648315,-0.12451284378767014
1772785963074610200,2.832610107421875,-0.11861393600702286,0.18536154925823212,-0.166097030043602
1772785963084626200,2.842626220703125,-0.07590596377849579,-0.003908650018274784,-0.21335461735725403
1772785963094642200,2.85264208984375,-0.03259071707725525,-0.17924131453037262,-0.24837438762187958
1772785963104658200,2.862658203125,0.026103531941771507,-0.28324180841445923,-0.27050596475601196
1772785963114674200,2.872674072265625,0.07956702262163162,-0.3306148946285248,-0.2536574602127075
1772785963124690200,2.882690185546875,0.13498014211654663,-0.31206613779067993,-0.19871731102466583
1772785963134706200,2.8927060546875,0.1790730357170105,-0.2544688880443573,-0.12680824100971222
1772785963144722200,2.90272216796875,0.20556558668613434,-0.20214007794857025,-0.03517735004425049
1772785963154738200,2.91273828125,0.22419865429401398,-0.18529266119003296,0.07519389688968658
1772785963164754200,2.922754150390625,0.25323033332824707,-0.20677679777145386,0.18373550474643707
1772785963174770200,2.932770263671875,0.2750786542892456,-0.25245800614356995,0.26965680718421936
1772785963184786400,2.942786376953125,0.308265745639801,-0.30983754992485046,0.3298663794994354
1772785963194802200,2.95280224609375,0.34131959080696106,-0.3568359315395355,0.37240320444107056
1772785963204818200,2.962818115234375,0.37820369005203247,-0.3952334225177765,0.3857334852218628
1772785963214834200,2.972834228515625,0.42667269706726074,-0.4185669720172882,0.3577471077442169
1772785963224850200,2.98285009765625,0.4814014434814453,-0.4123315215110779,0.2768179178237915
1772785963234866200,2.9928662109375,0.5369518399238586,-0.3654191493988037,0.15159130096435547
1772785963244882200,3.002882080078125,0.5777507424354553,-0.2929786741733551,-0.005576334428042173
1772785963254898400,3.0128984375,0.6063123345375061,-0.19160091876983643,-0.1628061681985855
1772785963264914200,3.0229140625,0.6441992521286011,-0.08289866149425507,-0.3059166669845581
1772785963274930200,3.03293017578125,0.69591224193573,0.005166750866919756,-0.4412689208984375
1772785963284946200,3.0429462890625,0.7517363429069519,0.10000967234373093,-0.5610777139663696
1772785963294963200,3.052963134765625,0.8022797107696533,0.19858871400356293,-0.6497300863265991
1772785963304979200,3.062979248046875,0.8465912938117981,0.31368374824523926,-0.7006621956825256
1772785963314995200,3.0729951171875,0.8236238956451416,0.421853631734848,-0.693755030632019
1772785963325011200,3.08301123046875,0.7119028568267822,0.49396854639053345,-0.618404746055603
1772785963335027200,3.093027099609375,0.5298963189125061,0.5467095375061035,-0.5010418891906738
1772785963345043200,3.103043212890625,0.3029034733772278,0.5793666839599609,-0.37657371163368225
1772785963355059200,3.11305908203125,0.05313625931739807,0.5493754744529724,-0.2767621576786041
1772785963365075500,3.123075439453125,-0.21481461822986603,0.44765302538871765,-0.18080835044384003
1772785963375091200,3.13309130859375,-0.465135782957077,0.3282456696033478,-0.07886068522930145
1772785963385107200,3.143107177734375,-0.6963105797767639,0.20013755559921265,0.016770783811807632
1772785963395123200,3.153123291015625,-0.9116545915603638,0.07462729513645172,0.10104571282863617
1772785963405139200,3.16313916015625,-1.081155776977539,-0.03459783270955086,0.17885099351406097
1772785963415155200,3.1731552734375,-1.2061699628829956,-0.119835764169693,0.23737236857414246
1772785963425171200,3.183171142578125,-1.3020907640457153,-0.17871327698230743,0.2731884717941284
1772785963435187500,3.1931875,-1.3725672960281372,-0.2164718508720398,0.29991835355758667
1772785963445203200,3.203203125,-1.4135459661483765,-0.2346951961517334,0.31993409991264343
1772785963455219200,3.21321923828125,-1.4315869808197021,-0.2373756766319275,0.32633447647094727
1772785963465235200,3.223235107421875,-1.445543885231018,-0.22889257967472076,0.2896094024181366
1772785963475251200,3.233251220703125,-1.4699198007583618,-0.2522929608821869,0.19783714413642883
1772785963485267200,3.24326708984375,-1.4785867929458618,-0.24049456417560577,0.057498980313539505
1772785963495283500,3.253283447265625,-1.4671919345855713,-0.14974680542945862,-0.14464959502220154
1772785963505299500,3.263299560546875,-1.4510685205459595,0.007405498996376991,-0.3931387662887573
1772785963515316200,3.273316162109375,-1.4249937534332275,0.1900605410337448,-0.6078981757164001
1772785963525332200,3.283332275390625,-1.36208975315094,0.40397652983665466,-0.6934853196144104
1772785963535348200,3.29334814453125,-1.266145944595337,0.6420546174049377,-0.6190880537033081
1772785963545364200,3.3033642578125,-1.153281331062317,0.8755908608436584,-0.4163796901702881
1772785963555380200,3.313380126953125,-1.0203711986541748,1.0051926374435425,-0.15437336266040802
1772785963565396200,3.323396240234375,-0.8687446117401123,1.0263671875,0.09781619906425476
1772785963575412200,3.333412109375,-0.7114322185516357,0.9265780448913574,0.2959196865558624
1772785963585428200,3.34342822265625,-0.5450354814529419,0.7065881490707397,0.4290820062160492
1772785963595444200,3.3534443359375,-0.3615266978740692,0.3845251798629761,0.5042654275894165
1772785963605460200,3.363460205078125,-0.1399393379688263,0.036299508064985275,0.542371392250061
1772785963615476200,3.373476318359375,0.08169479668140411,-0.27308177947998047,0.5653433203697205
1772785963625492200,3.3834921875,0.2764347195625305,-0.5083749890327454,0.5859184265136719
1772785963635508200,3.39350830078125,0.42684367299079895,-0.6645912528038025,0.6010488867759705
1772785963645524200,3.403524169921875,0.5010401606559753,-0.7204208374023438,0.600377082824707
1772785963655540200,3.413540283203125,0.47841766476631165,-0.6793719530105591,0.5803818106651306
1772785963665556200,3.42355615234375,0.3731180429458618,-0.5610755681991577,0.540658175945282
1772785963675572200,3.433572265625,0.22758163511753082,-0.38736021518707275,0.4684241712093353
1772785963685588500,3.44358837890625,0.07866472005844116,-0.20993497967720032,0.36288952827453613
1772785963695604200,3.453604248046875,-0.05951392650604248,-0.054072149097919464,0.2384922057390213
1772785963705620200,3.4636201171875,-0.1799614578485489,0.07167861610651016,0.12540125846862793
1772785963715636200,3.47363623046875,-0.2856125235557556,0.173579141497612,0.041954029351472855
1772785963725652200,3.48365234375,-0.3917493224143982,0.23792941868305206,-0.015120837837457657
1772785963735668200,3.493668212890625,-0.48754003643989563,0.2624480724334717,-0.053632546216249466
1772785963745684200,3.503684326171875,-0.5593725442886353,0.26746442914009094,-0.08626104146242142
1772785963755701200,3.513701171875,-0.6143897175788879,0.26147231459617615,-0.09706228971481323
1772785963765717200,3.52371728515625,-0.6469616889953613,0.2452530711889267,-0.0652473047375679
1772785963775733200,3.533733154296875,-0.6612556576728821,0.2251741588115692,-0.005708076525479555
1772785963785749200,3.543749267578125,-0.6222184896469116,0.21023884415626526,0.04902242496609688
1772785963795765200,3.55376513671875,-0.5625447630882263,0.14814990758895874,0.10117057710886002
1772785963805781200,3.56378125,-0.4764310419559479,0.036057230085134506,0.1779402196407318
1772785963815797200,3.57379736328125,-0.3555639982223511,-0.0805671289563179,0.2664671540260315
1772785963825813200,3.583813232421875,-0.2194823920726776,-0.19335223734378815,0.3486930727958679
1772785963835829200,3.593829345703125,-0.07979214191436768,-0.30405691266059875,0.41864633560180664
1772785963845845200,3.60384521484375,0.047671329230070114,-0.40056538581848145,0.4654252529144287
1772785963855861200,3.613861328125,0.1576942354440689,-0.4858075678348541,0.49015218019485474
1772785963865877200,3.623877197265625,0.25229769945144653,-0.5333035588264465,0.4895516633987427
1772785963875893200,3.633893310546875,0.3197494447231293,-0.5351802706718445,0.478168249130249
1772785963885909200,3.6439091796875,0.3655042350292206,-0.4916227459907532,0.4639013111591339
1772785963895925200,3.65392529296875,0.3869519829750061,-0.42841047048568726,0.4377940595149994
1772785963905941200,3.663941162109375,0.39238959550857544,-0.36279237270355225,0.3924328088760376
1772785963915957200,3.673957275390625,0.3874361217021942,-0.3040688633918762,0.32069897651672363
1772785963925973200,3.68397314453125,0.3645392954349518,-0.2589922249317169,0.23577408492565155
1772785963935989200,3.6939892578125,0.3185129463672638,-0.2131168693304062,0.154856339097023
1772785963946005200,3.704005126953125,0.2531954050064087,-0.15928401052951813,0.10628608614206314
1772785963956021200,3.714021240234375,0.17974117398262024,-0.0916610136628151,0.10517341643571854
1772785963966037200,3.724037353515625,0.09473147243261337,-0.04886293783783913,0.13376891613006592
1772785963976053200,3.73405322265625,0.013391343876719475,-0.0255429670214653,0.1684161126613617
1772785963986069200,3.7440693359375,-0.042304880917072296,-0.018273822963237762,0.19761206209659576
1772785963996085200,3.754085205078125,-0.0713658258318901,-0.02554931305348873,0.20627851784229279
1772785964006102300,3.764102294921875,-0.07543954253196716,-0.05367038771510124,0.1916002631187439
1772785964016118300,3.7741181640625,-0.06308940798044205,-0.0991760790348053,0.15560072660446167
1772785964026134300,3.78413427734375,-0.0407198928296566,-0.1443365216255188,0.11688176542520523
1772785964036150300,3.794150390625,-0.012811030261218548,-0.18202611804008484,0.07639133185148239
1772785964046166300,3.804166259765625,0.03391295671463013,-0.20442144572734833,0.05184829235076904
1772785964056182300,3.814182373046875,0.07763966917991638,-0.21673084795475006,0.05737035721540451
1772785964066198300,3.8241982421875,0.12263902276754379,-0.21379932761192322,0.09061440080404282
1772785964076214300,3.83421435546875,0.16165699064731598,-0.20487001538276672,0.14189890027046204
1772785964086230300,3.844230224609375,0.1786484569311142,-0.17029760777950287,0.19663049280643463
1772785964096246300,3.854246337890625,0.1500977724790573,-0.1414523720741272,0.2692234516143799
1772785964106262300,3.86426220703125,0.11151918023824692,-0.12203733623027802,0.35698360204696655
1772785964116278300,3.8742783203125,0.06294232606887817,-0.12878179550170898,0.4380318224430084
1772785964126294000,3.8842939453125,0.020112419500947,-0.10650571435689926,0.4830167591571808
1772785964136310300,3.894310302734375,-0.008305372670292854,-0.027654040604829788,0.4517693817615509
1772785964146326300,3.904326171875,-0.009417004883289337,0.10265960544347763,0.28977957367897034
1772785964156342300,3.91434228515625,-0.00760206114500761,0.2911863625049591,0.004480190575122833
1772785964166358300,3.924358154296875,-0.009322469122707844,0.5409559607505798,-0.3076823949813843
1772785964176374300,3.934374267578125,-0.01636333391070366,0.7726957201957703,-0.5594038367271423
1772785964186390300,3.944390380859375,0.005079128313809633,0.905083179473877,-0.7027157545089722
1772785964196406300,3.95440625,0.042496807873249054,0.9075998663902283,-0.7326246500015259
1772785964206422300,3.96442236328125,0.09426946938037872,0.8010249733924866,-0.6642463803291321
1772785964216438300,3.974438232421875,0.1700262874364853,0.6594545245170593,-0.5066173076629639
1772785964226454300,3.984454345703125,0.27561184763908386,0.5447364449501038,-0.29913330078125
1772785964236470300,3.99447021484375,0.41045862436294556,0.4449765682220459,-0.05927462875843048
1772785964246486300,4.004486328125,0.4679114520549774,0.3137960135936737,0.18534743785858154
1772785964256502300,4.014502197265625,0.49460458755493164,0.18259379267692566,0.3711082637310028
1772785964266518300,4.024518310546875,0.4964222013950348,0.04647409915924072,0.4787452518939972
1772785964276535300,4.034535400390625,0.46014541387557983,-0.09875153750181198,0.5243481397628784
1772785964286551300,4.04455126953125,0.39487943053245544,-0.2404983788728714,0.5149645209312439
1772785964296567300,4.0545673828125,0.30582624673843384,-0.3555104434490204,0.4598250687122345
1772785964306583000,4.0645830078125,0.21487285196781158,-0.4284091889858246,0.3672824501991272
1772785964316599000,4.07459912109375,0.13839831948280334,-0.47718924283981323,0.24983197450637817
1772785964326615300,4.084615234375,0.09309238940477371,-0.5032046437263489,0.10253304243087769
1772785964336631300,4.09463134765625,0.09389346837997437,-0.5123960375785828,-0.036666128784418106
1772785964346647300,4.104647216796875,0.1402081996202469,-0.5389569997787476,-0.17533209919929504
1772785964356663300,4.114663330078125,0.2255345582962036,-0.5775664448738098,-0.3065665364265442
1772785964366679300,4.12467919921875,0.33841031789779663,-0.5983749628067017,-0.41800475120544434
1772785964376695000,4.134695068359375,0.4469471573829651,-0.5897985100746155,-0.5046445727348328
1772785964386711300,4.144711181640625,0.4887579679489136,-0.5873053669929504,-0.5344200134277344
1772785964396727300,4.154727294921875,0.49963462352752686,-0.5605014562606812,-0.5441392064094543
1772785964406743300,4.164743408203125,0.49893245100975037,-0.5138803124427795,-0.5508355498313904
1772785964416759300,4.17475927734375,0.49182817339897156,-0.4497207999229431,-0.552577555179596
1772785964426775300,4.184775390625,0.4753483533859253,-0.3798403739929199,-0.5493449568748474
1772785964436791300,4.194791259765625,0.4677503705024719,-0.31435641646385193,-0.540323793888092
1772785964446807000,4.20480712890625,0.4509320855140686,-0.2618589401245117,-0.5145473480224609
1772785964456823300,4.2148232421875,0.42321524024009705,-0.21868298947811127,-0.4604913294315338
1772785964466839300,4.22483935546875,0.3693656921386719,-0.162289559841156,-0.3989567458629608
1772785964476855300,4.234855224609375,0.2849709391593933,-0.10526462644338608,-0.3557267189025879
1772785964486871300,4.244871337890625,0.1915486603975296,-0.057742487639188766,-0.3533446192741394
1772785964496887300,4.25488720703125,0.08856422454118729,-0.013394464738667011,-0.38551825284957886
1772785964506903300,4.2649033203125,-0.01161954365670681,0.016166813671588898,-0.4297482371330261
1772785964516919000,4.2749189453125,-0.10429061949253082,0.027843443676829338,-0.4693790078163147
1772785964526935300,4.284935302734375,-0.17833305895328522,0.026314236223697662,-0.4881382882595062
1772785964536951300,4.294951416015625,-0.2398049384355545,0.018745798617601395,-0.48162445425987244
1772785964546967300,4.30496728515625,-0.2868916690349579,0.028591632843017578,-0.4570455551147461
1772785964556983300,4.3149833984375,-0.3204938471317291,0.06556083261966705,-0.4287039339542389
1772785964567000000,4.325,-0.3509860634803772,0.11911281943321228,-0.3984347879886627
1772785964577016300,4.335016357421875,-0.3811072111129761,0.18091946840286255,-0.3806688189506531
1772785964587032300,4.3450322265625,-0.4152141511440277,0.24202316999435425,-0.35766637325286865
1772785964597048300,4.35504833984375,-0.4509868025779724,0.27999985218048096,-0.3178662359714508
1772785964607064300,4.365064208984375,-0.47941291332244873,0.28485724329948425,-0.27310529351234436
1772785964617080300,4.375080322265625,-0.48082464933395386,0.25565090775489807,-0.2330595999956131
1772785964627096000,4.385095947265625,-0.4617542028427124,0.1989155113697052,-0.2097669094800949
1772785964637112000,4.395112060546875,-0.43199682235717773,0.14459607005119324,-0.19778002798557281
1772785964647128300,4.40512841796875,-0.40426701307296753,0.10097306966781616,-0.18824982643127441
1772785964657144300,4.415144287109375,-0.38387277722358704,0.06914962828159332,-0.18432912230491638
1772785964667160300,4.425160400390625,-0.37948542833328247,0.0437823124229908,-0.17941166460514069
1772785964677176300,4.43517626953125,-0.39555227756500244,0.019470317289233208,-0.1681843101978302
1772785964687192300,4.4451923828125,-0.43232017755508423,-0.00461176410317421,-0.15260665118694305
1772785964697208000,4.4552080078125,-0.47673478722572327,-0.04067336022853851,-0.13781331479549408
1772785964707224000,4.46522412109375,-0.5207942128181458,-0.07875140011310577,-0.12141164392232895
1772785964717240300,4.475240234375,-0.5758814215660095,-0.10988588631153107,-0.09329984337091446
1772785964727256300,4.48525634765625,-0.6404476165771484,-0.1319200098514557,-0.05417507514357567
1772785964737272300,4.495272216796875,-0.7139838933944702,-0.12572523951530457,0.00108258833643049
1772785964747288300,4.505288330078125,-0.8000598549842834,-0.08952794969081879,0.05523696169257164
1772785964757304000,4.515303955078125,-0.9013268351554871,-0.038209639489650726,0.10283590108156204
1772785964767320000,4.525320068359375,-1.0043984651565552,0.037429407238960266,0.1504235416650772
1772785964777336300,4.53533642578125,-1.0981204509735107,0.12121085822582245,0.2146315574645996
1772785964787352300,4.545352294921875,-1.1707834005355835,0.1930411458015442,0.28794729709625244
1772785964797368300,4.555368408203125,-1.2139593362808228,0.23247458040714264,0.3220551908016205
1772785964807384300,4.56538427734375,-1.2476954460144043,0.21593542397022247,0.2760888636112213
1772785964817400300,4.575400390625,-1.2806270122528076,0.17837952077388763,0.1495913714170456
1772785964827416000,4.585416015625,-1.2974402904510498,0.16377680003643036,-0.05380146950483322
1772785964837432000,4.59543212890625,-1.2802700996398926,0.17791764438152313,-0.2942731976509094
1772785964847448300,4.6054482421875,-1.2248437404632568,0.2175370454788208,-0.4814331829547882
1772785964857464300,4.61546435546875,-1.1325912475585938,0.3022777736186981,-0.5451483130455017
1772785964867480300,4.625480224609375,-1.0162265300750732,0.4138298034667969,-0.45053061842918396
1772785964877496300,4.635496337890625,-0.8768581748008728,0.5316072702407837,-0.2036188244819641
1772785964887512300,4.64551220703125,-0.7178402543067932,0.6342626810073853,0.1407347470521927
1772785964897529300,4.655529296875,-0.5656920075416565,0.6503446698188782,0.5080773830413818
1772785964907545300,4.66554541015625,-0.4189041554927826,0.5547512769699097,0.8267728686332703
1772785964917561300,4.675561279296875,-0.2915153205394745,0.3822343647480011,1.0483838319778442
1772785964927577300,4.685577392578125,-0.20178715884685516,0.17300133407115936,1.156614899635315
1772785964937593300,4.69559326171875,-0.13675488531589508,-0.029520342126488686,1.1284077167510986
1772785964947609000,4.705609130859375,-0.09233859181404114,-0.19844789803028107,0.9555737376213074
1772785964957625000,4.715625,-0.07298167794942856,-0.31633779406547546,0.6872826218605042
1772785964967641300,4.725641357421875,-0.07992570847272873,-0.3745400905609131,0.3892196714878082
1772785964977657300,4.7356572265625,-0.12183534353971481,-0.36710935831069946,0.10543536394834518
1772785964987673300,4.74567333984375,-0.20745964348316193,-0.28636202216148376,-0.13167348504066467
1772785964997689300,4.755689453125,-0.3138713240623474,-0.1278192698955536,-0.31206804513931274
1772785965007705000,4.765705078125,-0.446302205324173,0.08373518288135529,-0.4348796010017395
1772785965017721000,4.77572119140625,-0.5743640065193176,0.3036544919013977,-0.5090824961662292
1772785965027737000,4.785737060546875,-0.6546129584312439,0.47152435779571533,-0.5177788138389587
1772785965037753300,4.79575341796875,-0.6869218945503235,0.5847947597503662,-0.4607674777507782
1772785965047769300,4.805769287109375,-0.6822638511657715,0.6334798336029053,-0.3502954840660095
1772785965057785300,4.815785400390625,-0.6448618769645691,0.628279447555542,-0.21529024839401245
1772785965067801300,4.82580126953125,-0.5946543216705322,0.6014871597290039,-0.08794275671243668
1772785965077817000,4.835817138671875,-0.548953652381897,0.5535659790039062,0.013826749287545681
1772785965087833000,4.8458330078125,-0.5127201080322266,0.48642319440841675,0.09533964842557907
1772785965097849000,4.85584912109375,-0.4777439832687378,0.40395841002464294,0.16282442212104797
1772785965107865300,4.865865234375,-0.4294975697994232,0.2976534962654114,0.21194063127040863
1772785965117881300,4.87588134765625,-0.3605104982852936,0.18098333477973938,0.25151944160461426
1772785965127897300,4.8858974609375,-0.27949362993240356,0.06922049820423126,0.29408445954322815
1772785965137913300,4.895913330078125,-0.1920815110206604,-0.0339471660554409,0.32854628562927246
1772785965147929000,4.90592919921875,-0.1084609404206276,-0.12850311398506165,0.3599928021430969
1772785965157945000,4.915945068359375,-0.040470439940690994,-0.20475980639457703,0.3765456974506378
1772785965167961300,4.92596142578125,0.012245988473296165,-0.24577565491199493,0.36147063970565796
1772785965177977300,4.935977294921875,0.03927494212985039,-0.26880428194999695,0.3404689431190491
1772785965187993300,4.945993408203125,0.04057967662811279,-0.2812345623970032,0.32589757442474365
1772785965198009300,4.95600927734375,0.01330571062862873,-0.2750914394855499,0.32424241304397583
1772785965208025300,4.966025390625,-0.030380796641111374,-0.24368703365325928,0.32247394323349
1772785965218041000,4.976041015625,-0.08755460381507874,-0.2132556140422821,0.31599926948547363
1772785965228057000,4.98605712890625,-0.14113599061965942,-0.1832147240638733,0.3183731138706207
1772785965238073300,4.9960732421875,-0.18140272796154022,-0.15161685645580292,0.3287416100502014
1772785965248089300,5.00608935546875,-0.2034381777048111,-0.10904296487569809,0.3473704755306244
1772785965258105300,5.016105224609375,-0.21394887566566467,-0.07438831776380539,0.37103745341300964
1772785965268121300,5.026121337890625,-0.1997486650943756,-0.06133013218641281,0.38823604583740234
1772785965278137000,5.03613720703125,-0.15267755091190338,-0.06139271706342697,0.39032450318336487
1772785965288153000,5.046153076171875,-0.08461621403694153,-0.09516268968582153,0.3898777663707733
1772785965298170400,5.05617041015625,-0.001857418566942215,-0.14136481285095215,0.39288023114204407
1772785965308186400,5.066186279296875,0.07557463645935059,-0.1647995412349701,0.4023822546005249
1772785965318202600,5.07620263671875,0.15194955468177795,-0.16692528128623962,0.40296417474746704
1772785965328218600,5.086218505859375,0.22349192202091217,-0.15779539942741394,0.3790789246559143
1772785965338234600,5.096234619140625,0.2893737554550171,-0.13447676599025726,0.3460834324359894
1772785965348251000,5.1062509765625,0.34524744749069214,-0.09244076907634735,0.3014603555202484
1772785965358267000,5.116266845703125,0.40831270813941956,-0.04569271206855774,0.2630133628845215
1772785965368283000,5.126282958984375,0.46280163526535034,0.000809024553745985,0.23332753777503967
1772785965378299000,5.136298828125,0.5029469132423401,0.040948718786239624,0.2142164260149002
1772785965388314600,5.146314697265625,0.5279189348220825,0.06361693888902664,0.20544403791427612
1772785965398330600,5.15633056640625,0.5324958562850952,0.06262624263763428,0.19653388857841492
1772785965408346600,5.1663466796875,0.5268542170524597,0.036972664296627045,0.16735652089118958
1772785965418363000,5.17636279296875,0.5112336874008179,-0.0012152015697211027,0.13665427267551422
1772785965428379000,5.18637890625,0.48996180295944214,-0.04952496662735939,0.12589959800243378
1772785965438395000,5.196394775390625,0.45804673433303833,-0.09105829149484634,0.15924397110939026
1772785965448410600,5.20641064453125,0.4157227575778961,-0.10203889012336731,0.23711729049682617
1772785965458426600,5.216426513671875,0.3558271825313568,-0.08667618036270142,0.35971084237098694
1772785965468442600,5.226442626953125,0.31923776865005493,-0.024156609550118446,0.49745166301727295
1772785965478458600,5.236458740234375,0.3216540515422821,0.07658757269382477,0.6146360635757446
1772785965488475000,5.246474853515625,0.3226848244667053,0.24077920615673065,0.6413968205451965
1772785965498491000,5.256490966796875,0.38084346055984497,0.5124154686927795,0.42982998490333557
1772785965508507000,5.2665068359375,0.4334510862827301,0.7937042117118835,0.011440121568739414
1772785965518522600,5.276522705078125,0.49773499369621277,0.9878957867622375,-0.4669860899448395
1772785965528538600,5.28653857421875,0.5702364444732666,1.031072974205017,-0.8612033724784851
1772785965538554600,5.2965546875,0.6486894488334656,0.930261492729187,-1.0477607250213623
1772785965548570600,5.306570556640625,0.759726881980896,0.7935470342636108,-0.9847658276557922
1772785965558587000,5.3165869140625,0.8531894683837891,0.7039372324943542,-0.7096264362335205
1772785965568603000,5.326602783203125,0.9121187925338745,0.6809875965118408,-0.3339238166809082
1772785965578619000,5.336618896484375,0.9049825668334961,0.6620697975158691,0.04147377610206604
1772785965588634600,5.346634521484375,0.855262279510498,0.6355401277542114,0.3383605480194092
1772785965598650600,5.356650634765625,0.7704922556877136,0.5871862173080444,0.545772910118103
1772785965608666600,5.36666650390625,0.629758894443512,0.49871835112571716,0.6982642412185669
1772785965618683000,5.376682861328125,0.42393460869789124,0.3603282570838928,0.8110461831092834
1772785965628699000,5.386698974609375,0.18701134622097015,0.19906677305698395,0.8612774610519409
1772785965638715000,5.39671484375,-0.008080381900072098,0.05900048464536667,0.8387535214424133
1772785965648731000,5.40673095703125,-0.12213082611560822,-0.06016043946146965,0.7622089982032776
1772785965658746600,5.41674658203125,-0.15253187716007233,-0.1757994145154953,0.6294613480567932
1772785965668762600,5.4267626953125,-0.13216863572597504,-0.292013555765152,0.4498201310634613
1772785965678778600,5.436778564453125,-0.0631866380572319,-0.4025419354438782,0.23424282670021057
1772785965688795000,5.446794921875,0.024916036054491997,-0.48560336232185364,0.0034212577156722546
1772785965698811000,5.456810791015625,0.10207473486661911,-0.5808286666870117,-0.22249870002269745
1772785965708827000,5.466826904296875,0.12023961544036865,-0.7095579504966736,-0.41439583897590637
1772785965718842600,5.476842529296875,0.13471469283103943,-0.7992676496505737,-0.5610066056251526
1772785965728858600,5.486858642578125,0.15107674896717072,-0.8344305753707886,-0.6380923986434937
1772785965738874600,5.49687451171875,0.18776579201221466,-0.8230205178260803,-0.6421987414360046
1772785965748890600,5.506890625,0.2598523497581482,-0.7587027549743652,-0.5818573236465454
1772785965758907000,5.516906982421875,0.35918453335762024,-0.6319607496261597,-0.4847571551799774
1772785965768923000,5.5269228515625,0.4722506105899811,-0.4667956829071045,-0.3848409354686737
1772785965778939000,5.53693896484375,0.5645397901535034,-0.3230600953102112,-0.28426212072372437
1772785965788954600,5.54695458984375,0.5646145343780518,-0.22781769931316376,-0.1734442114830017
1772785965798970600,5.556970703125,0.5102556943893433,-0.13840526342391968,-0.11424374580383301
1772785965808986600,5.566986572265625,0.40574488043785095,-0.057259175926446915,-0.1235370859503746
1772785965819003000,5.5770029296875,0.26100578904151917,0.0009380835108458996,-0.21533091366291046
1772785965829019000,5.587018798828125,0.10497969388961792,0.022565431892871857,-0.36580273509025574
1772785965839035600,5.59703564453125,-0.03167802467942238,0.00958278775215149,-0.5255932211875916
1772785965849051600,5.6070517578125,-0.12353141605854034,-0.019868889823555946,-0.6508153676986694
1772785965859067600,5.617067626953125,-0.17033647000789642,-0.06704652309417725,-0.7231833338737488
1772785965869083600,5.627083740234375,-0.17281018197536469,-0.11511899530887604,-0.7368685007095337
1772785965879100000,5.637099853515625,-0.15896254777908325,-0.15785206854343414,-0.7073875665664673
1772785965889116000,5.647115966796875,-0.1355239450931549,-0.19200122356414795,-0.6648664474487305
1772785965899131600,5.657131591796875,-0.11241303384304047,-0.20032067596912384,-0.6188888549804688
1772785965909147600,5.667147705078125,-0.09878984838724136,-0.1722564846277237,-0.5546090602874756
1772785965919163600,5.67716357421875,-0.10140853375196457,-0.11024264246225357,-0.48283740878105164
1772785965929179600,5.6871796875,-0.11642690002918243,-0.032768651843070984,-0.41634106636047363
1772785965939195600,5.697195556640625,-0.13436836004257202,0.040219005197286606,-0.360130250453949
1772785965949212000,5.7072119140625,-0.1489374041557312,0.10200106352567673,-0.3147095739841461
1772785965959228000,5.717227783203125,-0.16417734324932098,0.1460239142179489,-0.2784764766693115
1772785965969243600,5.72724365234375,-0.1877957582473755,0.16947540640830994,-0.24126875400543213
1772785965979259600,5.737259765625,-0.22608081996440887,0.17936532199382782,-0.1987689584493637
1772785965989275600,5.747275634765625,-0.2853737771511078,0.172740638256073,-0.15719467401504517
1772785965999291600,5.757291748046875,-0.35912442207336426,0.16474102437496185,-0.12205692380666733
1772785966009308000,5.767307861328125,-0.44174593687057495,0.1660296618938446,-0.09397485107183456
1772785966019324000,5.777323974609375,-0.5294840335845947,0.1648205816745758,-0.061294399201869965
1772785966029340000,5.78733984375,-0.6156194806098938,0.1621917188167572,-0.005340373143553734
1772785966039355600,5.797355712890625,-0.6983410120010376,0.15918368101119995,0.0639638677239418
1772785966049371600,5.80737158203125,-0.768937349319458,0.14576803147792816,0.11903458833694458
1772785966059387600,5.8173876953125,-0.8296371698379517,0.1182972714304924,0.15066441893577576
1772785966069403600,5.827403564453125,-0.8727112412452698,0.0920921340584755,0.15592873096466064
1772785966079420000,5.837419921875,-0.9027048349380493,0.06714896112680435,0.14406833052635193
1772785966089436000,5.847435791015625,-0.9255474805831909,0.04854913428425789,0.12598322331905365
1772785966099452000,5.857451904296875,-0.94281405210495,0.05066767707467079,0.10002804547548294
1772785966109467600,5.867467529296875,-0.9453567266464233,0.07635418325662613,0.06876691430807114
1772785966119483600,5.877483642578125,-0.9358468055725098,0.11392765492200851,0.04453934729099274
1772785966129499600,5.887499755859375,-0.9238913059234619,0.15261048078536987,0.036508407443761826
1772785966139515600,5.897515625,-0.9045373201370239,0.19302821159362793,0.035362984985113144
1772785966149532000,5.907531982421875,-0.8808584809303284,0.2221020609140396,0.03462322801351547
1772785966159548000,5.9175478515625,-0.8575369119644165,0.24242570996284485,0.03622059524059296
1772785966169563600,5.927563720703125,-0.8372913002967834,0.2519804835319519,0.048098865896463394
1772785966179579600,5.93757958984375,-0.8194885849952698,0.2611556053161621,0.06798230111598969
1772785966189595600,5.947595703125,-0.7971072196960449,0.2547622621059418,0.06459376215934753
1772785966199611600,5.957611572265625,-0.7793761491775513,0.2117929458618164,0.030665623024106026
1772785966209628000,5.9676279296875,-0.7735570669174194,0.13826148211956024,-0.016014114022254944
1772785966219644000,5.977643798828125,-0.7540808320045471,0.06155019626021385,-0.061692386865615845
1772785966229660000,5.987659912109375,-0.7279675006866455,-0.003067830577492714,-0.08721008896827698
1772785966239675600,5.997675537109375,-0.7048763036727905,-0.04966862127184868,-0.06661107391119003
1772785966249691600,6.007691650390625,-0.687016487121582,-0.07059419900178909,-0.007103869691491127
1772785966259707600,6.017707763671875,-0.661461353302002,-0.059828899800777435,0.07189853489398956
1772785966269723600,6.0277236328125,-0.6114493012428284,-0.013050297275185585,0.13311275839805603
1772785966279740000,6.037739990234375,-0.5360383987426758,0.04172506928443909,0.17216961085796356
1772785966289756000,6.047755859375,-0.4381685256958008,0.09423793107271194,0.18750467896461487
1772785966299772000,6.05777197265625,-0.3129144608974457,0.13951115310192108,0.18731160461902618
1772785966309787600,6.06778759765625,-0.174451544880867,0.13995249569416046,0.173330157995224
1772785966319804000,6.077803955078125,-0.02621760405600071,0.10531223565340042,0.1681918501853943
1772785966329820000,6.08781982421875,0.10856854915618896,0.014739705249667168,0.18627792596817017
1772785966339836000,6.0978359375,0.21181929111480713,-0.11388032138347626,0.21471090614795685
1772785966349852200,6.10785205078125,0.29277244210243225,-0.26108136773109436,0.24517817795276642
1772785966359868200,6.1178681640625,0.34887540340423584,-0.4038342535495758,0.27283617854118347
1772785966369884000,6.1278837890625,0.37240445613861084,-0.5282866358757019,0.28697869181632996
1772785966379900000,6.13789990234375,0.36241012811660767,-0.5904807448387146,0.27096059918403625
1772785966389916000,6.147916015625,0.3028426468372345,-0.5952258110046387,0.21825921535491943
1772785966399932000,6.157931884765625,0.18482521176338196,-0.5549130439758301,0.14355647563934326
1772785966409948200,6.1679482421875,0.010893810540437698,-0.4596758186817169,0.021584171801805496
1772785966419964200,6.177964111328125,-0.19908392429351807,-0.3153229057788849,-0.13987235724925995
1772785966429980200,6.187980224609375,-0.4125860631465912,-0.14901994168758392,-0.3244898021221161
1772785966439996000,6.197995849609375,-0.6388170719146729,0.03474642336368561,-0.48121336102485657
1772785966450012000,6.208011962890625,-0.8516940474510193,0.18918031454086304,-0.5688124895095825
1772785966460028000,6.21802783203125,-1.0083986520767212,0.3156900703907013,-0.5978526473045349
1772785966470044000,6.2280439453125,-1.1164861917495728,0.420585572719574,-0.569663405418396
1772785966480060200,6.23806005859375,-1.219801902770996,0.4520984888076782,-0.48236045241355896
1772785966490076200,6.248076171875,-1.312741756439209,0.439222514629364,-0.36274659633636475
1772785966500092000,6.258091796875,-1.3787215948104858,0.3964705169200897,-0.24273177981376648
1772785966510108000,6.26810791015625,-1.4231312274932861,0.32844847440719604,-0.1378258466720581
1772785966520124000,6.2781240234375,-1.4600999355316162,0.24184754490852356,-0.05446809157729149
1772785966530140000,6.288139892578125,-1.4704418182373047,0.16081689298152924,-0.000004385947249829769
1772785966540156000,6.298156005859375,-1.4566378593444824,0.07753665000200272,0.03442256152629852
1772785966550172200,6.308172119140625,-1.4205079078674316,-0.008172408677637577,0.0696863979101181
1772785966560188200,6.318188232421875,-1.3781397342681885,-0.08652260899543762,0.11431937664747238
1772785966570204000,6.328203857421875,-1.3359088897705078,-0.14277945458889008,0.1595173478126526
1772785966580220000,6.338219970703125,-1.290832757949829,-0.1639513224363327,0.19373896718025208
1772785966590236000,6.34823583984375,-1.2432761192321777,-0.16659216582775116,0.21275191009044647
1772785966600252000,6.358251953125,-1.2018336057662964,-0.1600722223520279,0.21493516862392426
1772785966610268200,6.36826806640625,-1.167323112487793,-0.1270132064819336,0.18459957838058472
1772785966620284200,6.3782841796875,-1.1487078666687012,-0.07839878648519516,0.12497992068529129
1772785966630300200,6.388300048828125,-1.1413605213165283,-0.021563315764069557,0.048445556312799454
1772785966640316000,6.39831591796875,-1.1494202613830566,0.05477460101246834,-0.04682823270559311
1772785966650332000,6.408331787109375,-1.1602483987808228,0.12871892750263214,-0.14024366438388824
1772785966660348000,6.418347900390625,-1.1771632432937622,0.19300231337547302,-0.21595600247383118
1772785966670364000,6.428364013671875,-1.1845002174377441,0.24108366668224335,-0.27528131008148193
1772785966680380200,6.438380126953125,-1.1874504089355469,0.27731385827064514,-0.3178817629814148
1772785966690396200,6.448396240234375,-1.1758322715759277,0.2946872413158417,-0.3329557478427887
1772785966700412200,6.458412109375,-1.1475191116333008,0.29737305641174316,-0.31741538643836975
1772785966710428000,6.468427978515625,-1.1108230352401733,0.28899121284484863,-0.2810344398021698
1772785966720444000,6.47844384765625,-1.064819574356079,0.2613990008831024,-0.22827081382274628
1772785966730460000,6.4884599609375,-1.014274001121521,0.24010325968265533,-0.15705259144306183
1772785966740476000,6.498475830078125,-0.9580123424530029,0.22264863550662994,-0.08836913108825684
1772785966750492200,6.5084921875,-0.8927975296974182,0.19770169258117676,-0.03492509946227074
1772785966760508200,6.518508056640625,-0.8262187838554382,0.17464324831962585,0.0025841924361884594
1772785966770524000,6.52852392578125,-0.7507790923118591,0.14583081007003784,0.0229684766381979
1772785966780540000,6.538539794921875,-0.6733319163322449,0.11745855957269669,0.029037555679678917
1772785966790556000,6.548555908203125,-0.600351095199585,0.10018547624349594,0.013249333947896957
1772785966800572000,6.558572021484375,-0.5302466154098511,0.08981405943632126,-0.018710995092988014
1772785966810588000,6.568587890625,-0.45970726013183594,0.08002365380525589,-0.0632227286696434
1772785966820604200,6.578604248046875,-0.38602209091186523,0.07769925147294998,-0.09940336644649506
1772785966830620200,6.5886201171875,-0.3048095703125,0.0743521898984909,-0.12334731221199036
1772785966840636000,6.598635986328125,-0.21781019866466522,0.06701384484767914,-0.1509118378162384
1772785966850652000,6.60865185546875,-0.1372637003660202,0.058316998183727264,-0.1829170286655426
1772785966860668000,6.61866796875,-0.06755039840936661,0.043643511831760406,-0.21298998594284058
1772785966870684000,6.628683837890625,-0.013286737725138664,0.027962034568190575,-0.22217044234275818
1772785966880700200,6.6387001953125,0.027566153556108475,0.005291343666613102,-0.21285736560821533
1772785966890716200,6.648716064453125,0.049053870141506195,-0.017395831644535065,-0.1889106184244156
1772785966900732200,6.658732177734375,0.04763014614582062,-0.04559284821152687,-0.15106737613677979
1772785966910748000,6.668747802734375,0.022811003029346466,-0.08285538852214813,-0.09623294323682785
1772785966920764000,6.678763916015625,-0.031101763248443604,-0.14340128004550934,-0.027958285063505173
1772785966930780000,6.68877978515625,-0.10814157128334045,-0.20513994991779327,0.05463075637817383
1772785966940796000,6.6987958984375,-0.20889641344547272,-0.2636490762233734,0.15292669832706451
1772785966950812200,6.708812255859375,-0.33413994312286377,-0.3176730275154114,0.2486054003238678
1772785966960828200,6.718828125,-0.4627777934074402,-0.3613232970237732,0.3338039219379425
1772785966970844000,6.728843994140625,-0.5914764404296875,-0.40069344639778137,0.3941890001296997
1772785966980860000,6.73885986328125,-0.7051342725753784,-0.4148920774459839,0.4330650269985199
1772785966990876000,6.7488759765625,-0.796924352645874,-0.3899170160293579,0.43034711480140686
1772785967000892000,6.758891845703125,-0.8664408922195435,-0.2948016822338104,0.3543649911880493
1772785967010908000,6.768907958984375,-0.9075586199760437,-0.1372077763080597,0.19028791785240173
1772785967020924200,6.778924072265625,-0.9289214015007019,0.05512971058487892,-0.028545092791318893
1772785967030940200,6.788940185546875,-0.9134548902511597,0.24303792417049408,-0.24854399263858795
1772785967040956000,6.798955810546875,-0.8470590710639954,0.4056673049926758,-0.4141817092895508
1772785967050972000,6.808971923828125,-0.7265604138374329,0.5053904056549072,-0.45724841952323914
1772785967060988000,6.81898779296875,-0.5625139474868774,0.5200892090797424,-0.3413947820663452
1772785967071004000,6.82900390625,-0.3652228116989136,0.5142927765846252,-0.09421499818563461
1772785967081020200,6.839020263671875,-0.18225380778312683,0.4961836040019989,0.2218870371580124
1772785967091036200,6.8490361328125,-0.07567117363214493,0.43709924817085266,0.5611575245857239
1772785967101052200,6.85905224609375,-0.014405152760446072,0.3939344584941864,0.8141189813613892
1772785967111068000,6.86906787109375,0.048448871821165085,0.352105051279068,0.941723644733429
1772785967121084000,6.879083984375,0.032147664576768875,0.24572372436523438,0.9842937588691711
1772785967131100000,6.889099853515625,-0.07645238935947418,0.0782204419374466,0.9625254273414612
1772785967141116000,6.899115966796875,-0.24262486398220062,-0.09446025639772415,0.8531345129013062
1772785967151132200,6.909132080078125,-0.41948625445365906,-0.27028489112854004,0.6596002578735352
1772785967161148200,6.919148193359375,-0.5520922541618347,-0.4481414556503296,0.412476509809494
1772785967171164200,6.9291640625,-0.6259386539459229,-0.5922548770904541,0.15988731384277344
1772785967181180000,6.939179931640625,-0.6475680470466614,-0.6865129470825195,-0.05344041809439659
1772785967191196000,6.94919580078125,-0.6354416608810425,-0.7387882471084595,-0.1804228127002716
1772785967201212000,6.9592119140625,-0.6145060062408447,-0.7355061173439026,-0.20656360685825348
1772785967211228000,6.969227783203125,-0.5840553045272827,-0.6566820740699768,-0.16225756704807281
1772785967221244200,6.979244140625,-0.5506635308265686,-0.51298588514328,-0.09247075766324997
1772785967231260200,6.98926025390625,-0.513586163520813,-0.3449908494949341,-0.03679624944925308
1772785967241276000,6.99927587890625,-0.4744563102722168,-0.1796887218952179,-0.01584915816783905
1772785967251292000,7.0092919921875,-0.4257264733314514,-0.05111553147435188,-0.02000393532216549
1772785967261308000,7.019307861328125,-0.3599250912666321,0.013608339242637157,-0.04558386281132698
1772785967271324000,7.029323974609375,-0.28610411286354065,0.004251084290444851,-0.07721488922834396
1772785967281340000,7.03933984375,-0.20866791903972626,-0.05522316321730614,-0.13009755313396454
1772785967291356200,7.049356201171875,-0.16313669085502625,-0.14184585213661194,-0.188392773270607
1772785967301372200,7.0593720703125,-0.16241151094436646,-0.23366312682628632,-0.2398303896188736
1772785967311387600,7.0693876953125,-0.19344273209571838,-0.29041653871536255,-0.305407851934433
1772785967321403400,7.0794033203125,-0.23860648274421692,-0.29231590032577515,-0.3763904273509979
1772785967331419400,7.08941943359375,-0.2949984669685364,-0.2564283609390259,-0.42056766152381897
1772785967341435400,7.099435302734375,-0.3402825891971588,-0.20214755833148956,-0.4149760901927948
1772785967351451400,7.109451416015625,-0.37362971901893616,-0.1434028297662735,-0.37120532989501953
1772785967361467600,7.119467529296875,-0.4084087610244751,-0.06811951845884323,-0.3119420111179352
1772785967371483600,7.129483642578125,-0.4417799413204193,0.008375676348805428,-0.25094398856163025
1772785967381499600,7.139499755859375,-0.47449713945388794,0.08818608522415161,-0.20042727887630463
1772785967391515400,7.149515380859375,-0.5003072023391724,0.15317131578922272,-0.16610828042030334
1772785967401531400,7.159531494140625,-0.5196154117584229,0.192879319190979,-0.1453598588705063
1772785967411547400,7.16954736328125,-0.5290670394897461,0.20926403999328613,-0.1363176852464676
1772785967421563400,7.1795634765625,-0.5382829308509827,0.20307697355747223,-0.1456374228000641
1772785967431579600,7.18957958984375,-0.5436740517616272,0.17296424508094788,-0.16212177276611328
1772785967441595600,7.199595703125,-0.5524497032165527,0.13273108005523682,-0.19710451364517212
1772785967451611400,7.209611328125,-0.5694828033447266,0.08743859082460403,-0.249433696269989
1772785967461627400,7.21962744140625,-0.5902562737464905,0.05709267407655716,-0.31835445761680603
1772785967471643400,7.229643310546875,-0.6178656816482544,0.04351735860109329,-0.38507363200187683
1772785967481659400,7.239659423828125,-0.65291428565979,0.037766531109809875,-0.44392868876457214
1772785967491675600,7.249675537109375,-0.6887109279632568,0.05085459351539612,-0.4888586401939392
1772785967501691600,7.259691650390625,-0.7330453991889954,0.07704731822013855,-0.5138680934906006
1772785967511707600,7.269707763671875,-0.7806165218353271,0.10383233428001404,-0.5161015391349792
1772785967521723400,7.279723388671875,-0.829489529132843,0.12141452729701996,-0.49217066168785095
1772785967531739400,7.289739501953125,-0.8747698068618774,0.13721534609794617,-0.4311847984790802
1772785967541755400,7.29975537109375,-0.9097152352333069,0.16809415817260742,-0.3371259570121765
1772785967551771400,7.309771484375,-0.9287942051887512,0.2080131620168686,-0.21581077575683594
1772785967561787600,7.31978759765625,-0.9398567080497742,0.25087276101112366,-0.10651011765003204
1772785967571803600,7.3298037109375,-0.949026882648468,0.2857265770435333,-0.026558013632893562
1772785967581819600,7.339819580078125,-0.9411857724189758,0.31301307678222656,0.007131772115826607
1772785967591835400,7.34983544921875,-0.9301028251647949,0.3065130412578583,0.00962080992758274
1772785967601851400,7.359851318359375,-0.9095978140830994,0.2643738389015198,-0.014227265492081642
1772785967611867400,7.369867431640625,-0.8860068321228027,0.21626316010951996,-0.056048907339572906
1772785967621883400,7.37988330078125,-0.8738567233085632,0.15843981504440308,-0.09234859049320221
1772785967631899600,7.389899658203125,-0.8841198682785034,0.07662464678287506,-0.10416994243860245
1772785967641915600,7.39991552734375,-0.9299547076225281,-0.018566852435469627,-0.08240126073360443
1772785967651931600,7.409931640625,-0.9859652519226074,-0.10282844305038452,-0.040702518075704575
1772785967661947400,7.419947509765625,-1.0430011749267578,-0.17262829840183258,0.01014148723334074
1772785967671963400,7.42996337890625,-1.101838231086731,-0.22768114507198334,0.06163689121603966
1772785967681979400,7.4399794921875,-1.153666615486145,-0.2580643594264984,0.11017992347478867
1772785967691995400,7.449995361328125,-1.2100051641464233,-0.2720140218734741,0.14666830003261566
1772785967702011600,7.46001171875,-1.282432198524475,-0.2793014943599701,0.16826093196868896
1772785967712027600,7.470027587890625,-1.3613231182098389,-0.2970832586288452,0.16845311224460602
1772785967722043400,7.48004345703125,-1.4493026733398438,-0.3196050524711609,0.1489100456237793
1772785967732059400,7.490059326171875,-1.5472633838653564,-0.3291369080543518,0.11736047267913818
1772785967742075400,7.500075439453125,-1.6512523889541626,-0.30639857053756714,0.08192605525255203
1772785967752091400,7.51009130859375,-1.7274119853973389,-0.246543288230896,0.050775330513715744
1772785967762107600,7.520107666015625,-1.6947189569473267,-0.16631050407886505,0.009909924119710922
1772785967772123600,7.53012353515625,-1.5923105478286743,-0.08838741481304169,-0.026685383170843124
1772785967782139600,7.5401396484375,-1.4761687517166138,-0.045460183173418045,-0.06745651364326477
1772785967792155400,7.5501552734375,-1.4036766290664673,-0.034599363803863525,-0.11761932075023651
1772785967802171400,7.56017138671875,-1.3668346405029297,-0.024173621088266373,-0.17395636439323425
1772785967812187400,7.5701875,-1.3503210544586182,-0.018157342448830605,-0.243252232670784
1772785967822203400,7.580203369140625,-1.3391823768615723,-0.013140745460987091,-0.32376307249069214
1772785967832219600,7.5902197265625,-1.3220125436782837,0.0025807199999690056,-0.39969149231910706
1772785967842235600,7.600235595703125,-1.3064385652542114,0.04203758016228676,-0.4628763198852539
1772785967852251600,7.610251708984375,-1.2761904001235962,0.1250765472650528,-0.49009889364242554
1772785967862267400,7.620267333984375,-1.1937391757965088,0.18747493624687195,-0.44015398621559143
1772785967872283400,7.630283447265625,-1.086630940437317,0.2897263765335083,-0.3603169620037079
1772785967882299400,7.64029931640625,-0.9583651423454285,0.37614303827285767,-0.2673819661140442
1772785967892315400,7.6503154296875,-0.8238103985786438,0.43740060925483704,-0.17769145965576172
1772785967902331600,7.66033154296875,-0.6879420876502991,0.445503830909729,-0.08216281235218048
1772785967912347600,7.67034765625,-0.549770712852478,0.41279247403144836,0.021812040358781815
1772785967922363400,7.68036328125,-0.417706698179245,0.32943421602249146,0.13918261229991913
1772785967932379400,7.69037939453125,-0.28204894065856934,0.21536876261234283,0.2736588716506958
1772785967942395400,7.7003955078125,-0.13914747536182404,0.09118476510047913,0.39926502108573914
1772785967952411400,7.710411376953125,0.005808924324810505,-0.03764056786894798,0.507840633392334
1772785967962427600,7.720427734375,0.13470618426799774,-0.162385955452919,0.5741621255874634
1772785967972443600,7.730443603515625,0.23535199463367462,-0.25786781311035156,0.5932371020317078
1772785967982459600,7.740459716796875,0.3091125190258026,-0.3112945556640625,0.560123085975647
1772785967992475400,7.750475341796875,0.3455050587654114,-0.33473706245422363,0.47957056760787964
1772785968002491400,7.760491455078125,0.33791717886924744,-0.3294235169887543,0.3612564504146576
1772785968012507400,7.77050732421875,0.25886791944503784,-0.3076455593109131,0.18526236712932587
1772785968022523400,7.7805234375,0.1266440749168396,-0.2585025131702423,-0.016630273312330246
1772785968032539600,7.79053955078125,-0.018568510189652443,-0.1871284693479538,-0.21141067147254944
1772785968042555600,7.8005556640625,-0.1567210555076599,-0.10992449522018433,-0.3558408319950104
1772785968052571600,7.810571533203125,-0.25982439517974854,-0.04459857940673828,-0.4240012466907501
1772785968062587400,7.82058740234375,-0.36585336923599243,0.003313020570203662,-0.4032861292362213
1772785968072603400,7.830603271484375,-0.5098757147789001,0.04119770601391792,-0.28630393743515015
1772785968082619400,7.840619384765625,-0.7320272922515869,0.05839453637599945,-0.08669201284646988
1772785968092635400,7.850635498046875,-0.9253530502319336,0.10499561578035355,0.09167120605707169
1772785968102651600,7.860651611328125,-1.0821945667266846,0.15848280489444733,0.21168576180934906
1772785968112667600,7.870667724609375,-1.1900447607040405,0.18099571764469147,0.2856121361255646
1772785968122683600,7.88068359375,-1.2576667070388794,0.18969281017780304,0.3313828110694885
1772785968132699400,7.890699462890625,-1.2786924839019775,0.17527101933956146,0.34332308173179626
1772785968142715400,7.90071533203125,-1.2486658096313477,0.1288185715675354,0.31888139247894287
1772785968152731400,7.9107314453125,-1.1820802688598633,0.07188716530799866,0.2797883450984955
1772785968162747400,7.920747314453125,-1.0998650789260864,0.026167074218392372,0.22589503228664398
1772785968172762400,7.930762451171875,-0.9922437071800232,0.02178473211824894,0.16197074949741364
1772785968182778600,7.940778564453125,-0.8737703561782837,0.056414082646369934,0.09222015738487244
1772785968192794600,7.950794677734375,-0.7419315576553345,0.10546685755252838,0.014989965595304966
1772785968202810600,7.960810546875,-0.6114547252655029,0.1352607011795044,-0.0764230340719223
1772785968212826400,7.970826416015625,-0.47967272996902466,0.18666404485702515,-0.15315751731395721
1772785968222842400,7.98084228515625,-0.370330274105072,0.27907174825668335,-0.19941289722919464
1772785968232858400,7.9908583984375,-0.2911622226238251,0.34174874424934387,-0.22370316088199615
1772785968242874400,8.000874267578125,-0.2480160892009735,0.34985458850860596,-0.2399926483631134
1772785968252890600,8.010890625,-0.23157955706119537,0.28508034348487854,-0.25124919414520264
1772785968262906600,8.02090673828125,-0.23196332156658173,0.19017884135246277,-0.23106858134269714
1772785968272922600,8.030922607421875,-0.24154555797576904,0.09900077432394028,-0.1709938645362854
1772785968282938400,8.0409384765625,-0.2634972035884857,-0.007761090993881226,-0.08204561471939087
1772785968292954400,8.050954345703126,-0.2950464189052582,-0.10090040415525436,0.037382058799266815
1772785968302970400,8.060970458984375,-0.3306158483028412,-0.1401766985654831,0.15767943859100342
1772785968312986600,8.070986572265625,-0.37437501549720764,-0.17925041913986206,0.25527894496917725
1772785968323002600,8.081002685546874,-0.4082581698894501,-0.1935896873474121,0.3316778242588043
1772785968333018600,8.0910185546875,-0.4167921543121338,-0.16857214272022247,0.37048450112342834
1772785968343034600,8.10103466796875,-0.397948682308197,-0.14656750857830048,0.3764699399471283
1772785968353050400,8.11105029296875,-0.35693708062171936,-0.1394757628440857,0.3650398552417755
1772785968363066600,8.121066650390626,-0.3135448694229126,-0.12043656408786774,0.3744264245033264
1772785968373082600,8.13108251953125,-0.28701069951057434,-0.08990158885717392,0.40158265829086304
1772785968383098600,8.1410986328125,-0.28753161430358887,-0.06477412581443787,0.43476536870002747
1772785968393114600,8.151114501953124,-0.2970678508281708,-0.06360562145709991,0.46440789103507996
1772785968403130600,8.161130615234375,-0.2944723069667816,-0.07440634071826935,0.4788142442703247
1772785968413146400,8.171146484375,-0.27855294942855835,-0.11282944679260254,0.4832340180873871
1772785968423162600,8.18116259765625,-0.2588362395763397,-0.1867297738790512,0.48068082332611084
1772785968433178600,8.1911787109375,-0.2514673173427582,-0.27128875255584717,0.48210740089416504
1772785968443194600,8.201194580078125,-0.25277066230773926,-0.37019163370132446,0.49493610858917236
1772785968453210600,8.211210693359375,-0.251589298248291,-0.4570397138595581,0.5233137011528015
1772785968463226600,8.2212265625,-0.2434389591217041,-0.508466362953186,0.5617952942848206
1772785968473242600,8.23124267578125,-0.2244778573513031,-0.4967760145664215,0.6312974691390991
1772785968483258400,8.24125830078125,-0.175862655043602,-0.45333534479141235,0.7220476269721985
1772785968493274600,8.251274658203124,-0.10289225727319717,-0.36335819959640503,0.8033691048622131
1772785968503290600,8.26129052734375,-0.022920459508895874,-0.2278355062007904,0.8615311980247498
1772785968513306600,8.271306640625,0.03351416438817978,-0.12753653526306152,0.8692995309829712
1772785968523322600,8.281322509765625,0.0586237795650959,-0.012624070979654789,0.7875894904136658
1772785968533338600,8.291338623046874,0.07258791476488113,0.1779560148715973,0.5727785229682922
1772785968543354600,8.301354736328125,0.04933984950184822,0.4087729752063751,0.23362469673156738
1772785968553370400,8.311370361328125,-0.02156347595155239,0.5856871008872986,-0.11789248138666153
1772785968563386600,8.32138671875,-0.09953683614730835,0.6750606298446655,-0.3608771860599518
1772785968573402600,8.331402587890626,-0.18049480020999908,0.6830671429634094,-0.44897693395614624
1772785968583418600,8.341418701171875,-0.2617824673652649,0.6152164340019226,-0.3932819962501526
1772785968593434600,8.3514345703125,-0.3453918695449829,0.5002807974815369,-0.22530336678028107
1772785968603450600,8.36145068359375,-0.42895442247390747,0.38218024373054504,0.009415406733751297
1772785968613466600,8.371466552734375,-0.48542261123657227,0.2837676405906677,0.24832716584205627
1772785968623482400,8.381482421875,-0.4785196781158447,0.2444857358932495,0.4481241703033447
1772785968633498600,8.39149853515625,-0.4036217927932739,0.2900991439819336,0.5934891700744629
1772785968643514600,8.4015146484375,-0.2760033905506134,0.3245175778865814,0.6760117411613464
1772785968653530600,8.411530517578125,-0.12737101316452026,0.31842362880706787,0.7008662223815918
1772785968663545600,8.421545654296875,0.01274641789495945,0.26223012804985046,0.6735323071479797
1772785968673561600,8.4315615234375,0.10891030728816986,0.18292027711868286,0.6081733107566833
1772785968683577600,8.44157763671875,0.1395542472600937,0.11008121073246002,0.5341752767562866
1772785968693593600,8.451593505859375,0.12390762567520142,0.047425851225852966,0.46467143297195435
1772785968703609300,8.461609375,0.1069403737783432,0.05781084671616554,0.39541566371917725
1772785968713625600,8.47162548828125,0.13962063193321228,0.09331245720386505,0.289695143699646
1772785968723641600,8.4816416015625,0.18103864789009094,0.20759853720664978,0.12341667711734772
1772785968733657600,8.49165771484375,0.1868024468421936,0.2709079682826996,-0.0016567402053624392
1772785968743673600,8.501673583984376,0.1700301170349121,0.24315357208251953,-0.04598851874470711
1772785968753689600,8.511689697265625,0.15057165920734406,0.22400791943073273,-0.05284754931926727
1772785968763705600,8.52170556640625,0.13033829629421234,0.22490061819553375,-0.033964939415454865
1772785968773721600,8.5317216796875,0.1027245819568634,0.1661359816789627,-0.0008808298734948039
1772785968783737600,8.541737548828126,0.06610319018363953,0.10717280954122543,0.019451871514320374
1772785968793753600,8.551753662109375,0.0288844034075737,0.08383749425411224,-0.007031226996332407
1772785968803769600,8.56176953125,0.07791533321142197,0.1002257913351059,-0.19994023442268372
1772785968813785600,8.57178564453125,0.09206801652908325,0.11574433743953705,-0.39554327726364136
1772785968823801600,8.581801513671875,0.07828216254711151,0.0889795646071434,-0.5700799226760864
1772785968833817600,8.591817626953125,0.09195630997419357,0.12548376619815826,-0.7987052798271179
1772785968843833600,8.60183349609375,0.03431032598018646,0.14069707691669464,-0.8662102818489075
1772785968853849600,8.611849609375,-0.02221594750881195,0.1256376951932907,-0.7944316864013672
1772785968863865600,8.621865478515625,-0.05264522507786751,0.09173484891653061,-0.6498664617538452
1772785968873881600,8.631881591796875,-0.04110722988843918,0.05311184003949165,-0.4914175868034363
1772785968883897600,8.641897705078126,0.0044261678121984005,-0.001909865764901042,-0.3632209897041321
1772785968893913600,8.65191357421875,0.05232307314872742,-0.026828931644558907,-0.2831897735595703
1772785968903929300,8.661929443359375,0.09689053893089294,-0.029109928756952286,-0.23915307223796844
1772785968913945600,8.671945556640624,0.13951736688613892,-0.005589497275650501,-0.2043534219264984
1772785968923961600,8.681961669921876,0.1754833608865738,0.032011404633522034,-0.19590480625629425
1772785968933977600,8.6919775390625,0.19134841859340668,0.07299281656742096,-0.21350224316120148
1772785968943993600,8.70199365234375,0.1696913242340088,0.09247623383998871,-0.23875567317008972
1772785968954009600,8.712009521484376,0.10250215977430344,0.07529915869235992,-0.24332726001739502
1772785968964025600,8.722025634765625,-0.008166562765836716,0.046252328902482986,-0.22479325532913208
1772785968974041600,8.73204150390625,-0.11676094681024551,0.007843662053346634,-0.21051111817359924
1772785968984057600,8.7420576171875,-0.20456562936306,-0.02305113710463047,-0.22560937702655792
1772785968994073600,8.752073486328126,-0.27239999175071716,-0.06390070170164108,-0.24833859503269196
1772785969004089600,8.762089599609375,-0.33099061250686646,-0.22755567729473114,-0.07730773091316223
1772785969014105600,8.772105712890625,-0.3289029896259308,-0.31079909205436707,0.10373440384864807
1772785969024121600,8.78212158203125,-0.33141303062438965,-0.24330417811870575,0.01683598756790161
1772785969034136600,8.792136474609375,-0.25938767194747925,-0.16879723966121674,-0.07647547125816345
1772785969044152600,8.802152587890625,-0.17227701842784882,-0.14706824719905853,-0.14411497116088867
1772785969054168600,8.81216845703125,-0.1151195764541626,-0.13926172256469727,-0.18853864073753357
1772785969064184600,8.8221845703125,-0.101602703332901,-0.11426769942045212,-0.19509774446487427
1772785969074200600,8.83220068359375,-0.12351669371128082,-0.0874352753162384,-0.17763707041740417
1772785969084216600,8.842216552734374,-0.17074544727802277,-0.05663608759641647,-0.14914365112781525
1772785969094232600,8.852232666015626,-0.20748575031757355,0.003995626233518124,-0.1370672881603241
1772785969104248600,8.86224853515625,-0.23842395842075348,0.08331388980150223,-0.1506779044866562
1772785969114264600,8.8722646484375,-0.29115161299705505,0.11835440248250961,-0.16757899522781372
