time,seconds_elapsed,z,y,x
1772741422889043000,0.06404296875,-0.15194003548324106,-0.006742240801826119,0.014415186582505702
1772741422899059000,0.074058837890625,-0.034118542701005936,-0.035107955597154794,0.009723667765408754
1772741422909074700,0.08407470703125,0.1468622938275337,-0.04916106740161776,0.023271350798383352
1772741422919090000,0.09408984375,0.1810825433373451,-0.08001005038004368,0.019043065578863025
1772741422929105700,0.104105712890625,0.0835983206629753,-0.05228066072687507,0.02544606448896229
1772741422939121700,0.11412158203125,-0.00660918900668621,-0.02317479508873075,0.005612140793353319
1772741422949136600,0.12413671875,-0.03164426154196262,-0.027133761847577986,0.012972732689231633
1772741422959153000,0.13415283203125,0.04223579818308353,-0.03187149442657828,0.019952289378270507
1772741422969168000,0.14416796875,0.08912497512996197,-0.04554506886154413,0.02211165936924517
1772741422979183900,0.154183837890625,0.10362579416930674,-0.04783197422232478,0.030617402712255715
1772741422989200000,0.164199951171875,0.1031271969974041,-0.06343078109882772,0.025913535870239136
1772741422999214800,0.17421484375,0.05072597863078117,-0.040727549044601616,0.01691489444375038
1772741423009230800,0.18423095703125,0.01841243952512741,-0.026824768963642418,0.010459507759287954
1772741423019246800,0.194246826171875,0.038348727616667744,-0.026537038063444197,0.011646963978186249
1772741423029261800,0.20426171875,0.06815466781556606,-0.043244756029918785,0.025290289405360815
1772741423039277800,0.21427783203125,0.07833470104634761,-0.0378738401139155,0.013335720782727002
1772741423049292800,0.224292724609375,0.0769715959995985,-0.041879970482736825,0.032757702676579355
1772741423059308800,0.234308837890625,0.0637742607742548,-0.0522741944534704,0.020104849591478704
1772741423069324800,0.24432470703125,0.04147825781404972,-0.0345274157628417,0.020901918253302572
1772741423079339800,0.25433984375,0.046881578162312504,-0.04279624507743865,0.03230287158116698
1772741423089356000,0.26435595703125,0.05677578018903732,-0.030157603180781006,0.021520707738772033
1772741423099370800,0.274370849609375,0.06666121438741683,-0.03817296919096261,0.015457389111816882
1772741423109387000,0.284386962890625,0.05903261920511722,-0.02843925495557487,0.012281097163259983
1772741423119403000,0.294403076171875,0.05303951627016067,-0.03211984316445887,0.026984964494034647
1772741423129418000,0.30441796875,0.05245265629291534,-0.05005089238081127,0.02963789015561342
1772741423139434000,0.31443408203125,0.034818799924850465,-0.04053140541799366,0.023668241161480544
1772741423149449700,0.32444970703125,0.04684884493649005,-0.041539742210321126,0.024133447520434854
1772741423159465000,0.33446484375,0.06233282979428768,-0.04940788176953792,0.024220833542943
1772741423169480700,0.344480712890625,0.06253039819300174,-0.040011948121152816,0.01802723959982395
1772741423179496000,0.354495849609375,0.05972878477573394,-0.04451777164041996,0.01036079662516713
1772741423189511700,0.36451171875,0.05332417843043804,-0.03162124599255621,0.015952333021908998
1772741423199527700,0.374527587890625,0.050091772380471224,-0.03907265797704458,0.01436542915664613
1772741423209542700,0.384542724609375,0.059898296123743054,-0.03642758682835847,0.014238076449930666
1772741423219558700,0.39455859375,0.06983633729219436,-0.040497978072427214,0.02545738960057497
1772741423229575000,0.404574951171875,0.06464402934610844,-0.04398194773066789,0.02581175599619746
1772741423239590000,0.41458984375,0.05751987655460834,-0.037478922512196,0.013782733897864817
1772741423249604600,0.4246044921875,0.057415831658244126,-0.03163834325782954,0.012215557646378874
1772741423259619800,0.434619873046875,0.04937281045615673,-0.026735373647138475,0.0030213936477899547
1772741423269635600,0.444635498046875,0.05898527293205261,-0.022129231558553872,0.018375760776549576
1772741423279651600,0.454651611328125,0.05707973157167434,-0.0358917629186064,0.017324644288420676
1772741423289666600,0.46466650390625,0.05561608875989914,-0.025667525219917296,0.0007305062316358089
1772741423299682600,0.4746826171875,0.057007835379242894,-0.03159950908478349,0.003441811016947031
1772741423309697500,0.484697509765625,0.06843874545395374,-0.02040098299384117,0.014940379500389098
1772741423319713500,0.494713623046875,0.06727905402481556,-0.02522862234599888,0.016132731090113518
1772741423329729500,0.5047294921875,0.0631160891264677,-0.017263598283566533,0.012777429312840103
1772741423339744500,0.51474462890625,0.06148527305424213,-0.022941936180926856,0.008869608219340443
1772741423349760500,0.524760498046875,0.06660100863277912,-0.034331893190741536,0.021996654687449334
1772741423359776800,0.53477685546875,0.055717795568704605,-0.03174125564303249,0.011744140742346644
1772741423369791500,0.54479150390625,0.05109188933372497,-0.015692220780998467,0.011623656167834997
1772741423379807700,0.554807861328125,0.06277881999611855,-0.018849186974577603,0.011673851985111831
1772741423389822700,0.56482275390625,0.07148819615244865,-0.024738464208878576,0.012776114138588309
1772741423399838700,0.574838623046875,0.057146367067098615,-0.01980550131872296,0.013695347875356673
1772741423409854700,0.584854736328125,0.05926233630776405,-0.023404402593523263,0.013208368076011537
1772741423419869700,0.59486962890625,0.06810732154250144,-0.03485902233738452,0.008485212011635303
1772741423429885700,0.6048857421875,0.06395429351627827,-0.023213775392249225,0.013053469775244592
1772741423439901700,0.614901611328125,0.0650245530962944,-0.02248823759667575,0.0035777854215353726
1772741423449916700,0.624916748046875,0.063398997721076,-0.02738254897687584,0.007318944711238146
1772741423459932700,0.6349326171875,0.0728372726738453,-0.03436700103674084,0.011035188755393027
1772741423469947600,0.64494775390625,0.05145955360233784,-0.02815061073992401,0.008660933904722333
1772741423479963600,0.654963623046875,0.055220951962471,-0.022018062801659105,0.00841923410333693
1772741423489979400,0.6649794921875,0.06526011541783809,-0.01038867101278156,0.014824059644341468
1772741423499994600,0.67499462890625,0.04658054938912391,-0.017116517963074146,0.012673092155531048
1772741423510010600,0.6850107421875,0.05213584542870521,-0.01371226247753948,0.009442512736469507
1772741423520025900,0.69502587890625,0.06247077696025371,-0.03663922028504312,0.014549188225716351
1772741423530041600,0.70504150390625,0.06936930430233477,-0.0185251061193645,0.028293270613625646
1772741423540057600,0.7150576171875,0.061303486746549604,-0.022705387478694317,0.013622574900090693
1772741423550072600,0.725072509765625,0.05294482372403145,-0.02706909911353141,0.004679389987885952
1772741423560088600,0.735088623046875,0.06103869833052158,-0.019839732381887732,0.024673180420324205
1772741423570104600,0.7451044921875,0.0549164160579443,-0.0375632763274014,0.031288360776379705
1772741423580119600,0.75511962890625,0.057628597626090045,-0.01715527907088399,0.017251871313154695
1772741423590135600,0.765135498046875,0.06467676257193088,-0.008485175479017197,0.02088102159574628
1772741423600150500,0.775150634765625,0.07233107671737671,-0.02723455534093082,0.01677621662542224
1772741423610166500,0.78516650390625,0.05858955161273479,-0.015067111152596771,0.0004104074317961931
1772741423620182500,0.7951826171875,0.06114508131444454,-0.0154122713284567,0.0032470190972089764
1772741423630197500,0.805197509765625,0.06803834795951842,-0.020416582421772182,0.00684182871878147
1772741423640213800,0.8152138671875,0.05982756897509098,-0.006655512366443872,0.007277589787542819
1772741423650229800,0.825229736328125,0.0586760608524084,-0.01226487668082118,0.00242795779928565
1772741423660244700,0.83524462890625,0.06317571035921574,-0.03250730811208486,0.012228417127951979
1772741423670260700,0.8452607421875,0.0633382074445486,-0.03245587018579244,0.00850347832068801
1772741423680275700,0.855275634765625,0.052286067554354665,-0.028885939277149737,0.016771467385068534
1772741423690291700,0.865291748046875,0.0635170711427927,-0.03192866797391325,0.009987652463838457
1772741423700307700,0.8753076171875,0.05977554652690887,-0.019106961127929388,0.00032733225822448726
1772741423710322700,0.88532275390625,0.06338496919572353,-0.017408486646972594,0.003951733300462365
1772741423720338700,0.895338623046875,0.06622633010149001,-0.016107998507656155,0.008738017728924751
1772741423730353700,0.905353759765625,0.0696603962033987,-0.007564626567997038,0.017967910628020764
1772741423740369700,0.91536962890625,0.07086041964292526,-0.01200213409140706,0.015348302714154124
1772741423750385400,0.925385498046875,0.06383855818212032,-0.019976802765019237,0.015353709541633724
1772741423760400600,0.935400634765625,0.05143383463919163,-0.005478394878469408,0.01508607158139348
1772741423770416600,0.945416748046875,0.05383914221525192,-0.009638144906423986,0.002025368347764015
1772741423780431600,0.955431640625,0.06252104584276676,-0.011382687018811703,0.006357406202703714
1772741423790447600,0.965447509765625,0.05653671073615551,-0.01459967630393803,0.014763707759231328
1772741423800463600,0.975463623046875,0.06925473801195621,-0.02196794004961848,0.0046655806582421066
1772741423810478600,0.985478515625,0.0635731852442026,-0.01368303638305515,0.015856398366764186
1772741423820494600,0.99549462890625,0.05550502960085869,-0.004894311380200088,0.013070201714336871
1772741423830510600,1.005510498046875,0.06613631373047828,-0.01843154608439654,0.007186550503224134
1772741423840525600,1.015525634765625,0.045050271081924435,-0.026483590843155977,0.019169249241799115
1772741423850541600,1.02554150390625,0.06869067438840866,-0.020311222351156174,0.018617972034588454
1772741423860556500,1.035556640625,0.06270984641313553,-0.03343092576302588,0.01672324432916939
1772741423870572500,1.045572509765625,0.05509995593130588,-0.013991846603900192,0.009641761635616421
1772741423880588500,1.055588623046875,0.06573299362659454,-0.024447226177342234,0.008725961964949965
1772741423890603500,1.065603515625,0.0594517214000225,-0.02845390453543514,0.009001417905464769
1772741423900619500,1.07561962890625,0.05211655620634555,-0.005743987012095749,0.00303425312936306
1772741423910635800,1.0856357421875,0.061246788123250004,-0.011020210381969809,0.0005181786552071571
1772741423920650800,1.095650634765625,0.06874328135848044,-0.014585063256695866,0.005815992802381515
1772741423930666800,1.105666748046875,0.05678337897360324,-0.0041469636116176845,0.011424115007743239
1772741423940681700,1.115681640625,0.05305354479551315,-0.0019995032541453837,0.011100655207037924
1772741423950697700,1.12569775390625,0.061739540076255796,-0.027625052495859562,0.009431552951037883
1772741423960713700,1.135713623046875,0.054712417918443675,-0.02253467055428773,0.0043481852721422905
1772741423970728700,1.145728759765625,0.06415186191499232,-0.012483232139237225,0.011025909470394253
1772741423980744700,1.15574462890625,0.06025543899834156,-0.01691314087808132,0.017930720422789453
1772741423990759700,1.165759765625,0.05561550423800945,-0.013183781624026596,0.018243293503299354
1772741424000775700,1.175775634765625,0.05696984145641327,-0.009074958065710962,0.005313450107723474
1772741424010791400,1.18579150390625,0.0494873767465353,-0.027621362701430917,0.011009323661774397
1772741424020806700,1.195806640625,0.0634036738961935,-0.012986870812438428,0.012938465093448757
1772741424030822400,1.205822509765625,0.06072013390064239,-0.020727438469231127,0.02668525089509785
1772741424040837600,1.215837646484375,0.04770283141732216,-0.025038397003524004,0.013004808327928184
1772741424050853600,1.225853515625,0.04906242933273315,-0.012361030531674623,0.013198869595304131
1772741424060869600,1.23586962890625,0.06043430269658565,-0.013192549452371895,0.01533829277679324
1772741424070884600,1.245884521484375,0.05805939025878906,-0.00964216349441558,0.022042904981970785
1772741424080900600,1.255900634765625,0.058202598121762275,-0.010522015068866311,0.002677329450473189
1772741424090916600,1.26591650390625,0.055521980735659594,-0.017338745879009364,-0.0008080284472554922
1772741424100931600,1.275931640625,0.0589724134504795,-0.01631616136562079,0.01531432737931609
1772741424110947600,1.285947509765625,0.045070729348063464,-0.010196692104637622,0.008767974475771188
1772741424120962600,1.295962646484375,0.05795066918730735,-0.016580146064050495,0.016962386847287417
1772741424130978600,1.305978515625,0.060946928393840784,-0.012747472565993666,0.011132511650025843
1772741424140994600,1.31599462890625,0.05451251143217087,-0.021512414834462104,-0.0009518938973546027
1772741424151009500,1.326009521484375,0.04479015884101391,-0.029035321152582762,0.014386910336092113
1772741424161025500,1.336025634765625,0.059006315720081325,-0.004032433853857219,0.024864976665377615
1772741424171040500,1.34604052734375,0.07023264313340187,-0.01539586818292737,0.0014098667979240416
1772741424181056800,1.356056884765625,0.05722060134708881,-0.012552023059129714,0.018023805533722043
1772741424191072800,1.36607275390625,0.03283551715314388,-0.0005998290566727519,0.013895035165920853
1772741424201087700,1.376087646484375,0.05724164413511753,-0.006751337423734367,0.016178616058453915
1772741424211103700,1.386103759765625,0.053660278517007824,-0.018366079632751643,0.008895181052014232
1772741424221119700,1.39611962890625,0.050966801649332046,-0.014903518088720738,0.0022618074521422384
1772741424231134700,1.406134765625,0.06430033047497272,-0.015878354470245538,0.009960618326440454
1772741424241150700,1.416150634765625,0.04561258113980293,-0.022009441103786227,0.013341127610206603
1772741424251166000,1.426166015625,0.06402385162115097,-0.014861432512663303,0.020359116613492368
1772741424261182000,1.436181884765625,0.06523907262980938,0.002338818211108446,0.017070961788296698
1772741424271197700,1.44619775390625,0.05955751986205578,-0.0018531901186332105,0.008184840825572609
1772741424281213000,1.456212890625,0.06569850683510303,-0.023632220000028608,0.012632906275615096
1772741424291228700,1.466228759765625,0.06120704063475132,-0.028160839872993528,0.015715309395641086
1772741424301244000,1.476243896484375,0.05836217259764671,-0.015199980284646152,0.010848726272583008
1772741424311260000,1.486260009765625,0.05462532415688037,-0.02847396094277501,0.019200521162897347
1772741424321276000,1.49627587890625,0.06375146442055701,-0.01798847849201411,0.013626082031428814
1772741424331291000,1.506290771484375,0.06645312459468841,-0.020963366116955876,-0.003224515004456043
1772741424341307000,1.516306884765625,0.06436813501417636,-0.013787044746801256,0.016096125406771897
1772741424351323000,1.526322998046875,0.07020166347324848,-0.004365501733124256,0.00953676689118147
1772741424361337900,1.536337890625,0.0637742607742548,-0.029634675285220145,0.016873393389582634
1772741424371353900,1.546353759765625,0.04598609062731266,-0.005474595486186444,0.01631225237548351
1772741424381368800,1.556368896484375,0.061111763566732404,-0.011371982961706816,0.0024350451271981
1772741424391384800,1.566384765625,0.06920680721700191,-0.027544534605555233,0.0050189972057938575
1772741424401400800,1.57640087890625,0.06098842944800854,-0.011008081552758812,0.009702113520726561
1772741424411415800,1.586415771484375,0.05081248787045479,-0.028339265179820355,0.018253230375424027
1772741424421431800,1.596431884765625,0.05545417619645595,-0.010646335568279028,0.010459800020232796
1772741424431446800,1.60644677734375,0.0632335780262947,-0.025203122578561304,0.014492781863361595
1772741424441462800,1.616462890625,0.060246671169996255,-0.018346863475628195,0.016281564976274965
1772741424451479000,1.62647900390625,0.0400455946624279,-0.018344306192360816,0.007755363367125391
1772741424461494000,1.636493896484375,0.04962064773738384,-0.010902246558107434,0.007836758040264248
1772741424471510000,1.646510009765625,0.05769464859962463,-0.013054602286405861,0.004977861477807164
1772741424481526000,1.656526123046875,0.06322831732928752,-0.018980521736666558,0.014925108866021036
1772741424491541000,1.666541015625,0.06188976220190524,-0.020801745814457536,-0.0011271773990243672
1772741424501557000,1.676556884765625,0.05291384406387806,-0.014881160126440226,0.015055968704074621
1772741424511572000,1.686572021484375,0.06759001967012881,-0.011961984744109212,0.021983356814458965
1772741424521588000,1.696587890625,0.05952829376757145,-0.012383461559191346,0.00971884545981884
1772741424531603700,1.706603759765625,0.058633975276350975,-0.010803645021840929,0.0037321722656488416
1772741424541619000,1.716618896484375,0.06986614790856838,-0.0033477029927074906,0.004134323325753211
1772741424551634700,1.726634765625,0.06357903046309947,-0.0073596420478075734,0.01599602603316307
1772741424561650000,1.73664990234375,0.06194120012819767,-0.017308021947182714,0.006062880235537887
1772741424571665700,1.746665771484375,0.07062251923382282,-0.012909312064200639,-0.005156359849870205
1772741424581682000,1.756681884765625,0.05581190359294414,-0.02005129277333617,0.0030495968289673326
1772741424591697000,1.76669677734375,0.05372574496865272,-0.010862426004372537,0.006411839803680777
1772741424601713000,1.776712890625,0.06494973429441452,-0.014395751229673624,0.0173578889708966
1772741424611728000,1.786727783203125,0.06345452730059624,-0.030065467917919156,0.013472791165858507
1772741424621743900,1.796743896484375,0.05821078142821789,-0.0018886267581954598,0.0023573037158697843
1772741424631760000,1.806759765625,0.06210252816975116,-0.007954283472709357,0.01023205567896366
1772741424641774800,1.81677490234375,0.07152560555338859,-0.02835062682405114,0.014528729959577321
1772741424651790800,1.826790771484375,0.06209492938518524,-0.01809420388881117,0.01970065270476043
1772741424661806800,1.836806884765625,0.06075228260457515,-0.012482245758548378,0.020138021208718417
1772741424671821800,1.84682177734375,0.04893266547322273,-0.010136742078326643,0.005062178760394454
1772741424681837800,1.856837890625,0.053583121627569195,-0.01737429211642593,0.0007710574377328157
1772741424691852800,1.866852783203125,0.07888765875399112,-0.008592983235046267,-0.004079159072414041
1772741424701868800,1.876868896484375,0.06393149716258048,-0.022346089179627597,0.01019559612609446
1772741424711885000,1.886885009765625,0.05869768816232681,-0.016001104067079722,0.011829334807768464
1772741424721900000,1.896900146484375,0.06140460903346538,-0.002696143748797476,0.006796966663748025
1772741424731916000,1.906916015625,0.06575988163352012,-0.008138115607015788,0.010694047167524695
1772741424741931000,1.916930908203125,0.05170213018655777,-0.004082775801606476,0.025863778444379565
1772741424751947000,1.926947021484375,0.05529401719868183,-0.013175159926153718,0.007171206803619861
1772741424761963000,1.936962890625,0.06426993533670902,-0.006169445882551371,-0.0020125088661909103
1772741424771978000,1.94697802734375,0.04841010290384292,-0.006170140002295374,0.0018544687602669
1772741424781994000,1.956993896484375,0.06472177075743675,-0.009006715135090052,0.02159421136640012
1772741424792009700,1.967009765625,0.06292787307798862,-0.00519365965295583,0.009043065090104937
1772741424802025000,1.97702490234375,0.06338321563005447,-0.005672273482754826,0.0035588615253567693
1772741424812040700,1.987040771484375,0.07461129660904407,-0.008928754528053104,0.010993906896933912
1772741424822056000,1.997055908203125,0.06309855346977711,-0.011903934413939714,-0.01200827157124877
1772741424832071700,2.00707177734375,0.05621522369682788,-0.008111154534853995,-0.00016220482438802718
1772741424842088000,2.017087890625,0.0526245057284832,-0.013728921351395546,0.01707549183294177
1772741424852102700,2.0271025390625,0.058603580138087266,-0.004796477028913795,0.005914411675557494
1772741424862119000,2.037118896484375,0.06085282036960125,-0.010193806027807294,0.003452186280488968
1772741424872134000,2.0471337890625,0.0565150834262371,-0.014543123811110854,-0.0007634586531668901
1772741424882150000,2.05714990234375,0.06729308255016804,-0.0101263302821666,0.00999758933596313
1772741424892166000,2.067165771484375,0.05966273380219936,-0.0104402550695464,0.004142871958389878
1772741424902180900,2.077180908203125,0.06294073255956173,-0.017833507126010954,0.017006664380431174
1772741424912196900,2.08719677734375,0.053064650711417194,-0.005378368570096791,0.009689984691515564
1772741424922212900,2.097212890625,0.06758709706068039,-0.009789755271561442,0.018616510729864238
1772741424932227800,2.107227783203125,0.07073124030530452,-0.011267061282508074,-0.0018967735320329665
1772741424942243800,2.117243896484375,0.059361120507121085,-0.0036025545366108417,0.011408990503847598
1772741424952258800,2.1272587890625,0.06340016676485538,-0.014976802520640193,0.008578808579221367
1772741424962274800,2.13727490234375,0.05757014543712139,-0.011662819134443997,0.012709259447455405
1772741424972290800,2.147290771484375,0.062065118768811225,-0.00854486977700144,0.009704086282104254
1772741424982305800,2.157305908203125,0.06551847409307957,-0.02858702939581126,0.005755348656326532
1772741424992322000,2.167322021484375,0.05894610996544361,-0.011511866356432436,0.01923537328056991
1772741425002337000,2.1773369140625,0.05910042374432087,-0.008039842864312231,0.012909092868492006
1772741425012353000,2.18735302734375,0.05699322233200073,-0.011929105387814342,0.01156454639174044
1772741425022369000,2.197369140625,0.05594400554001331,-0.014672595409676432,0.014551014856621622
1772741425032384000,2.207384033203125,0.050114568734169,-0.0077057155391201376,0.02529072779677808
1772741425042400000,2.21739990234375,0.05192541754841804,-0.005932129995338618,0.005419979222118854
1772741425052415700,2.227415771484375,0.05267828174233436,-0.01082498007081449,0.0007471651054918766
1772741425062431000,2.237430908203125,0.057928457355499265,-0.017096205827407538,0.015482158226892351
1772741425072446700,2.24744677734375,0.049859717190265655,-0.005054251182265579,0.0083393738001585
1772741425082462000,2.2574619140625,0.07336217333078383,-0.0006122501468285918,-0.0008474836748093366
1772741425092477700,2.267477783203125,0.057361471122503276,-0.01594506303090602,0.008340542843937874
1772741425102493700,2.27749365234375,0.05257540588974952,-0.012475341093726455,0.01625708812214434
1772741425112508700,2.2875087890625,0.06156885968446731,-0.008795008613169192,0.0069886167783290145
1772741425122525000,2.29752490234375,0.06395780064761639,-0.007870112320594489,0.007962868637964129
1772741425132540000,2.307539794921875,0.06201601893007755,-0.003382810838706791,0.009118614544346927
1772741425142556000,2.317555908203125,0.05215162751972675,-0.015564758476428686,0.011627674755826592
1772741425152572000,2.327572021484375,0.0508119033485651,-0.0006348273048177361,-0.003744008833914995
1772741425162587000,2.3375869140625,0.045730070039629936,-0.0175232721330598,0.005173018723726272
1772741425172603000,2.347602783203125,0.05456511840224266,-0.01807454934027046,0.006461231903359293
1772741425182617900,2.357617919921875,0.06340133580863476,0.0026937691286206245,0.02004763951152563
1772741425192633900,2.3676337890625,0.06310556773245335,-0.007497260420210659,0.008620090437680483
1772741425202649900,2.37764990234375,0.04529986192882061,-0.004708214223571121,0.009255757992714643
1772741425212664800,2.387664794921875,0.06371639310717582,-0.0038662835067138075,0.019491174672544
1772741425222680800,2.397680908203125,0.06312661052048206,-0.006667896923981607,0.019105024899169803
1772741425232696800,2.40769677734375,0.0695604429602623,-0.005985029226355254,0.013696078527718782
1772741425242711800,2.4177119140625,0.059385085904598234,-0.01404664553105831,0.019389467863738536
1772741425252728300,2.427728271484375,0.06507423745691776,-0.0030104338623583313,0.003099792646244168
1772741425262743300,2.437743408203125,0.07211538814008235,-0.002398220248147845,0.006893558906018733
1772741425272759300,2.44775927734375,0.06134557232260704,-0.008669409472122788,0.002445420390740037
1772741425282775000,2.457775146484375,0.05222001658082008,0.0003514803187921643,0.009472323352843523
1772741425292790300,2.467790283203125,0.06987725382447242,-0.016064634289965032,0.004474442000314593
1772741425302806000,2.477805908203125,0.053421209064126014,-0.010344137751311063,0.013267112525925039
1772741425312821200,2.4878212890625,0.06120820967853069,0.005216054147854447,0.004215279607474804
1772741425322837000,2.4978369140625,0.07437690333127975,-0.004806194705329835,0.010349909904971718
1772741425332853200,2.507853271484375,0.07108546057045459,-0.019277458856627343,0.007068696277216077
1772741425342868000,2.517867919921875,0.04685469015538692,-0.013218852937407792,-0.002447027825936675
1772741425352884200,2.52788427734375,0.053743280625343316,-0.016759228958003223,-0.0030864217080175875
1772741425362900200,2.537900146484375,0.06331365752518177,-0.008119958895817398,0.003708864455297589
1772741425372915200,2.547915283203125,0.059730538341403,-0.0062593526557087895,0.008873334546387194
1772741425382931200,2.55793115234375,0.06692366471588611,-0.013053140981681643,0.004003390422463417
1772741425392946200,2.5679462890625,0.046123453271389,-0.01304210813101381,0.009104001497104764
1772741425402962200,2.577962158203125,0.0658785395771265,-0.012743271314911543,0.01924085317328572
1772741425412978200,2.587978271484375,0.061088967213034626,-0.0029438348995521665,0.013454597922042011
1772741425422993200,2.5979931640625,0.05435761313140392,-0.005287219687923788,0.004480798675864935
1772741425433009200,2.608009033203125,0.06258943490386008,-0.009366159564629196,-0.0014021949481219053
1772741425443024100,2.618024169921875,0.06155249307155609,-0.0052924073196947575,0.016142156505584714
1772741425453040000,2.6280400390625,0.06679214729070664,-0.0006593772241845727,0.0018930472049862145
1772741425463056100,2.63805615234375,0.06753507461249827,-0.0025565891476348043,-0.0022048165678977966
1772741425473071000,2.648071044921875,0.06260346342921257,-0.0024871406406164168,0.011522899207100272
1772741425483087400,2.65808740234375,0.06575345189273357,-0.00390774802826345,0.01969327311590314
1772741425493103400,2.668103271484375,0.06769815621972083,-0.006312799875997007,-0.00020290216095745562
1772741425503118300,2.678118408203125,0.06201777249574661,-0.00031144056934863325,0.0037665129266679287
1772741425513134300,2.68813427734375,0.07577917134463787,0.0025280571728944776,-0.00020772446654736994
1772741425523149300,2.6981494140625,0.05618599760234356,-0.014873780537582933,0.0003333236075937748
1772741425533165300,2.708165283203125,0.055284664848446845,-0.0058550461711362,0.012815715496614574
1772741425543181000,2.71818115234375,0.0677045859605074,-0.0070199617646634575,0.016573241399228573
1772741425553196300,2.7281962890625,0.06561024402976036,0.0021138868814334273,0.002951177955791354
1772741425563212000,2.7382119140625,0.05049684605002403,-0.010926358086057006,-0.005888911908119916
1772741425573227300,2.748227294921875,0.06425999846458434,-0.014752967169508337,0.0018219547301530836
1772741425583243000,2.758242919921875,0.0674029726654291,-0.002770779887586832,0.00840951642692089
1772741425593259000,2.768259033203125,0.04345043466985225,-0.01903108288012445,0.013877645639702677
1772741425603274000,2.77827392578125,0.06589315262436866,-0.0057999915156513445,0.020527824243903158
1772741425613290200,2.788290283203125,0.058712301209568975,-0.011733217489533126,0.004971797063201665
1772741425623306200,2.79830615234375,0.06455635106265545,-0.006667531597800552,0.014287541614845394
1772741425633321200,2.8083212890625,0.06725041245222091,-0.012721497874520718,0.0018204934254288673
1772741425643337200,2.818337158203125,0.05870587146878242,-0.005824322239309549,0.002762961907312274
1772741425653352200,2.828352294921875,0.05436112026274204,-0.004974792737886309,0.013279168289899826
1772741425663368200,2.8383681640625,0.05151625222563743,-0.0031504633875563738,0.011819397935643792
1772741425673384200,2.84838427734375,0.060955696222186086,-0.006763320122472941,0.017124299410730598
1772741425683399200,2.858399169921875,0.07008417457342148,-0.020462905781529844,0.00698021427616477
1772741425693415200,2.868415283203125,0.07203238603174686,-0.015503164482302963,-0.0027712913442403076
1772741425703430100,2.87843017578125,0.055876785522699354,-0.0054850438149645925,-0.001198635200038552
1772741425713446100,2.888446044921875,0.05677461114525795,-0.005739785761013627,0.015882336525619028
1772741425723462100,2.898462158203125,0.05273264227807521,-0.013338424196466803,0.010535860931128262
1772741425733477000,2.90847705078125,0.0688981796592474,-0.01425342014953494,-0.00030095570795238014
1772741425743493400,2.918493408203125,0.060220952206850045,-0.010637092815898358,-0.0030042233172804115
1772741425753508000,2.928508056640625,0.06635667848289012,-0.010476422361470759,0.0014789865113794803
1772741425763524400,2.9385244140625,0.05962473987936973,-0.021191475784406066,-0.0001587707582861185
1772741425773540400,2.948540283203125,0.05288754057884216,-0.0045282180141657585,0.01009264720827341
1772741425783555300,2.958555419921875,0.0530336710512638,0.0026166122391819953,0.01401098969578743
1772741425793571300,2.9685712890625,0.054685529911518094,-0.004223280250839889,0.001537657896056771
1772741425803587000,2.978587158203125,0.05813304001688957,-0.011524177848733962,0.004324804396554828
1772741425813602300,2.988602294921875,0.07279810970723628,-0.009149484606646,0.004756035420671105
1772741425823618000,2.9986181640625,0.06756079357564448,-0.009226714561320841,0.013619944551587104
1772741425833633300,3.00863330078125,0.051697454011440276,0.0022596154950559138,0.005322510197013616
1772741425843649000,3.01864892578125,0.05617898333966732,-0.012329320219159126,0.000677607000619173
1772741425853665000,3.0286650390625,0.06126724638938903,-0.0027223011033609508,0.01071048684567213
1772741425863680000,3.038679931640625,0.052286067554354665,-0.013153313420526683,0.006430909830331802
1772741425873696000,3.048696044921875,0.056771688535809516,-0.01611066538877785,0.005147007499635219
1772741425883711000,3.0587109375,0.06589665975570679,-0.012908362216129898,0.012996990347653626
1772741425893727200,3.068727294921875,0.07247779171168804,-0.009919847924634814,0.0077925535723567
1772741425903743200,3.0787431640625,0.06439794563055037,-0.01901880792044103,0.014237711123749613
1772741425913758200,3.08875830078125,0.07052958025336264,-0.01630374027546495,0.010548428151756524
1772741425923774200,3.098774169921875,0.05870294885933399,0.0018512904224917291,0.011539996472373604
1772741425933790200,3.108790283203125,0.04268880264759063,-0.006072670977190137,-0.0029326924510300156
1772741425943805200,3.11880517578125,0.05287058944404125,-0.013964922064356506,0.015563333704322576
1772741425953821200,3.1288212890625,0.0506289479970932,-0.003460004260763526,0.004916121353209018
1772741425963836200,3.138836181640625,0.057660746330022807,-0.0056811509089544415,0.0004554156173020601
1772741425973852200,3.14885205078125,0.06918459538519382,-0.007858020024001598,0.002269479301944375
1772741425983868200,3.1588681640625,0.06619184330999851,-0.0059318012017756695,0.004502937442436814
1772741425993883100,3.168883056640625,0.05975158112943172,-0.01831866029445082,0.0045894466821104285
1772741426003899100,3.178899169921875,0.05720715734362602,-0.013040500695817171,0.004471300195157527
1772741426013914000,3.1889140625,0.056606268841028214,-0.005831665295548736,0.009302081352472305
1772741426023930400,3.198930419921875,0.0624450579971075,-0.021832878960482773,0.0005919745437800884
1772741426033946400,3.2089462890625,0.05600596486032009,-0.01959938428737223,0.014708689636364578
1772741426043961300,3.21896142578125,0.06992109296619892,0.0049476124700158835,0.010390680306777358
1772741426053977300,3.228977294921875,0.053607671546936034,-0.007425510358251631,0.017338453618064523
1772741426063993000,3.2389931640625,0.06916764425039292,-0.008879618156701326,0.009010843320935965
1772741426074008300,3.24900830078125,0.05944412261545658,-0.0047231560643762344,0.0102275986995548
1772741426084024000,3.259024169921875,0.0622924977838993,-0.012768734549731016,0.00943557153902948
1772741426094039300,3.269039306640625,0.058550973168015476,-0.0042218554787337775,0.010052899719774723
1772741426104055000,3.279054931640625,0.057204234734177586,-0.006873392900824547,0.012313465062901378
1772741426114071000,3.289071044921875,0.0585585719525814,-0.01386193661391735,0.009551672199368475
1772741426124086000,3.2990859375,0.056015317210555075,-0.005995879413932562,0.0051703883752226825
1772741426134102000,3.30910205078125,0.06020400107204914,-0.012549648438952862,0.018963424471393226
1772741426144117000,3.319116943359375,0.0482324082493782,-0.019574834368005393,0.0071588587787002325
1772741426154133200,3.32913330078125,0.06364215882718563,-0.0037010830076411364,0.007649857166036963
1772741426164149200,3.339149169921875,0.05735504138171672,-0.0009422127535566687,0.00022935177646577357
1772741426174164200,3.349164306640625,0.0621446137458086,-0.001164440669491887,0.009984949050098658
1772741426184180200,3.35918017578125,0.03910217633247375,-0.009947758844867349,0.00893865486755967
1772741426194195200,3.3691953125,0.06080021339952946,-0.016392879863642157,-0.00678228055126965
1772741426204211200,3.379211181640625,0.06424012472033501,-0.020405257310159502,0.0007368629071861505
1772741426214227200,3.389227294921875,0.06393909594714642,0.004552804466150701,-0.0077919690504670135
1772741426224242200,3.3992421875,0.056902036917209624,-0.007402860135026276,0.00020399813950061797
1772741426234258200,3.409258056640625,0.051664136263728136,-0.007834566083177924,0.006804930774495005
1772741426244274200,3.419274169921875,0.055103463062644,-0.0027985446773469446,-0.0009740326639264822
1772741426254289400,3.429289306640625,0.057798108974099156,-0.002034611100144684,0.008742986164987086
1772741426264305400,3.439305419921875,0.06153320384919643,-0.006468100035563111,0.01459953017346561
1772741426274320400,3.4493203125,0.06183598618805408,0.001898161771520972,0.006919716260582208
1772741426284336600,3.459336669921875,0.06094751291573047,-0.010306618752516806,0.010574220180138944
1772741426294352600,3.4693525390625,0.060199909418821335,-0.009584807283990084,0.012204086404293775
1772741426304367600,3.47936767578125,0.04987140762805938,-0.009322356955520809,0.006988251452147961
1772741426314383600,3.489383544921875,0.060493923929333684,-0.0085338003937155,0.022896233875676988
1772741426324398600,3.499398681640625,0.06454758323431015,0.0008074073927477001,0.008992869272828101
1772741426334414600,3.50941455078125,0.04839081368148326,-0.0031354119488969444,0.015875687589123843
1772741426344430300,3.519430419921875,0.052878188228607174,-0.00940682036858052,0.017549831346422434
1772741426354445600,3.529445556640625,0.059905310386419296,-0.015142258748039603,0.00996573289297521
1772741426364461300,3.53946142578125,0.057957683449983595,-0.01569075947627425,0.00440758730918169
1772741426374477300,3.549477294921875,0.06903671134710311,-0.012193930336460471,-0.0008713760070502757
1772741426384492300,3.5594921875,0.061115855219960206,-0.0040225700469687575,0.011618176275119185
1772741426394508300,3.56950830078125,0.04989829563498497,-0.002214278515987098,0.010215469870343804
1772741426404523300,3.579523193359375,0.052583589196205135,-0.01736848343014717,-0.00152867087200284
1772741426414539300,3.589539306640625,0.060220952206850045,-0.017998086570575833,0.010501081878691912
1772741426424555500,3.599555419921875,0.056934185621142386,-0.006791925162449479,0.01626059525348246
1772741426434570500,3.609570556640625,0.04810439795553684,0.0011325842265039682,0.014326193124800919
1772741426444586500,3.61958642578125,0.05649170255064964,-0.013771043460071086,0.013221081427112221
1772741426454601500,3.6296015625,0.06442658720314502,-0.008315591065771876,0.009013035278022288
1772741426464617500,3.639617431640625,0.05889759464859962,-0.009437653898261487,0.003272518864646554
1772741426474633500,3.649633544921875,0.06622983723282813,-0.0037513518901541826,0.01913227823227644
1772741426484648400,3.6596484375,0.056660629376769064,-0.01152801377363503,0.00924034122787416
1772741426494664400,3.66966455078125,0.057256257182359695,-0.0014968509616330266,-0.0004472323108464479
1772741426504679400,3.679679443359375,0.06832651725113391,-0.00799311764575541,0.008537526720762252
1772741426514695400,3.6896953125,0.06308920111954212,-0.0013547025445848702,0.005939692247286439
1772741426524711400,3.69971142578125,0.049776130560040474,-0.0065857350658625365,0.0018455548014491795
1772741426534726400,3.709726318359375,0.06175123051404953,-0.011034823429211974,0.008546879070997238
1772741426544742400,3.719742431640625,0.05156827467381954,0.0005810878235846757,0.009813684136420487
1772741426554758700,3.729758544921875,0.053961891812086105,-0.008257358072511852,0.01639730031043291
1772741426564773600,3.739773681640625,0.05800561424493789,-0.0035744974859058857,0.009196648216620086
1772741426574789600,3.74978955078125,0.07087620173394679,-0.014004815683327615,0.012489113890752196
1772741426584804600,3.7598046875,0.07042495083510875,0.004717603106424212,0.00863945272527635
1772741426594820600,3.769820556640625,0.06384206531345844,-0.008875745699182152,0.0129785779081285
1772741426604836400,3.77983642578125,0.0617523995578289,-0.013574534507282077,0.004579582875221967
1772741426614851600,3.7898515625,0.05456804101169109,0.0023867855386808514,0.019915756760165094
1772741426624867300,3.799867431640625,0.05786240638196468,-0.010622443236038089,-0.009434475560486317
1772741426634882600,3.809882568359375,0.0647498278081417,-0.015541669861786067,0.0033932957001030443
1772741426644898300,3.819898193359375,0.057868251600861544,-0.00713156891297549,0.011916355504095553
1772741426654914300,3.829914306640625,0.05578209297657013,-0.003956190279871225,0.008527516783401369
1772741426664929300,3.83992919921875,0.05982347732186317,-0.0001590995518490672,0.00023402795158326625
1772741426674945300,3.8499453125,0.06476677894294261,-0.010034231551922857,0.015727730485796926
1772741426684960300,3.859960205078125,0.06282265913784503,0.003308686156570911,0.016929507490992545
1772741426694976500,3.8699765625,0.06761047793626784,-0.0065780632160604,0.0054038318049162625
1772741426704992500,3.879992431640625,0.06206570329070091,-0.005706029621884227,0.0008528905022889375
1772741426715007500,3.890007568359375,0.06266250014007091,-0.006926365197077393,0.004753989594057202
1772741426725023500,3.9000234375,0.07179039396941661,-0.005446428837627172,0.007220598903298378
1772741426735039500,3.91003955078125,0.0524807133436203,-0.004108933156169951,0.027799861073493956
1772741426745054500,3.920054443359375,0.06101122580170631,0.0013770239742472766,-0.0014235299970954656
1772741426755070500,3.930070556640625,0.06700140612721443,0.001360986154899001,0.002247925057262182
1772741426765085400,3.94008544921875,0.06041618251800537,-0.004142433566972613,0.010429843273386358
1772741426775101400,3.950101318359375,0.05622632961273193,-0.007164777062833309,-0.003122954326122999
1772741426785117400,3.960117431640625,0.0523322447836399,0.002554616386257112,-0.002328442947566509
1772741426795132400,3.97013232421875,0.07462240252494812,-0.010395502612367272,0.0033848931979388
1772741426805148400,3.9801484375,0.07267886724174022,-0.02159523427970707,0.010856690383329986
1772741426815163400,3.990163330078125,0.0629594372600317,-0.013500738618709146,0.015864289412274957
1772741426825179400,4.000179443359375,0.05772387469410896,-0.008788798068091273,0.007947232677415013
1772741426835195600,4.010195556640625,0.06266366918385029,-0.01122935962062329,0.013288228379189967
1772741426845210600,4.020210693359375,0.06371522406339646,-0.017658333222195503,0.012046119363605976
1772741426855226600,4.0302265625,0.06251987679898738,0.0046180882547050715,0.0034844811148941517
1772741426865242400,4.040242431640625,0.055178281864523886,-0.0015795608090236782,0.008805091615766286
1772741426875257600,4.050257568359375,0.06206219615936279,-0.006832987825199961,0.013875965139269829
1772741426885273300,4.0602734375,0.0726928957670927,-0.00889598476961255,0.007973097771033643
1772741426895288600,4.07028857421875,0.05025193137824535,-0.015066124771907925,0.008721724181249738
1772741426905304300,4.08030419921875,0.0617787030428648,-0.007308971306495368,0.02017630739249289
1772741426915320300,4.0903203125,0.07375847917199134,-0.020130897348187862,0.009768895146623253
1772741426925335300,4.100335205078125,0.052364393487572665,-0.029311361614987253,0.002282265718281269
1772741426935351300,4.110351318359375,0.06479074434041976,-0.01837192485164851,0.008052300487086177
1772741426945366300,4.1203662109375,0.0706324561059475,-0.0073064870884642,0.006920154651999473
1772741426955382300,4.13038232421875,0.060763973042368885,-0.009165120567195116,0.015922010948881505
1772741426965398500,4.1403984375,0.054176995867490765,-0.008016315858252345,0.001713233658671379
1772741426975413500,4.15041357421875,0.047750762212276456,-0.00016538316216319798,0.003443783778324723
1772741426985429500,4.160429443359375,0.05373334375321865,-0.00487582587543875,-0.006735153473913669
1772741426995444500,4.170444580078125,0.0556786326020956,-0.006709653706476092,0.00028057050704956055
1772741427005460500,4.18046044921875,0.05089198284745216,-0.007853489979356526,-0.004349208185449242
1772741427015476500,4.1904765625,0.057630351191759105,0.0066818158514797684,0.006222600841894746
1772741427025491500,4.200491455078125,0.06661445263624191,-0.007578362832404673,0.011060177066177129
1772741427035507500,4.210507568359375,0.05030395382642746,-0.008447473817132413,0.007187500351294875
1772741427045523500,4.2205234375,0.04626081591546535,-0.008024681827798485,0.012449439467489718
1772741427055538400,4.230538330078125,0.05853168394565582,-0.006599617460742593,0.0016292817022651434
1772741427065554400,4.240554443359375,0.054343000084161756,-0.008053140737302601,0.007623992072418331
1772741427075569400,4.2505693359375,0.04865969375073909,-0.0026900428015738725,0.014609613176062703
1772741427085585400,4.26058544921875,0.0684147800564766,-0.01584649802725762,0.008592544843629002
1772741427095601700,4.2706015625,0.05764554876089096,-0.004430383662879467,0.004960252755880356
1772741427105616600,4.28061669921875,0.06468260779082775,-0.013981982797011733,0.0013309563428163527
1772741427115632600,4.290632568359375,0.0557090277403593,-0.014380334464833139,0.0005493044458329677
1772741427125647600,4.300647705078125,0.04478489814400673,-0.010534034300222992,0.00831716196835041
1772741427135663600,4.31066357421875,0.0693289722919464,-0.005706248817592859,0.0049232817463576795
1772741427145679400,4.320679443359375,0.06020400107204914,-0.00091258480027318,-0.0018435089748352765
1772741427155694600,4.330694580078125,0.06544014815986156,-0.0014919921234250067,0.0008740794207900762
1772741427165710300,4.34071044921875,0.06633095951974391,0.0006838540783151984,0.007136354685947298
1772741427175725600,4.3507255859375,0.0646808542251587,0.004016067240945995,0.012000891982391475
1772741427185741300,4.3607412109375,0.06452420235872268,-0.014214366780780256,0.0010324848528951405
1772741427195757300,4.37075732421875,0.0544978983849287,-0.0008435381520539521,0.009743979901075362
1772741427205772300,4.380772216796875,0.060489832276105875,-0.005340191984176635,0.006066022040694952
1772741427215788300,4.390788330078125,0.05600187320709228,-0.010528737070597708,0.017752222050726414
1772741427225804500,4.400804443359375,0.052859483528137206,-0.013934453860856592,0.012082798112183808
1772741427235819300,4.4108193359375,0.06856324861645698,-0.004988821263238788,0.0007967764008790254
1772741427245835500,4.42083544921875,0.07305237672924995,-0.010979366914927959,0.01725844718441367
1772741427255849500,4.430849365234375,0.050158992397785186,-0.00941518633812666,-0.0015041209526360034
1772741427265865500,4.440865478515625,0.05600245772898197,-0.020688750426657496,0.0077250412940979
1772741427275881500,4.450881591796875,0.044186347728967665,-0.01350954297967255,0.006009688743576407
1772741427285896400,4.460896484375,0.06079962887763977,-0.01737443824689835,0.018100304836034774
1772741427295912400,4.470912353515625,0.06094517482817172,-0.004866473525203764,0.004802724106609821
1772741427305927400,4.480927490234375,0.057652563023567194,-0.008115501916408538,0.01036773782260716
1772741427315943400,4.490943359375,0.059303837361931795,0.003187507462315261,0.009002221623063087
1772741427325959700,4.500959716796875,0.04973696759343147,-0.0044254517594352364,0.0005081687178462743
1772741427335974700,4.510974609375,0.04973287594020366,-0.016510332230851053,0.00716229284480214
1772741427345990700,4.52099072265625,0.06215864227116107,-0.00231521813981235,-0.0007732493948191404
1772741427356005600,4.531005615234375,0.06350479618310928,-0.00760831957925111,0.006166340610012411
1772741427366021600,4.541021728515625,0.051531449794769285,-0.003436842580884695,0.008284940199181436
1772741427376037600,4.55103759765625,0.062305941787362096,-0.0060761415759101505,0.008308394140005112
1772741427386052600,4.561052490234375,0.06680091511905192,-0.013188567396998405,-0.004152516569569707
1772741427396068600,4.571068603515625,0.05901917520165443,-0.006532689704373478,-0.0037404286373406647
1772741427406084600,4.581084716796875,0.056333881640434263,-0.006731792473047971,0.010424436445906758
1772741427416099600,4.591099609375,0.05829319901466369,-0.0010910466397181153,0.01524681510105729
1772741427426115600,4.601115478515625,0.04332885411679745,-0.007215374738909304,0.003735314070805907
1772741427436130600,4.611130615234375,0.05903963346779346,-0.012164119720086455,0.0005997194588184357
1772741427446146600,4.621146484375,0.06935702934265137,-0.016651384669356048,0.002341667755320668
1772741427456162800,4.631162841796875,0.07100362750589848,-0.011514058313518762,-0.00032601708397269247
1772741427466177500,4.641177490234375,0.06936579717099667,-0.0054033934134989975,-0.010687544361501931
1772741427476193800,4.65119384765625,0.06996376306414603,-0.014111710123904048,0.0014214111052453517
1772741427486208800,4.661208740234375,0.047668929147720335,-0.0044049569606781,0.011947335164248942
1772741427496224800,4.671224853515625,0.05080547360777855,-0.0011026640122756362,0.015022797086834907
1772741427506240500,4.681240478515625,0.05888765777647495,-0.004717822302132845,0.010048442740365862
1772741427516255700,4.691255859375,0.06277940451800823,-0.0007346709500998258,0.011281199405714868
1772741427526271500,4.701271484375,0.06158873342871666,-0.008726181160658597,0.013642083318158983
1772741427536286700,4.71128662109375,0.057393035304546355,-0.00884589855019003,0.00924647870771587
1772741427546302500,4.721302490234375,0.07130465627908707,-0.009557919277064501,-0.007437529589608311
1772741427556318500,4.731318359375,0.05678630158305168,0.012288842078298329,0.011913140633702277
1772741427566333400,4.74133349609375,0.05842705452740192,-0.018949249815568326,0.004363748167455196
1772741427576349400,4.751349365234375,0.060086512172222134,-0.01365826726797968,-0.0028114041589200494
1772741427586365400,4.761365478515625,0.057091422009468075,-0.005874444991350173,0.003805895088985562
1772741427596380400,4.77138037109375,0.056338557815551756,-0.009244213685393333,0.014745660645887254
1772741427606396700,4.781396728515625,0.058279170489311215,0.004358524003066122,0.009712415719032287
1772741427616411600,4.79141162109375,0.059174658024311065,-0.009564202887378633,0.005098346052318811
1772741427626427600,4.801427734375,0.040619595158100125,-0.004282682287879288,0.01110986142680049
1772741427636443600,4.811443603515625,0.06650456252098083,-0.0008720701267942786,0.009772767604142427
1772741427646458600,4.821458740234375,0.06830021376609802,0.002454407414793968,0.008592764039337635
1772741427656474600,4.831474609375,0.05796762032210827,-0.01148636658899486,0.008531462306156755
1772741427666489600,4.841489501953125,0.051074353677034376,-0.0028257980104535816,0.00714797205850482
1772741427676505600,4.851505615234375,0.0548158782929182,-0.00543338669296354,-0.0046333588890731334
1772741427686521600,4.861521484375,0.06409808590114116,-0.004065240144915878,0.003694835929945111
1772741427696536600,4.87153662109375,0.06409107163846492,-0.013821129679493605,-0.0010218903936445713
1772741427706552600,4.881552490234375,0.056603346231579775,-0.014503924311883746,-0.006225304255634546
1772741427716568600,4.891568603515625,0.05390753127634525,-0.0027566417643800378,0.015611775955930352
1772741427726583600,4.90158349609375,0.055847559428215024,0.004209617051668465,0.009201908913627266
1772741427736599800,4.911599853515625,0.059141924798488614,-0.000732113666832447,-0.0071365008164197205
1772741427746614800,4.92161474609375,0.0690244363874197,-0.0005804667690768837,0.010438757232204079
1772741427756630800,4.931630859375,0.06977554701566696,-0.00019420739784836767,0.0209230341065675
1772741427766646500,4.941646484375,0.059302668318152424,-0.012153306065127253,0.0005594605136662722
1772741427776661800,4.951661865234375,0.05211304907500743,-0.004003134694136679,0.008535334763675928
1772741427786677500,4.961677490234375,0.06916998233795166,0.011490933166258037,0.006724339818954468
1772741427796692700,4.971692626953125,0.06602583909332752,-0.0009531360063701868,0.019749898673966527
1772741427806708500,4.98170849609375,0.0597439823448658,-0.0026080270739272235,0.01627133584320545
1772741427816724500,4.991724365234375,0.045973231145739556,-0.004906221013702452,0.0035701866369694467
1772741427826739500,5.001739501953125,0.05316168134510517,0.006819470756500959,0.0003862228386104107
1772741427836755500,5.01175537109375,0.05047054256498813,-0.006034457858651876,-0.003525616842880845
1772741427846770400,5.0217705078125,0.059300914752483364,-0.008219218019209803,0.004112476820126176
1772741427856786400,5.031786376953125,0.06318740079700946,0.0013388473883271218,0.002207519981637597
1772741427866802700,5.041802734375,0.06767243725657462,-0.004964746267907321,0.001056231054663658
1772741427876817400,5.0518173828125,0.07112286997139454,-0.007713058595359325,0.011768909857422113
1772741427886833700,5.061833740234375,0.07157996608912945,-0.002784844945557415,0.007172083586454391
1772741427896848600,5.0718486328125,0.06604571283757686,-0.001562500076368451,0.005660290784016251
1772741427906864600,5.08186474609375,0.06111059452295303,-0.007515344066172837,-0.00438449869453907
1772741427916880600,5.091880615234375,0.059757426348328584,-0.007461166193522512,0.002459229720383882
1772741427926895600,5.1018955078125,0.06589315262436866,-0.004457819659076631,0.007397928231582045
1772741427936911600,5.11191162109375,0.06933072585761546,-0.0013535700334236025,0.008175342344865203
1772741427946927600,5.121927734375,0.06543781007230282,-0.002149286988377571,0.005929390048980712
1772741427956942600,5.131942626953125,0.06260521699488163,0.0067198463069275014,0.0029827421378344297
1772741427966958600,5.14195849609375,0.054668578776717186,-0.010954743930324912,0.014719137965142726
1772741427976973600,5.1519736328125,0.07067395716011524,-0.008903729684650898,0.002273059498518705
1772741427986989600,5.161989501953125,0.0748579648464918,-0.019216449384391307,0.008339958322048186
1772741427997005600,5.172005615234375,0.06123743577301502,-0.008763444431126118,0.007178951718658209
1772741428007020500,5.1820205078125,0.06153729550242424,0.004207059768401086,0.0026585516847670077
1772741428017036800,5.192036865234375,0.07305296125113964,-0.001286678809672594,0.01824212445951998
1772741428027051800,5.2020517578125,0.05493979693353176,-0.0054806964334100485,0.008904679532721638
1772741428037067800,5.21206787109375,0.055980830419063564,-0.004451243787817657,0.010621858714148402
1772741428047083500,5.22208349609375,0.06136719963252544,-0.00011544307321310043,0.024090996618196366
1772741428057098800,5.2320986328125,0.06885492503941058,-0.006627601446211337,0.012235285260155796
1772741428067114500,5.242114501953125,0.05943126313388347,-0.0022679083993658424,0.01130618771649897
1772741428077129700,5.252129638671875,0.0636257922142744,-0.008325564470514654,-0.006222381646186113
1772741428087145500,5.2621455078125,0.049856210058927534,-0.006160203130170703,-0.000988134254515171
1772741428097161500,5.272161376953125,0.058980596756935115,-0.008481266488879919,-0.005923252569139004
1772741428107176400,5.282176513671875,0.058226563519239424,-0.011865465567074716,0.0054763855844736095
1772741428117192400,5.2921923828125,0.06631517742872238,-0.008269450369104743,0.015401055814698337
1772741428127208400,5.30220849609375,0.054499067428708074,-0.006604512831568717,-0.007705313680320978
1772741428137223400,5.312223388671875,0.06781798320710658,-0.014425671443901954,0.007075637474656104
1772741428147239700,5.32223974609375,0.06722001731395721,-0.012695888509228825,0.005683014072477817
1772741428157254700,5.332254638671875,0.05943710835278034,-0.00550217761285603,0.0007777794394642114
1772741428167270700,5.342270751953125,0.059440615484118456,0.004187259089387953,0.01851816492192447
1772741428177286700,5.35228662109375,0.05823474682569504,-0.0031504999201744793,0.008003419844061136
1772741428187301600,5.362301513671875,0.06256956115961075,0.0039523908875882625,0.018420915092527867
1772741428197317600,5.372317626953125,0.06616378625929355,-0.0035786622043699023,0.012157397718355058
1772741428207332600,5.38233251953125,0.0470125110656023,-0.012378383525274693,-0.002975070288032293
1772741428217348600,5.3923486328125,0.05613923585116863,-0.005547149265743792,0.004197890081256627
1772741428227364600,5.402364501953125,0.05823357778191566,0.00550440610256046,0.017064532047510145
1772741428237379600,5.412379638671875,0.05673369461297988,-0.008919036851637065,0.008995499621331692
1772741428247395600,5.4223955078125,0.05837737016677856,-0.004516527576372027,0.007182239654287695
1772741428257411000,5.4324111328125,0.05913140340447425,-0.0013990531429648398,0.0029872721824795007
1772741428267427000,5.442427001953125,0.05434416912794113,0.001346153911948204,0.010925956227257847
1772741428277442800,5.45244287109375,0.055987260159850116,-0.0032668928414583205,0.002751782926172018
1772741428287458000,5.4624580078125,0.06945639806389808,-0.012328479968942702,-0.003967588456720113
1772741428297473800,5.472473876953125,0.07843582333326339,-0.005292480384930968,0.019209069795534012
1772741428307489000,5.482489013671875,0.058228317084908485,-0.00501212907359004,0.010151391658186912
1772741428317504800,5.4925048828125,0.0555348402172327,-0.01212378770969808,0.013931421653553842
1772741428327520800,5.502520751953125,0.056739539831876754,-0.009937054787762462,0.010591025184467435
1772741428337535700,5.51253564453125,0.05435644408762454,-0.007943652480840682,-0.002687266322597861
1772741428347552000,5.522552001953125,0.06693710871934891,0.0065096010897308584,0.00754215900786221
1772741428357568000,5.532568115234375,0.0575087706387043,-0.002641710147820413,0.020349398937076327
1772741428367583000,5.5425830078125,0.06034720893502235,-0.005715491569973528,0.018043825408443806
1772741428377599000,5.552598876953125,0.061390580508112906,-0.0017400120677426457,0.008936170649528502
1772741428387614000,5.562614013671875,0.06018880350291728,-0.0018764613963663578,0.003011383710429072
1772741428397630000,5.5726298828125,0.05525777684152126,-0.00013823942691087722,0.011504486767575144
1772741428407646000,5.58264599609375,0.08114332872629165,-0.00012636632602661848,0.011531155578792094
1772741428417661000,5.592660888671875,0.04253565791249275,-0.00178034407813102,0.003317015593498945
1772741428427677000,5.602677001953125,0.06258300516307354,-0.011730185282230377,0.00407119496166706
1772741428437692000,5.61269189453125,0.06811901198029517,-0.014797463898360728,0.008677154387161136
1772741428447708000,5.6227080078125,0.04717442362904548,-0.004250204790383577,0.012402239324897526
1772741428457724000,5.632723876953125,0.06244388895332813,0.003138663351908326,-0.006358502181246876
1772741428467739000,5.64273876953125,0.054069443839788435,-0.003596855448186397,-0.0028308395117521284
1772741428477755100,5.652755126953125,0.06005319442451,-0.005746434697508812,0.010935308577492833
1772741428487769900,5.662769775390625,0.07396364635527133,0.001485708513110876,0.017980550913885236
1772741428497786000,5.6727861328125,0.04178746989369392,-0.014232852285541593,0.00022591771036386488
1772741428507802000,5.682802001953125,0.05869242746531963,-0.016780308278650045,0.016880480717495084
1772741428517817000,5.692817138671875,0.07201192776560783,-0.008533654263243078,0.011181026966869831
1772741428527833000,5.7028330078125,0.060786184874176974,0.008084303060546517,0.011451003014668821
1772741428537848000,5.71284814453125,0.06482873826324939,-0.015444383499771355,0.011338555616140365
1772741428547864000,5.722864013671875,0.06557517271637917,0.004622581766732037,-0.0013558715883642434
1772741428557879800,5.7328798828125,0.0606412234455347,-0.0010574366310611366,0.009223682354018091
1772741428567895000,5.74289501953125,0.05570435156524181,-0.004496763429976999,0.010558218893408775
1772741428577910800,5.752910888671875,0.05600070416331291,0.006830540139786899,0.005632233733311295
1772741428587926000,5.762926025390625,0.0634907676577568,-0.007401070036739111,0.011208499495685099
1772741428597941800,5.772941650390625,0.04897650461494922,0.009083579763583838,0.011508432290330528
1772741428607957800,5.782957763671875,0.053308980861306185,0.007090835043787956,0.014862857284769415
1772741428617972700,5.79297265625,0.06662965020537376,-0.006967318261973559,0.0039056291364133354
1772741428627989000,5.802989013671875,0.05570785869657993,-0.004554886825382709,0.017067016265541315
1772741428638005000,5.8130048828125,0.06603168431222438,-0.006170103469677269,0.003996741485968232
1772741428648020000,5.82302001953125,0.05346563272774219,0.0025450083076953888,0.011903642152994871
1772741428658036000,5.833035888671875,0.05316928012967109,-0.013615706767886876,0.01246734045036137
1772741428668051000,5.843051025390625,0.07097790854275227,-0.010051840273849666,0.013627981727570295
1772741428678067000,5.85306689453125,0.0613993483364582,-0.010362732853926717,0.0034678222410380838
1772741428688083000,5.8630830078125,0.05212590855658054,-0.019496325771696865,-0.0003274053234606981
1772741428698098000,5.873097900390625,0.07353051563501357,-0.008566277891211211,0.0037874826494604347
1772741428708114000,5.883114013671875,0.06156535255312919,0.0013808964317664502,0.002997355185076594
1772741428718129000,5.89312890625,0.05648702637553215,-0.005270560814067721,0.0011304653346538543
1772741428728145000,5.903144775390625,0.05559738405942916,-0.004801043606176972,0.011213321801275013
1772741428738161000,5.913160888671875,0.0544020367950201,-0.0035282471913844343,0.007557502707466483
1772741428748176000,5.92317578125,0.07221300329566001,-0.0045631431970745324,0.005270926140248775
1772741428758192000,5.933192138671875,0.07385492528378963,-0.005755348656326532,0.018040026016160844
1772741428768207000,5.94320703125,0.06772329066097736,0.012545081861689686,0.0017142565719783305
1772741428778223000,5.95322314453125,0.055311552855372426,-0.00022847499363124369,0.0077962798994034525
1772741428788239000,5.963239013671875,0.06413491078019141,0.0003425298273563385,0.015177256996184586
1772741428798254000,5.973254150390625,0.0713116705417633,0.005593691821210086,0.008971753419563173
1772741428808270000,5.98327001953125,0.06877133840918541,-0.00356116308029741,0.015499547753110528
1772741428818285000,5.99328515625,0.0618874241143465,-0.0032315657997503875,0.013428659763187169
1772741428828301000,6.003301025390625,0.06967676281630993,-0.00575425267778337,-0.006413228043168783
1772741428838316800,6.01331689453125,0.0605541296839714,-0.00979527169689536,0.009229892899096011
1772741428848332000,6.02333203125,0.060547115421295164,-0.013915785693004726,0.001944046739861369
1772741428858347800,6.03334765625,0.06354512819349765,0.004862381871975958,-0.00451586998924613
1772741428868363800,6.04336376953125,0.06863105315566062,-0.009359802889078854,0.005229425086081028
1772741428878378800,6.053378662109375,0.06385375575125217,-0.018505268907733262,0.005072773219645023
1772741428888395000,6.06339501953125,0.05832593224048614,-0.014905819643661378,0.013797420010343193
1772741428898409700,6.07340966796875,0.05847966149747371,-0.00393664532918483,0.004646145305410027
1772741428908426000,6.083426025390625,0.06536299127042293,-0.004160444147698581,-0.0005519347943365574
1772741428918442000,6.09344189453125,0.061628480917215345,-0.009858619256690144,0.003400090767070651
1772741428928457000,6.10345703125,0.06761106245815754,-0.002276858890801668,0.014336203062161802
1772741428938473000,6.113472900390625,0.06326514220833777,-0.0045133127059787505,-0.006380933208763599
1772741428948488000,6.123488037109375,0.07209259178638458,0.006439312332496046,0.006514934851974248
1772741428958504000,6.13350390625,0.06132628310024738,-0.0007133724337443709,0.012128463884815572
1772741428968520000,6.14352001953125,0.06447627156376838,-0.00377597487475723,-0.0015460603982210158
1772741428978535000,6.153534912109375,0.06268412744998932,-0.004544913420639932,0.010671908400952815
1772741428988551000,6.163551025390625,0.06134381875693798,-0.0024123949039727447,0.006719152187183499
1772741428998566000,6.17356591796875,0.0632902766495943,0.001234035306982696,0.012121814948320387
1772741429008582000,6.183581787109375,0.06015314766764641,-0.0031731866760179397,0.012691431529819965
1772741429018598000,6.193597900390625,0.051778118032217026,-0.007915741560608149,0.002182239409908652
1772741429028612900,6.20361279296875,0.06689677670896053,-0.007765702098049223,0.0052614276595413685
1772741429038629000,6.213629150390625,0.05583469994664192,0.00020374241117388007,-0.003687894732505083
1772741429048644000,6.22364404296875,0.057930210921168325,-0.0055167541274800894,-0.009170125535875559
1772741429058660000,6.23366015625,0.06152618958652019,-0.012535875641927123,-0.0008466799572110175
1772741429068676000,6.243676025390625,0.05659574744701385,-0.009332659153826535,-0.009284911021962761
1772741429078691000,6.253691162109375,0.06183014096915722,-0.0012879574513062833,-0.0037318800047039984
1772741429088707000,6.26370703125,0.07424889303743838,0.004903700263053179,0.005737959130108356
1772741429098722800,6.273722900390625,0.05375964723825454,-0.006493636335618794,0.0013232844930142163
1772741429108738000,6.283738037109375,0.0542190814435482,-0.017848010575398802,0.010182225187867879
1772741429118753800,6.29375390625,0.06558920124173163,0.000950944049283862,0.015866042977944014
1772741429128769000,6.30376904296875,0.08354396012723446,-0.008278218197450041,0.0036446401126682755
1772741429138784800,6.31378466796875,0.04987316119372844,0.003846080968901515,-0.00320829452201724
1772741429148800800,6.32380078125,0.05720598829984665,0.005434957595542073,-0.00017192250080406664
1772741429158815700,6.333815673828125,0.0651285979926586,-0.010242686670832335,0.011318316545709967
1772741429168832000,6.34383203125,0.06708031658232212,-0.010716733923368155,0.010628142324462532
1772741429178846700,6.3538466796875,0.06319324601590633,0.00956033042985946,0.005687178790941834
1772741429188863000,6.363863037109375,0.06394318760037422,-0.0008470087507739662,0.007348901458084583
1772741429198879000,6.37387890625,0.06319324601590633,-0.005699782544188201,0.026487609431147575
1772741429208894000,6.38389404296875,0.06378945834338665,-0.001889357410557568,0.01114449434876442
1772741429218910000,6.393909912109375,0.0691769966006279,-0.0031086335398256776,0.005438391661643982
1772741429228925000,6.403925048828125,0.05405599983632564,-0.007711853018961846,0.005917407350242138
1772741429238941000,6.41394091796875,0.0664712447732687,-0.0011771905532106757,0.005206336471438407
1772741429248957000,6.42395703125,0.06692366471588611,-0.006066643095202743,-0.002441986324638128
1772741429258972000,6.433971923828125,0.05899754789173603,0.012469934266246855,-0.00880187674537301
1772741429268988000,6.44398779296875,0.06976794823110104,0.0000023015549406409263,0.012768734549731016
1772741429279003000,6.4540029296875,0.05883855793774127,-0.002969992254115641,0.005519640204310417
1772741429289019100,6.46401904296875,0.05449088412225246,-0.004231025165878236,0.014717238269001245
1772741429299035100,6.47403515625,0.04671382037997245,-0.002464417352154851,0.006201046597212553
1772741429309050000,6.484050048828125,0.05554477708935737,-0.020987002720870077,0.005295256863906979
1772741429319066000,6.494066162109375,0.06257540637850761,-0.010705262681283056,0.0038012189138680696
1772741429329081000,6.5040810546875,0.055093526190519326,-0.0019278262574225662,-0.0020610972482711077
1772741429339097000,6.51409716796875,0.06540741493403911,0.007047690021805465,0.010049246457964182
1772741429349113000,6.524113037109375,0.05807108069658279,-0.009178053114004433,-0.0006273381181061267
1772741429359128000,6.534128173828125,0.06555529897212982,-0.011988178631290793,0.005343187658861279
1772741429369144000,6.54414404296875,0.05627250684201717,-0.015774199976027012,0.003292246478423476
1772741429379159000,6.554158935546875,0.05477554628252983,0.0031994536284357306,0.015704641871154307
1772741429389175000,6.564175048828125,0.04953823015093803,-0.01550740226600319,0.0016398030962795017
1772741429399190800,6.574190673828125,0.0607546206921339,-0.013076777585595846,0.005327040241658687
1772741429409206000,6.5842060546875,0.05834989763796329,-0.003967917250283062,0.01578121423870325
1772741429419221800,6.5942216796875,0.06357903046309947,-0.009074519674293697,0.008840309059619904
1772741429429237000,6.604237060546875,0.05833996076583862,-0.0011795651733875275,0.009290537045150996
1772741429439253000,6.6142529296875,0.06926292131841183,-0.01078103133123368,-0.0025330986741930244
1772741429449269000,6.62426904296875,0.05534662416875362,-0.0064021586598828435,0.020230594862997532
1772741429459284000,6.634283935546875,0.04487199190557003,-0.0030915728071704506,0.019341756264492867
1772741429469300000,6.644300048828125,0.049801265001296995,-0.003868292800709605,0.005077303264290094
1772741429479316000,6.65431591796875,0.07508242125213145,0.0007185235328972339,0.01112323236502707
1772741429489331000,6.6643310546875,0.04425824392139911,-0.007711816486343741,0.021107085436582563
1772741429499347000,6.674346923828125,0.07103752977550029,-0.007619900419190526,0.007381853879615664
1772741429509362000,6.68436181640625,0.07926116824150085,-0.012990487541630864,0.0032887393470853567
1772741429519378000,6.6943779296875,0.0514262358546257,0.00424516328908503,0.007968056269735098
1772741429529394000,6.704393798828125,0.05336860209405422,0.00859137579984963,0.0030706396169960497
1772741429539409000,6.714408935546875,0.05785597664117813,-0.009449052075110376,0.0065731678452342745
1772741429549425000,6.7244248046875,0.05261866050958633,-0.0018010580725967883,0.0014945494066923857
1772741429559440000,6.73443994140625,0.05216799413263797,-0.0076084291771054266,-0.005655906869843602
1772741429569456000,6.7444560546875,0.061599254822731014,0.004304857587069273,0.0005466740973293781
1772741429579472100,6.75447216796875,0.05546645115613937,0.008278181664831935,0.0021329934407025575
1772741429589487000,6.764487060546875,0.051875148665904994,0.003284976487420499,0.012572262129560112
1772741429599503000,6.774503173828125,0.059357613375782964,-0.001540653570741415,0.006411401412263512
1772741429609518000,6.78451806640625,0.06787935800552368,0.0063770607512444255,0.010389803523942828
1772741429619534000,6.7945341796875,0.05216390247941017,-0.0017335823269560933,0.011467223497107625
1772741429629550000,6.804550048828125,0.05799859998226165,0.008637114637717604,0.011656389393657445
1772741429639565000,6.81456494140625,0.06966974855363368,0.007302285837382078,0.016461670783534645
1772741429649581000,6.8245810546875,0.062035308152437206,-0.001025507122837007,0.02257598894536495
1772741429659596000,6.834595947265625,0.055152562901377676,-0.00478306955806911,0.011343597117438911
1772741429669612000,6.844612060546875,0.06592822393774986,-0.010726195871457457,0.007521189285069703
1772741429679627800,6.854627685546875,0.0527507624566555,-0.006735482267476618,0.007609086764231323
1772741429689643000,6.86464306640625,0.06741758571267127,0.008423179626092315,0.0022903028942644595
1772741429699659000,6.874658935546875,0.05036006792783737,0.005850333463400602,0.0062989540137350555
1772741429709674000,6.884674072265625,0.06711714146137238,-0.010198664866015315,0.008105126652866602
1772741429719690000,6.89468994140625,0.06846504893898964,-0.012016929801739752,0.014809738858044147
1772741429729706000,6.9047060546875,0.049908817028999325,-0.01984630825314671,0.011809680259227752
1772741429739721000,6.914720947265625,0.058880058991909026,-0.0002145560661330819,0.007638824315369129
1772741429749737000,6.924737060546875,0.06262275265157223,-0.004540529506467283,0.006579378390312194
1772741429759752000,6.934751953125,0.05141045376360416,-0.0019320275085046887,0.0022944676127284766
1772741429769768000,6.944767822265625,0.057392450782656666,-0.006901559549383819,0.021624606504663822
1772741429779784000,6.954783935546875,0.05783902550637722,-0.008418539983592927,0.009222951701655983
1772741429789799000,6.964798828125,0.05528934102356434,-0.017814765892922878,0.008411562253534793
1772741429799815000,6.97481494140625,0.05782967315614223,-0.009546557632833718,0.00803133076429367
1772741429809830000,6.984829833984375,0.06560790594220162,0.007812244653515517,-0.004350011903047561
1772741429819846000,6.994845947265625,0.053638066685199735,-0.014726882880181074,0.01174370235092938
1772741429829862000,7.00486181640625,0.06905658509135246,0.0020019874721765515,0.017791385017335414
1772741429839876900,7.014876953125,0.06471534101665019,0.008090111746825277,0.001325111123919487
1772741429849893000,7.02489306640625,0.06650806965231895,-0.0062730889201164245,0.0065971332427114246
1772741429859908000,7.034908203125,0.052740825584530825,-0.003408237540908158,0.014397431730106472
1772741429869924000,7.044924072265625,0.07160568505227566,0.000994527462683618,0.014751798125728964
1772741429879940000,7.054940185546875,0.05964402910172939,0.000029737551137804983,0.017966960779950022
1772741429889955000,7.064955078125,0.055154316467046736,0.0005898921845480799,0.007632467639818787
1772741429899971000,7.07497119140625,0.059198038899898525,-0.017124628204293547,0.006138283559307456
1772741429909987000,7.084987060546875,0.04454524416923523,-0.017791238886862994,0.003335574163496494
1772741429920002000,7.095001953125,0.06249883401095867,0.0012194222597405313,0.0009859422974288464
1772741429930018000,7.10501806640625,0.06040390755832195,-0.002507489308901131,0.0048855800844728944
1772741429940033000,7.115032958984375,0.04753624267876148,-0.00860697522778064,0.006979483623802661
1772741429950049000,7.125049072265625,0.06534837822318076,-0.004215644933655858,-0.000984407927468419
1772741429960064800,7.135064697265625,0.0660877984136343,-0.003068447659909725,0.010320391549542545
1772741429970080000,7.145080078125,0.08358663022518158,-0.0001371799809858203,0.012193126618862151
1772741429980096000,7.155095947265625,0.07027063705623149,0.004635806574486196,0.0025885551884770393
1772741429990111200,7.165111328125,0.05426759676039219,-0.008283625024929643,0.009417597490921616
1772741430000127000,7.175126953125,0.06579436842501163,-0.009144443105347453,0.007134820315986871
1772741430010143000,7.18514306640625,0.05727087022960186,-0.008545636961981653,0.014392171033099293
1772741430020158000,7.195157958984375,0.06684183165133,-0.0015527093347162007,0.009205635240674019
1772741430030174000,7.205174072265625,0.05472060122489929,-0.002632029004022479,0.010997487093508243
1772741430040189000,7.21518896484375,0.05547989515960216,-0.0033318843690678477,0.0014558978967368602
1772741430050205000,7.225204833984375,0.06251286253631115,-0.0039038390381261703,0.01568447586596012
1772741430060221000,7.235220947265625,0.056387657654285425,0.00010072042811661959,0.008134937269240618
1772741430070236000,7.24523583984375,0.05534487060308456,-0.0009522226909175514,0.0038853900659829377
1772741430080252000,7.255251953125,0.06536883648931979,-0.003410831356793642,0.005750453285500407
1772741430090267000,7.265266845703125,0.06851297973394394,0.00028762130234390496,-0.000799406749382615
1772741430100283000,7.275282958984375,0.061485857576131814,-0.002811915615573525,0.0031918548438698052
1772741430110299100,7.285299072265625,0.05908347260951995,0.00017159370724111793,0.0038891894582659004
1772741430120313900,7.29531396484375,0.052200142836570734,-0.008468772333487869,0.012882789383456111
1772741430130330000,7.305330078125,0.0540010547786951,-0.01352594612520188,-0.001680281237140298
1772741430140345000,7.315344970703125,0.05804068555831909,0.0019035320663824675,0.0019303104754537343
1772741430150361000,7.325361083984375,0.06777180597782134,-0.0005859831944108009,0.012221622060984372
1772741430160377000,7.335377197265625,0.07675590742230415,-0.00006407821215689182,-0.005018412683904171
1772741430170392000,7.34539208984375,0.06074234573245048,-0.0002000526167452335,0.0007030337028205394
1772741430180408000,7.355407958984375,0.04712240118086338,0.002749042979814112,0.01119169449135661
1772741430190423000,7.365423095703125,0.06507365293502808,-0.0014036562528461217,0.01053118475601077
1772741430200439000,7.37543896484375,0.048618777218461036,0.0008548632636666297,0.007927139737457036
1772741430210455000,7.385455078125,0.052209495186805725,-0.0059216451339423656,0.0076111325908452265
1772741430220470000,7.395469970703125,0.06582300999760628,-0.00756349405683577,0.0025727000322192904
1772741430230486000,7.405486083984375,0.07330079853236675,-0.002671447698958218,0.006043006491288542
1772741430240501000,7.4155009765625,0.0729980161935091,-0.006413154977932572,0.003686068101599812
1772741430250517000,7.42551708984375,0.06925239992439747,-0.01082059615664184,0.013733414863422512
1772741430260533200,7.435533203125,0.06416530591845512,-0.00020969722792506216,0.004445946558192372
1772741430270548200,7.44554833984375,0.04920446815192699,0.006222345113568007,0.017576427092403174
1772741430280564200,7.455564208984375,0.059229018560051916,-0.004974829270504415,0.005630991624295712
1772741430290579200,7.4655791015625,0.06117839906215668,-0.0056309185590595005,0.00996931308954954
1772741430300595200,7.47559521484375,0.05848316862881183,-0.008737798533216119,0.008365019698068498
1772741430310611200,7.485611083984375,0.06012333705127239,0.0061248030232265585,0.003975990958884358
1772741430320626200,7.495626220703125,0.06460954255461693,-0.010067914625816047,0.002344225038588047
1772741430330642200,7.50564208984375,0.06012450609505176,-0.011500796973146498,0.004423953922092915
1772741430340657200,7.5156572265625,0.051451370295882225,-0.019507760481163858,0.007682955718040466
1772741430350673200,7.525673095703125,0.07001227838099003,-0.004082739268988371,0.010162862900272011
1772741430360689200,7.535689208984375,0.057153381329774856,-0.0010682137534022331,0.01513319865874946
1772741430370704100,7.5457041015625,0.056712067303061484,-0.007492547712475061,0.015043620679154992
1772741430380720000,7.55572021484375,0.05371931522786617,-0.005368687426298856,0.0222367470536381
1772741430390735000,7.565735107421875,0.06703706196248531,-0.01098422575313598,0.010606076623126863
1772741430400751400,7.57575146484375,0.06509118859171867,-0.0010666793834418057,0.009137538440525532
1772741430410767400,7.585767333984375,0.055061377486586564,0.005998692425526678,0.010255582685023546
1772741430420782300,7.5957822265625,0.04308569301068783,-0.003578735269606113,-0.006142740538716316
1772741430430798300,7.60579833984375,0.05296703555583954,-0.005060279064252973,0.007708966942131519
1772741430440813300,7.615813232421875,0.047885202246904374,-0.015843758080899713,0.00882671892568469
1772741430450829300,7.625829345703125,0.07542612012326717,-0.0051805809756740925,0.005462357059121132
1772741430460845300,7.63584521484375,0.055233226922154426,0.0025490999609231947,-0.0034156536623835563
1772741430470860300,7.6458603515625,0.06481178712844848,-0.007828209407627582,0.007232435471564531
1772741430480876300,7.655876220703125,0.05658230344355106,0.003996010833606124,0.0034920068342238664
1772741430490891300,7.665891357421875,0.05747720645666122,0.004032470386475325,-0.003932955534756183
1772741430500907300,7.6759072265625,0.06704992144405841,-0.0035188217759132383,0.018223127498105167
1772741430510923300,7.68592333984375,0.059420741739869117,-0.011726714683510362,-0.005432327247038483
1772741430520938200,7.695938232421875,0.06286182210445404,0.00023205519020557403,0.0042940439321100705
1772741430530954200,7.705954345703125,0.06795183871984481,0.00010137801524251698,0.012202917360514402
1772741430540969200,7.71596923828125,0.05686755012571811,0.0001651639664545655,0.008554770116508006
1772741430550985200,7.725985107421875,0.06509703381061553,-0.005230594129860401,0.006312982539087533
1772741430561001200,7.736001220703125,0.05476444036662578,0.0016543065456673502,-0.005408581045269966
1772741430571016200,7.74601611328125,0.06284253288209438,0.0014538155375048518,0.0052151042997837065
1772741430581032200,7.7560322265625,0.058658525195717806,-0.005993870119936764,-0.00201959619410336
1772741430591047200,7.766047119140625,0.051774026378989216,0.003347556862235069,0.00970204045549035
1772741430601063200,7.776063232421875,0.061657122489809986,-0.010946925950050354,0.0036674364663660526
1772741430611079200,7.7860791015625,0.06689677670896053,-0.0032850130200386047,0.011132365519553423
1772741430621094100,7.79609423828125,0.061661214143037796,0.0002304112223908305,0.008604527542367577
1772741430631110100,7.806110107421875,0.06645195555090903,-0.006002126491628587,0.010547697499394416
1772741430641125000,7.816125,0.05956453412473201,-0.0018124927820637822,0.011046586932241916
1772741430651141000,7.82614111328125,0.06675181528031826,0.000049830491095781326,0.0015961100850254296
1772741430661157000,7.8361572265625,0.05926993509232997,0.003697429745830595,0.0062660015922039744
1772741430671172000,7.846172119140625,0.053884734922647476,-0.001931260323524475,0.007025733918324112
1772741430681188400,7.856188232421875,0.05132920522093773,-0.000921644889563322,0.009546849893778561
1772741430691203300,7.866203369140625,0.07467033331990242,-0.008387925649620593,0.00075191434584558
1772741430701219300,7.87621923828125,0.05117255335450172,-0.016519319254904984,0.0027342472694814202
1772741430711235300,7.8862353515625,0.060301616227626795,0.011028685949370265,0.0007837707888334989
1772741430721250300,7.896250244140625,0.06285363879799842,-0.004635477780923247,0.013424568109959362
1772741430731266300,7.906266357421875,0.0609071809053421,0.0024067688807845114,0.0025198738664388657
1772741430741281300,7.91628125,0.054770285585522646,-0.00035129765570163723,0.0066218292925506825
1772741430751297300,7.92629736328125,0.05806055930256843,-0.004749167288467288,0.008415507776290177
1772741430761313300,7.936313232421875,0.0564104540079832,0.010143098753876983,0.01276471596173942
1772741430771328300,7.946328369140625,0.05057926363646984,-0.001567030121013522,0.01815064678378403
1772741430781344300,7.95634423828125,0.060004094585776324,-0.0052100262658670545,0.009706205173954367
1772741430791359200,7.966359130859375,0.06329378378093242,-0.01604611225258559,0.02212057332806289
1772741430801375200,7.976375244140625,0.06479015981853008,0.003164820706471801,0.008986001140624283
1772741430811391200,7.98639111328125,0.07093114679157733,-0.00659136108905077,0.009276289324089883
1772741430821406500,7.996406494140625,0.043915129572153086,-0.007442242297343909,0.020890739272162315
1772741430831422200,8.006422119140625,-0.19391513690352438,0.05745831909310072,-0.0022629034306854007
1772741430841437400,8.0164375,-0.6415753177732229,0.20252298891413956,0.03058518094308674
1772741430851453200,8.026453125,-0.22380174112319945,0.044793410244025285,0.022874460435286164
1772741430861469200,8.03646923828125,0.05891688387095928,0.037395628142915666,0.0015412380926311015
1772741430871484200,8.046484130859374,0.19275836808383465,0.04735522355604917,-0.007877382311597465
1772741430881500200,8.056500244140626,0.21420739882588385,-0.009183788735046982,0.002351531562209129
1772741430891515100,8.06651513671875,0.21245324863493442,-0.017477496762573718,0.013395195885002611
1772741430901531100,8.07653125,0.2597586051672697,-0.01529184155287221,-0.0029915099661797285
1772741430911547100,8.086547119140626,0.38529169524013995,-0.04352918072817847,0.011400441871210932
