time,seconds_elapsed,z,y,x
1772741422889043000,0.06404296875,-0.001614810898900032,0.004429019056260586,0.04287012293934822
1772741422899059000,0.074058837890625,0.0008040568791329861,0.0016924041556194425,0.029355110600590706
1772741422909074700,0.08407470703125,-0.0013344613835215569,0.0002399161458015442,-0.0011362193617969751
1772741422919090000,0.09408984375,0.0026496928185224533,0.0008753750007599592,-0.016689322888851166
1772741422929105700,0.104105712890625,-0.001694721868261695,-0.0015259971842169762,-0.0072923582047224045
1772741422939121700,0.11412158203125,0.00010344432666897774,0.0030242796055972576,0.01373942382633686
1772741422949136600,0.12413671875,0.001150066964328289,0.0011515447404235601,0.02274942956864834
1772741422959153000,0.13415283203125,-0.000961266690865159,0.0020403158850967884,0.016551073640584946
1772741422969168000,0.14416796875,0.0012401021085679531,0.0009233860764652491,0.00317161763086915
1772741422979183900,0.154183837890625,0.0003552548587322235,-0.000822829082608223,-0.008809705264866352
1772741422989200000,0.164199951171875,0.00013021798804402351,-0.001532827503979206,-0.009026486426591873
1772741422999214800,0.17421484375,0.00045931385830044746,-0.00014363671652972698,-0.004685462452471256
1772741423009230800,0.18423095703125,0.0014705159701406956,-0.0001875788439065218,0.006056398153305054
1772741423019246800,0.194246826171875,-0.00020774314180016518,-0.00013668369501829147,0.007973897270858288
1772741423029261800,0.20426171875,-0.000872734235599637,0.0005759780760854483,0.0038111109752207994
1772741423039277800,0.21427783203125,-0.0006339920219033957,0.00023846211843192577,-0.0017491586040705442
1772741423049292800,0.224292724609375,-0.0005879192613065243,-0.0009690152946859598,-0.0055675990879535675
1772741423059308800,0.234308837890625,0.0002352059818804264,-0.00033452780917286873,-0.0027594161219894886
1772741423069324800,0.24432470703125,-0.00006732926703989506,0.00011874223127961159,0.003210858441889286
1772741423079339800,0.25433984375,0.002375055570155382,-0.000276204664260149,0.004865746479481459
1772741423089356000,0.26435595703125,0.0007273578085005283,0.0011059760581701994,0.002191134262830019
1772741423099370800,0.274370849609375,-0.0004575117491185665,0.000795912928879261,0.0006857698317617178
1772741423109387000,0.284386962890625,0.0014652903191745281,-0.0004794748965650797,-0.0018615436274558306
1772741423119403000,0.294403076171875,0.0032193358056247234,-0.0006228040438145399,-0.0010807052021846175
1772741423129418000,0.30441796875,-0.0005141496658325195,-0.0007359886076301336,0.003100990317761898
1772741423139434000,0.31443408203125,-0.00047163921408355236,-0.0007407281082123518,0.002683584578335285
1772741423149449700,0.32444970703125,0.001412014476954937,0.0007165537681430578,0.0019083382794633508
1772741423159465000,0.33446484375,-0.000021133339032530785,-0.00047150813043117523,-0.00019704410806298256
1772741423169480700,0.344480712890625,-0.0007700142450630665,0.0007157290820032358,-0.002093747491016984
1772741423179496000,0.354495849609375,-0.0011858942452818155,0.0003952148836106062,-0.00003918877337127924
1772741423189511700,0.36451171875,0.0006141362246125937,-0.0005901546683162451,0.00147614988964051
1772741423199527700,0.374527587890625,-0.00012961984612047672,-0.0011003874242305756,0.0017078687669709325
1772741423209542700,0.384542724609375,-0.0005783624947071075,0.0008471822366118431,0.0008074539946392179
1772741423219558700,0.39455859375,-0.0001837590243667364,0.0010356686543673277,-0.0008965348242782056
1772741423229575000,0.404574951171875,-0.0014130740892142057,-0.0003374572843313217,-0.0013308963971212506
1772741423239590000,0.41458984375,0.0011928798630833626,0.00249800318852067,-0.0006638236227445304
1772741423249604600,0.4246044921875,0.00037821847945451736,0.0001882435753941536,0.000917028752155602
1772741423259619800,0.434619873046875,-0.00040152412839233875,0.0005405377596616745,0.00023744208738207817
1772741423269635600,0.444635498046875,-0.0005203012842684984,-0.00034469692036509514,0.0010244062868878245
1772741423279651600,0.454651611328125,0.0013171983882784843,0.000661228084936738,0.0008251987164840102
1772741423289666600,0.46466650390625,-0.0008269126992672682,-0.000027731526643037796,-0.000039529637433588505
1772741423299682600,0.4746826171875,-0.00004227529279887676,-0.0001705631148070097,0.0013702758587896824
1772741423309697500,0.484697509765625,-0.001869736472144723,0.001496841898187995,0.0010664090514183044
1772741423319713500,0.494713623046875,-0.0006212678272277117,0.00031714048236608505,0.0008235519053414464
1772741423329729500,0.5047294921875,-0.00016906298696994781,0.00010861502960324287,0.0004919882630929351
1772741423339744500,0.51474462890625,-0.002019356470555067,0.00012264307588338852,-0.0009003849700093269
1772741423349760500,0.524760498046875,0.0017064057756215334,-0.0011042752303183079,0.0004751377273350954
1772741423359776800,0.53477685546875,-0.0005725354421883821,0.0008548328187316656,0.0009876025142148137
1772741423369791500,0.54479150390625,0.0001606326550245285,0.0005823913961648941,0.0003127575619146228
1772741423379807700,0.554807861328125,-0.0009096083231270313,0.00043240515515208244,-0.0003008338389918208
1772741423389822700,0.56482275390625,0.0005103889852762222,-0.00004190392792224884,0.0007039769552648067
1772741423399838700,0.574838623046875,0.0005454099737107754,0.00011569797061383724,0.00028927484527230263
1772741423409854700,0.584854736328125,-0.0001848286483436823,0.001715192454867065,-0.0007893053698353469
1772741423419869700,0.59486962890625,-0.0009617430623620749,0.0008382247760891914,-0.0006686882697977126
1772741423429885700,0.6048857421875,0.0009554664138704538,0.00008028908632695675,0.0013201604597270489
1772741423439901700,0.614901611328125,-0.0001258193515241146,0.0006699447985738516,0.0008777596522122622
1772741423449916700,0.624916748046875,0.00033037993125617504,-0.0010038521140813828,0.001447942340746522
1772741423459932700,0.6349326171875,-0.00018294458277523518,0.0011377825867384672,-0.00022653257474303246
1772741423469947600,0.64494775390625,-0.0006740314420312643,0.0012424448505043983,-0.000552503508515656
1772741423479963600,0.654963623046875,0.0008954338263720274,0.00027519138529896736,0.00020061898976564407
1772741423489979400,0.6649794921875,-0.002353622578084469,0.0005297895986586809,0.00040728028398007154
1772741423499994600,0.67499462890625,-0.001064562238752842,0.0006551411934196949,0.0016442911000922322
1772741423510010600,0.6850107421875,-0.00037693395279347897,0.000024504726752638817,-0.000037495046854019165
1772741423520025900,0.69502587890625,-0.00013025314547121525,-0.001036264467984438,-0.000032630166970193386
1772741423530041600,0.70504150390625,0.0017904185224324465,-0.00008844537660479546,-0.0008390353177674115
1772741423540057600,0.7150576171875,-0.00029467628337442875,-0.00013803225010633469,-0.0006598039180971682
1772741423550072600,0.725072509765625,-0.0018787244334816933,0.0008465384598821402,-0.000004133675247430801
1772741423560088600,0.735088623046875,0.0015800981782376766,-0.0005190388765186071,-0.0001391050172969699
1772741423570104600,0.7451044921875,-0.000780527712777257,-0.0009121214970946312,0.0001498480560258031
1772741423580119600,0.75511962890625,0.001208802917972207,0.001410781405866146,0.00017495127394795418
1772741423590135600,0.765135498046875,-0.0007978889625519514,-0.00006966991350054741,-0.0002514207735657692
1772741423600150500,0.775150634765625,-0.00012218207120895386,-0.0012958233710378408,0.0015402792487293482
1772741423610166500,0.78516650390625,-0.0008734597358852625,-0.00022656423971056938,-0.00044111255556344986
1772741423620182500,0.7951826171875,-0.0010945785325020552,-0.0009209711570292711,0.0005365241086110473
1772741423630197500,0.805197509765625,-0.0006993655115365982,-0.0013087273109704256,-0.0004986466374248266
1772741423640213800,0.8152138671875,0.0014801127836108208,0.0014808239648118615,0.0002928697504103184
1772741423650229800,0.825229736328125,0.0000955355353653431,0.0008653674740344286,-0.00005387375131249428
1772741423660244700,0.83524462890625,-0.0003177241887897253,-0.0015457177069038153,-0.0011167029151692986
1772741423670260700,0.8452607421875,-0.000656211981549859,-0.00009695789776742458,0.0005152822704985738
1772741423680275700,0.855275634765625,-0.0003574120346456766,-0.00036821886897087097,0.0009960791794583201
1772741423690291700,0.865291748046875,-0.0005046848673373461,0.00107441539876163,-0.0003874329850077629
1772741423700307700,0.8753076171875,0.001784580759704113,-0.0007253123912960291,0.00031092180870473385
1772741423710322700,0.88532275390625,-0.00041172816418111324,0.00035939295776188374,-0.00047550967428833246
1772741423720338700,0.895338623046875,0.0013879151083528996,-0.0001977600622922182,-0.0002445857971906662
1772741423730353700,0.905353759765625,0.0006864382885396481,-0.0018316095229238272,-0.0006597726023755968
1772741423740369700,0.91536962890625,-0.00048717926256358624,-0.0018882649019360542,-0.0011413015890866518
1772741423750385400,0.925385498046875,0.0015631886199116707,0.0012398839462548494,-0.001079782610759139
1772741423760400600,0.935400634765625,0.0013155858032405376,-0.0018385499715805054,-0.0009783884743228555
1772741423770416600,0.945416748046875,0.000671100802719593,0.0010560397058725357,-0.0018697484629228711
1772741423780431600,0.955431640625,0.0002046581357717514,-0.0006735895294696093,-0.00034949416294693947
1772741423790447600,0.965447509765625,0.0014795134775340557,-0.0011668072547763586,0.000653984840027988
1772741423800463600,0.975463623046875,0.0012213927693665028,-0.0011885222047567368,-0.000580510008148849
1772741423810478600,0.985478515625,0.0006410898640751839,-0.001635933294892311,0.0010448172688484192
1772741423820494600,0.99549462890625,0.002723728772252798,-0.0000951872207224369,0.00010796298738569021
1772741423830510600,1.005510498046875,-0.000980195589363575,-0.0002730865962803364,-0.0008454486378468573
1772741423840525600,1.015525634765625,-0.000013065291568636894,0.0011292765848338604,-0.000026042107492685318
1772741423850541600,1.02554150390625,-0.00004156096838414669,-0.0013527893461287022,0.0013303059386089444
1772741423860556500,1.035556640625,0.00030266260728240013,0.0009682490490376949,-0.00009409699123352766
1772741423870572500,1.045572509765625,0.0017072134651243687,0.0005336212925612926,-0.0009130190592259169
1772741423880588500,1.055588623046875,0.0011883089318871498,-0.00023445463739335537,-0.00010099378414452076
1772741423890603500,1.065603515625,-0.00023834616877138615,-0.0015284847468137741,-0.0012639962369576097
1772741423900619500,1.07561962890625,0.0023534782230854034,-0.00032226857729256153,0.00003506499342620373
1772741423910635800,1.0856357421875,-0.0015528465155512094,-0.0005254677962511778,0.00016582617536187172
1772741423920650800,1.095650634765625,0.0017061037942767143,0.001305299112573266,-0.00009032001253217459
1772741423930666800,1.105666748046875,-0.000603389460593462,-0.0021685282699763775,-0.0009931315435096622
1772741423940681700,1.115681640625,-0.0004317017737776041,0.0005037363152951002,-0.0006384950829669833
1772741423950697700,1.12569775390625,0.0006753741763532162,-0.0013743247836828232,0.00042304093949496746
1772741423960713700,1.135713623046875,0.00010878453031182289,0.0002292220015078783,-0.00037426152266561985
1772741423970728700,1.145728759765625,0.00006590737029910088,0.0003796906676143408,-0.0015772114275023341
1772741423980744700,1.15574462890625,-0.00032651936635375023,-0.0001913849264383316,-0.0015187438111752272
1772741423990759700,1.165759765625,0.0013233087956905365,0.0016890730476006866,-0.0006737228250131011
1772741424000775700,1.175775634765625,0.0009398204274475574,-0.0004897741600871086,-0.0002112281508743763
1772741424010791400,1.18579150390625,0.001866334117949009,-0.00024236668832600117,0.0009933196706697345
1772741424020806700,1.195806640625,0.00010568974539637566,-0.0007865217048674822,-0.0010350894881412387
1772741424030822400,1.205822509765625,0.0017528552561998367,-0.0005239339079707861,0.00044775858987122774
1772741424040837600,1.215837646484375,0.000031942036002874374,-0.00024464819580316544,-0.00025374232791364193
1772741424050853600,1.225853515625,0.0016087996773421764,-0.00020390190184116364,-0.0010558865033090115
1772741424060869600,1.23586962890625,0.0013523497618734837,-0.00003209174610674381,-0.0003231768496334553
1772741424070884600,1.245884521484375,0.00017603160813450813,0.0002323603257536888,-0.000035555451177060604
1772741424080900600,1.255900634765625,0.00013096444308757782,-0.0012439729180186987,0.00005114416126161814
1772741424090916600,1.26591650390625,0.0002366919070482254,0.00039972993545234203,0.0004519498907029629
1772741424100931600,1.275931640625,0.0014407150447368622,0.0006297130603343248,0.0006162654608488083
1772741424110947600,1.285947509765625,0.0008790544234216213,-0.0016550126019865274,0.000381108489818871
1772741424120962600,1.295962646484375,-0.0003684170078486204,-0.00047975429333746433,0.0007763680769130588
1772741424130978600,1.305978515625,0.0005450472235679626,-0.0002928003668785095,-0.00036719313357025385
1772741424140994600,1.31599462890625,-0.00021214690059423447,-0.0014956286177039146,-0.000707666331436485
1772741424151009500,1.326009521484375,-0.00020229327492415905,-0.00026924279518425465,-0.0013942292425781488
1772741424161025500,1.336025634765625,-0.0020701768808066845,0.0002105371095240116,0.0002440023235976696
1772741424171040500,1.34604052734375,-0.0004325991030782461,0.00016339914873242378,0.00003254727926105261
1772741424181056800,1.356056884765625,-0.00008161133155226707,-0.0005655321292579174,-0.00011848332360386848
1772741424191072800,1.36607275390625,0.0018121625762432814,0.0006443420425057411,-0.0004793417174369097
1772741424201087700,1.376087646484375,-0.0009284408297389746,0.0003727441653609276,0.00022456038277596235
1772741424211103700,1.386103759765625,0.001326191471889615,0.00026515242643654346,0.00116998259909451
1772741424221119700,1.39611962890625,-0.001311357831582427,-0.0010256883688271046,-0.00003124750219285488
1772741424231134700,1.406134765625,-0.0004426345694810152,0.0013421282637864351,0.0003280129749327898
1772741424241150700,1.416150634765625,0.0001973472535610199,-0.0006924346089363098,0.0012301960960030556
1772741424251166000,1.426166015625,-0.00036804191768169403,0.0007701735012233257,-0.000011103227734565735
1772741424261182000,1.436181884765625,0.00028404220938682556,-0.0005383237730711699,0.0012498177820816636
1772741424271197700,1.44619775390625,0.0009418432600796223,0.0002805981785058975,0.00002449739258736372
1772741424281213000,1.456212890625,-0.0002546205651015043,-0.001073311548680067,0.00015500118024647236
1772741424291228700,1.466228759765625,-0.0006242673844099045,-0.0018293829634785652,-0.0006271692109294236
1772741424301244000,1.476243896484375,0.00041948724538087845,0.0006974968127906322,-0.00006862194277346134
1772741424311260000,1.486260009765625,-0.0007712121587246656,-0.0004886749666184187,-0.0000819377601146698
1772741424321276000,1.49627587890625,-0.0005521210841834545,-0.001543134916573763,0.0005529701011255383
1772741424331291000,1.506290771484375,0.0020460588857531548,-0.00014950288459658623,0.0000059569720178842545
1772741424341307000,1.516306884765625,0.0005432385951280594,0.0006462549790740013,-0.000454928376711905
1772741424351323000,1.526322998046875,-0.0000035082921385765076,-0.0010536408517509699,-0.0004376178840175271
1772741424361337900,1.536337890625,0.0004957760684192181,0.0001182768028229475,0.0017243808833882213
1772741424371353900,1.546353759765625,0.001265429425984621,-0.0004878586623817682,0.0003406023606657982
1772741424381368800,1.556368896484375,0.00028060516342520714,-0.0006383189465850592,0.0002522269496694207
1772741424391384800,1.566384765625,0.001361581962555647,-0.0008593613747507334,0.0005885842256247997
1772741424401400800,1.57640087890625,0.0009533418342471123,0.0002300497144460678,-0.0006338974926620722
1772741424411415800,1.586415771484375,-0.00042883865535259247,-0.00035504670813679695,-0.0003966097719967365
1772741424421431800,1.596431884765625,-0.0007766047492623329,0.0014020716771483421,0.00017254706472158432
1772741424431446800,1.60644677734375,0.0005235504359006882,-0.0000975544098764658,0.00006175960879772902
1772741424441462800,1.616462890625,0.0011265967041254044,-0.0009680509101599455,-0.0006765872822143137
1772741424451479000,1.62647900390625,-0.001086490461602807,-0.0011656570713967085,0.0016560754738748074
1772741424461494000,1.636493896484375,0.0006696805357933044,0.00017446745187044144,-0.00017957179807126522
1772741424471510000,1.646510009765625,0.0007615596987307072,-0.0018870853818953037,-0.0006797134992666543
1772741424481526000,1.656526123046875,-0.002458177274093032,-0.0007814806886017323,0.0004316342528909445
1772741424491541000,1.666541015625,0.00005398271605372429,-0.0007521859370172024,0.0003349615726619959
1772741424501557000,1.676556884765625,0.00038451235741376877,-0.0014397890772670507,-0.00030596007127314806
1772741424511572000,1.686572021484375,0.0003064819611608982,0.0007919399067759514,0.00014278257731348276
1772741424521588000,1.696587890625,0.0008962317369878292,0.00014383159577846527,0.0005707400850951672
1772741424531603700,1.706603759765625,0.001013677567243576,0.00010841153562068939,0.0014597033150494099
1772741424541619000,1.716618896484375,-0.0014109318144619465,0.000014117918908596039,0.00006377487443387508
1772741424551634700,1.726634765625,-0.0009233069140464067,-0.0005789678543806076,-0.0010515570174902678
1772741424561650000,1.73664990234375,-0.0012927651405334473,-0.00042548333294689655,-0.0005698816385120153
1772741424571665700,1.746665771484375,0.0017624134197831154,-0.0002981843426823616,-0.0012748203007504344
1772741424581682000,1.756681884765625,0.0009284359402954578,-0.00035203760489821434,-0.0007173735066317022
1772741424591697000,1.76669677734375,-0.0011879783123731613,-0.0006495127454400063,-0.000022821128368377686
1772741424601713000,1.776712890625,-0.00008328398689627647,0.0002584620378911495,-0.0002572668017819524
1772741424611728000,1.786727783203125,0.00031006522476673126,-0.0009756467770785093,0.0004388834349811077
1772741424621743900,1.796743896484375,-0.00009414693340659142,0.0001386711373925209,0.00016381812747567892
1772741424631760000,1.806759765625,0.0001279609277844429,0.0005429389420896769,-0.0007874630391597748
1772741424641774800,1.81677490234375,-0.00022554537281394005,-0.0017204191535711288,0.000577614177018404
1772741424651790800,1.826790771484375,0.0002756617031991482,-0.00033930386416614056,-0.00038884684909135103
1772741424661806800,1.836806884765625,-0.00031299074180424213,-0.0002381782978773117,-0.00006409373600035906
1772741424671821800,1.84682177734375,0.0009847674518823624,-0.0007729411590844393,0.0011553678195923567
1772741424681837800,1.856837890625,-0.00028480333276093006,0.0009234168101102114,0.001642649294808507
1772741424691852800,1.866852783203125,-0.0016038669273257256,0.0006006418261677027,0.000580580672249198
1772741424701868800,1.876868896484375,-0.000781237380579114,0.0002850797027349472,-0.00011592847295105457
1772741424711885000,1.886885009765625,0.00009254598990082741,0.0003697681240737438,0.001332564977928996
1772741424721900000,1.896900146484375,-0.00030752108432352543,-0.0007453493308275938,0.00021198170725256205
1772741424731916000,1.906916015625,0.0005161943845450878,0.0010765192564576864,-0.00037018535658717155
1772741424741931000,1.916930908203125,-0.0006602727808058262,-0.0007557198405265808,-0.0009010342182591558
1772741424751947000,1.926947021484375,-0.000412066001445055,-0.00010351138189435005,0.00027288717683404684
1772741424761963000,1.936962890625,0.0005490770563483238,0.00034437444992363453,-0.0005726897506974638
1772741424771978000,1.94697802734375,-0.00009594066068530083,0.0014977895189076662,-0.0005172960227355361
1772741424781994000,1.956993896484375,0.00011191423982381821,0.00012001302093267441,-0.000319058308377862
1772741424792009700,1.967009765625,-0.00010619871318340302,0.0002925859298557043,-0.0010048223193734884
1772741424802025000,1.97702490234375,-0.0020636585541069508,-0.0004371916875243187,-0.0002643447369337082
1772741424812040700,1.987040771484375,-0.00009291945025324821,0.0002919817343354225,0.00006775150541216135
1772741424822056000,1.997055908203125,-0.00036726356483995914,0.00040470436215400696,-0.0005334829911589622
1772741424832071700,2.00707177734375,-0.0007393071427941322,-0.001124749192968011,-0.00016223837155848742
1772741424842088000,2.017087890625,-0.0006132074631750584,0.0003139565233141184,0.0004234928637742996
1772741424852102700,2.0271025390625,0.0005396748892962933,-0.001079675741493702,-0.00015894044190645218
1772741424862119000,2.037118896484375,-0.0007399208843708038,0.00010576308704912663,0.00030051928479224443
1772741424872134000,2.0471337890625,0.001169565599411726,0.000997123308479786,0.0003713594051077962
1772741424882150000,2.05714990234375,0.00008654221892356873,0.0009064020123332739,0.00014512613415718079
1772741424892166000,2.067165771484375,-0.0005819112993776798,0.00011118198744952679,-0.0021851398050785065
1772741424902180900,2.077180908203125,-0.0002680981997400522,-0.000928627559915185,0.00017586559988558292
1772741424912196900,2.08719677734375,0.00021206960082054138,0.0007062871009111404,0.0009204853558912873
1772741424922212900,2.097212890625,0.0001588454470038414,0.00023979204706847668,0.0001545492559671402
1772741424932227800,2.107227783203125,-0.0005740567576140165,0.0002602983731776476,0.0006243308307603002
1772741424942243800,2.117243896484375,0.0003266613930463791,-0.0006726060528308153,-0.00038859155029058456
1772741424952258800,2.1272587890625,0.002231886610388756,0.00025470671243965626,-0.0012093777768313885
1772741424962274800,2.13727490234375,0.0006856992840766907,-0.0008013832848519087,0.00029334682039916515
1772741424972290800,2.147290771484375,-0.0011673280969262123,0.0003629508428275585,-0.0005098625551909208
1772741424982305800,2.157305908203125,0.00027481745928525925,0.0017845159163698554,0.0008368035778403282
1772741424992322000,2.167322021484375,0.000884148757904768,-0.0004533382598310709,-0.0009451174410060048
1772741425002337000,2.1773369140625,-0.0001356110442429781,-0.000055164797231554985,0.0006185680394992232
1772741425012353000,2.18735302734375,-0.0003071185201406479,-0.00041309348307549953,-0.0007207356975413859
1772741425022369000,2.197369140625,0.001457352191209793,-0.0007958321366459131,-0.0014027566649019718
1772741425032384000,2.207384033203125,0.0014248616062104702,0.0010747720953077078,0.0010702547151595354
1772741425042400000,2.21739990234375,0.0008704592473804951,-0.0000810145866125822,0.001402011839672923
1772741425052415700,2.227415771484375,0.0004052049480378628,0.0008297865279018879,-0.00014661625027656555
1772741425062431000,2.237430908203125,-0.0006314702332019806,0.00015427893958985806,-0.00032755022402852774
1772741425072446700,2.24744677734375,0.0002023656852543354,0.00010474422015249729,0.00019655993673950434
1772741425082462000,2.2574619140625,-0.0006868899799883366,-0.0004350254312157631,0.0010211722692474723
1772741425092477700,2.267477783203125,0.0007203244604170322,-0.00018362305127084255,0.000014763674698770046
1772741425102493700,2.27749365234375,0.0009405538439750671,-0.0002077198587357998,-0.00011997821275144815
1772741425112508700,2.2875087890625,0.00020632008090615273,-0.000544876093044877,-0.0002933499636128545
1772741425122525000,2.29752490234375,-0.0001485899556428194,0.0006662856321781874,-0.00025085045490413904
1772741425132540000,2.307539794921875,0.0010245325975120068,0.0013025146909058094,-0.0013304960448294878
1772741425142556000,2.317555908203125,-0.0010326500050723553,0.001958534587174654,-0.0015669696731492877
1772741425152572000,2.327572021484375,-0.0001492793671786785,0.00016835774295032024,-0.0008854667539708316
1772741425162587000,2.3375869140625,-0.00008068466559052467,0.0014612403465434909,0.00031309190671890974
1772741425172603000,2.347602783203125,0.0017180144786834717,0.00037360540591180325,0.00015010649804025888
1772741425182617900,2.357617919921875,-0.0008320540655404329,-0.00011558830738067627,0.000542196212336421
1772741425192633900,2.3676337890625,-0.00011193519458174706,-0.0005382320377975702,-0.0008599580032750964
1772741425202649900,2.37764990234375,0.0006475048139691353,0.0010990630835294724,0.001132319332100451
1772741425212664800,2.387664794921875,0.0014858678914606571,0.0017515375511720777,0.00046679540537297726
1772741425222680800,2.397680908203125,0.0007435069419443607,0.0006436964031308889,-0.0003950754180550575
1772741425232696800,2.40769677734375,-0.0004325450863689184,0.0005416972562670708,-0.0008246433571912348
1772741425242711800,2.4177119140625,-0.000355670927092433,-0.0006141462363302708,0.0010585427517071366
1772741425252728300,2.427728271484375,0.00022276770323514938,0.0008340808562934399,0.00023056601639837027
1772741425262743300,2.437743408203125,-0.001051522558555007,-0.0010597191285341978,-0.000001950189471244812
1772741425272759300,2.44775927734375,-0.001057381508871913,-0.0004439963959157467,0.0016864939825609326
1772741425282775000,2.457775146484375,0.00008568540215492249,-0.000616877106949687,-0.0019071425776928663
1772741425292790300,2.467790283203125,-0.0005888934247195721,-0.0003929052036255598,-0.0010264352895319462
1772741425302806000,2.477805908203125,0.0010695643723011017,-0.0005654939450323582,-0.0002484760480001569
1772741425312821200,2.4878212890625,0.00211139302700758,0.0005642189644277096,-0.0005811048904433846
1772741425322837000,2.4978369140625,0.00009185727685689926,-0.0007470138370990753,0.0017240680754184723
1772741425332853200,2.507853271484375,0.0005600405856966972,0.0006993487477302551,0.00060447514988482
1772741425342868000,2.517867919921875,0.0003819507546722889,0.00200089393183589,0.0008712410926818848
1772741425352884200,2.52788427734375,0.0010219085961580276,0.0001968687865883112,-0.000011064228601753712
1772741425362900200,2.537900146484375,-0.00006516603752970695,-0.000373288057744503,-0.0009104542550630867
1772741425372915200,2.547915283203125,0.0004477584734559059,0.0013066339306533337,0.0002863702829927206
1772741425382931200,2.55793115234375,0.00012733973562717438,-0.0002253230195492506,0.0007389835081994534
1772741425392946200,2.5679462890625,-0.00120077864266932,0.0005416674539446831,0.00014962605200707912
1772741425402962200,2.577962158203125,-0.0007895797025412321,0.00011766888201236725,-0.00041507574496790767
1772741425412978200,2.587978271484375,-0.0012604265939444304,-0.0006107056979089975,-0.000015867874026298523
1772741425422993200,2.5979931640625,-0.000912482151761651,0.0003489807713776827,-0.00011855049524456263
1772741425433009200,2.608009033203125,0.0005613113753497601,0.0008637697901576757,-0.0004746151389554143
1772741425443024100,2.618024169921875,-0.00014333100989460945,0.0011148510966449976,-0.0002105470048263669
1772741425453040000,2.6280400390625,-0.0010948784183710814,-0.0009549579117447138,0.0005258169258013368
1772741425463056100,2.63805615234375,0.0014414973556995392,0.0005912678316235542,-0.0007276229443959892
1772741425473071000,2.648071044921875,0.0012108678929507732,0.000014427118003368378,0.0003448319621384144
1772741425483087400,2.65808740234375,0.00013690907508134842,0.0004963523242622614,0.0010761109879240394
1772741425493103400,2.668103271484375,0.00011507142335176468,0.0008867718279361725,-0.0005121982540003955
1772741425503118300,2.678118408203125,0.00001724204048514366,0.0004984873812645674,-0.0004537535132840276
1772741425513134300,2.68813427734375,-0.0037418100982904434,-0.00045465794391930103,0.0000831397483125329
1772741425523149300,2.6981494140625,0.0000013993121683597565,-0.000040835700929164886,0.0011852658353745937
1772741425533165300,2.708165283203125,-0.0011493524070829153,-0.0005124816671013832,0.0004851208068430424
1772741425543181000,2.71818115234375,-0.0005065642762929201,0.0004976654890924692,-0.00024867174215614796
1772741425553196300,2.7281962890625,-0.00023279106244444847,-0.0019593669567257166,0.00029487942811101675
1772741425563212000,2.7382119140625,-0.0016658410895615816,0.0002087918110191822,0.00040106941014528275
1772741425573227300,2.748227294921875,-0.0016450686380267143,0.000017044134438037872,0.00009667000267654657
1772741425583243000,2.758242919921875,0.0011308328248560429,-0.0013663535937666893,0.00010339007712900639
1772741425593259000,2.768259033203125,0.0012410879135131836,-0.0009719394147396088,-0.0003850336652249098
1772741425603274000,2.77827392578125,-0.001182349631562829,0.0005013816989958286,0.0004537022905424237
1772741425613290200,2.788290283203125,-0.0009192293509840965,-0.00048425421118736267,-0.0005740115302614868
1772741425623306200,2.79830615234375,0.00021308893337845802,0.0003696465864777565,-0.0003338301321491599
1772741425633321200,2.8083212890625,-0.00006494531407952309,-0.0005467471200972795,-0.0007820401806384325
1772741425643337200,2.818337158203125,0.0009923772886395454,-0.0003348065074533224,-0.0014274170389398932
1772741425653352200,2.828352294921875,-0.0008907439187169075,-0.000589404720813036,-0.00031554733868688345
1772741425663368200,2.8383681640625,-0.0010149048175662756,-0.00035281875170767307,-0.0003342912532389164
1772741425673384200,2.84838427734375,-0.0003248797729611397,-0.0003954293206334114,0.00004441023338586092
1772741425683399200,2.858399169921875,0.0009169117547571659,-0.001727995928376913,-0.000013684388250112534
1772741425693415200,2.868415283203125,-0.0010663443244993687,0.0017402389785274863,0.0006976459408178926
1772741425703430100,2.87843017578125,0.00020484207198023796,0.00006635650061070919,-0.001228031236678362
1772741425713446100,2.888446044921875,-0.00010701408609747887,-0.0006950413808226585,0.0011144853197038174
1772741425723462100,2.898462158203125,0.0015715695917606354,-0.0005892068147659302,0.00021747557912021875
1772741425733477000,2.90847705078125,0.0005566389299929142,-0.00027655158191919327,-0.00029172073118388653
1772741425743493400,2.918493408203125,0.0004372582770884037,-0.0006544054485857487,-0.000030056806281208992
1772741425753508000,2.928508056640625,-0.002696749521419406,-0.00043629249557852745,0.0005308049730956554
1772741425763524400,2.9385244140625,-0.0007174378260970116,-0.0003285736311227083,-0.00045965274330228567
1772741425773540400,2.948540283203125,-0.00047908490523695946,0.0002820892259478569,-0.0010575323831290007
1772741425783555300,2.958555419921875,-0.0024932590313255787,0.000894082710146904,-0.0005798558704555035
1772741425793571300,2.9685712890625,0.0005547287873923779,-0.0011554860975593328,0.0008180373115465045
1772741425803587000,2.978587158203125,0.00019976869225502014,0.0017447613645344973,0.00044227379839867353
1772741425813602300,2.988602294921875,-0.0003272709436714649,-0.00008136825636029243,-0.0014597558183595538
1772741425823618000,2.9986181640625,0.001174124889075756,0.00010866229422390461,0.0001749297371134162
1772741425833633300,3.00863330078125,-0.000831501791253686,-0.0025539661291986704,0.0014607039047405124
1772741425843649000,3.01864892578125,-0.0014306255616247654,-0.0007665248122066259,-0.001753136282786727
1772741425853665000,3.0286650390625,0.0010652891360223293,0.00006145192310214043,0.0008061614353209734
1772741425863680000,3.038679931640625,-0.0030011250637471676,-0.00021319999359548092,-0.0004963738028891385
1772741425873696000,3.048696044921875,-0.0015813938807696104,-0.0007788552902638912,-0.0014750855043530464
1772741425883711000,3.0587109375,-0.0020581623539328575,-0.0009638946503400803,0.0004474645247682929
1772741425893727200,3.068727294921875,-0.0002690507099032402,-0.0011399295181035995,-0.00029289431404322386
1772741425903743200,3.0787431640625,0.0002038450911641121,-0.00029271235689520836,-0.000514043087605387
1772741425913758200,3.08875830078125,-0.001397780142724514,-0.001650125253945589,0.00016852503176778555
1772741425923774200,3.098774169921875,0.00011458061635494232,-0.001539482269436121,0.0014420425286516547
1772741425933790200,3.108790283203125,-0.0003069979138672352,0.0005697410088032484,0.000008995644748210907
1772741425943805200,3.11880517578125,0.00009117275476455688,0.001067577162757516,-0.0013845411594957113
1772741425953821200,3.1288212890625,-0.0001714150421321392,-0.00044669630005955696,-0.0007725468021817505
1772741425963836200,3.138836181640625,0.0011799181811511517,-0.00015719374641776085,0.0005866036517545581
1772741425973852200,3.14885205078125,-0.0005340920761227608,0.00010992144234478474,-0.0004206038429401815
1772741425983868200,3.1588681640625,0.0008496451191604137,-0.0006773711647838354,-0.0005170198855921626
1772741425993883100,3.168883056640625,-0.0016675747465342283,-0.0001697726547718048,-0.00012660049833357334
1772741426003899100,3.178899169921875,-0.0005152130033820868,-0.0021250322461128235,-0.0005036225775256753
1772741426013914000,3.1889140625,0.001304791308939457,0.000965566374361515,-0.00002451986074447632
1772741426023930400,3.198930419921875,-0.0004275352694094181,-0.0017251423560082912,-0.0007428651442751288
1772741426033946400,3.2089462890625,-0.0017971990164369345,-0.0010793255642056465,-0.0008344779489561915
1772741426043961300,3.21896142578125,-0.000980340177193284,-0.00015165400691330433,0.0011462887050583959
1772741426053977300,3.228977294921875,-0.0006391892675310373,-0.0010976088233292103,0.0004570626188069582
1772741426063993000,3.2389931640625,-0.0003700787201523781,-0.00009880494326353073,-0.0002476868685334921
1772741426074008300,3.24900830078125,0.00011221971362829208,-0.0006471499800682068,0.00024686206597834826
1772741426084024000,3.259024169921875,0.00021913554519414902,0.0014789269771426916,-0.0006510700914077461
1772741426094039300,3.269039306640625,-0.00009804684668779373,0.0003691876772791147,0.00021099508740007877
1772741426104055000,3.279054931640625,-0.00013809045776724815,0.00036670267581939697,0.0002695556031540036
1772741426114071000,3.289071044921875,0.0007985434494912624,0.0010724402964115143,0.0005784822860732675
1772741426124086000,3.2990859375,0.0017223232425749302,-0.0010766927152872086,0.0006592686986550689
1772741426134102000,3.30910205078125,0.0004314887337386608,0.00017446023412048817,0.00000812578946352005
1772741426144117000,3.319116943359375,0.00036058295518159866,-0.0014795369934290648,0.00009038392454385757
1772741426154133200,3.32913330078125,0.0004058564081788063,0.0001220880076289177,0.0008776143658906221
1772741426164149200,3.339149169921875,-0.0004707577172666788,-0.0003228390123695135,0.00024004641454666853
1772741426174164200,3.349164306640625,0.001027536578476429,-0.00005412613973021507,0.0013516498729586601
1772741426184180200,3.35918017578125,-0.0000033765099942684174,-0.00061796884983778,-0.0004132160684093833
1772741426194195200,3.3691953125,-0.0017895586788654327,-0.000005441717803478241,-0.0002204031916335225
1772741426204211200,3.379211181640625,-0.00035801553167402744,-0.002141061471775174,0.000180467264726758
1772741426214227200,3.389227294921875,-0.00017319247126579285,-0.00005101272836327553,-0.00037267134757712483
1772741426224242200,3.3992421875,0.0022923294454813004,0.0002711396664381027,-0.000905848341062665
1772741426234258200,3.409258056640625,0.0012236027978360653,0.000980339478701353,-0.00045577407581731677
1772741426244274200,3.419274169921875,-0.001009553438052535,-0.0007727681659162045,0.0011885692365467548
1772741426254289400,3.429289306640625,0.00013054581359028816,-0.0015189857222139835,0.0003459450090304017
1772741426264305400,3.439305419921875,-0.00024370988830924034,0.0022087821271270514,-0.00009826396126300097
1772741426274320400,3.4493203125,0.0008071735501289368,0.0004851841367781162,0.00015873112715780735
1772741426284336600,3.459336669921875,-0.0022055041044950485,-0.00003609387204051018,0.0010111558949574828
1772741426294352600,3.4693525390625,0.0017002876847982407,0.00013408204540610313,-0.0003369363257661462
1772741426304367600,3.47936767578125,-0.0009750318713486195,-0.00012920773588120937,-0.0007748352363705635
1772741426314383600,3.489383544921875,0.0008188732899725437,0.00006706733256578445,0.0011096176458522677
1772741426324398600,3.499398681640625,0.000008124392479658127,0.00035495124757289886,0.0007960648508742452
1772741426334414600,3.50941455078125,-0.0008874968625605106,-0.0006671696901321411,0.001233622315339744
1772741426344430300,3.519430419921875,-0.0002498375251889229,-0.0010339613072574139,-0.00039949011988937855
1772741426354445600,3.529445556640625,-0.0008117645047605038,-0.00039773224852979183,-0.0010309256613254547
1772741426364461300,3.53946142578125,-0.0012648538686335087,-0.0006613426376134157,-0.00016120378859341145
1772741426374477300,3.549477294921875,0.00009708665311336517,0.00007635308429598808,-0.0002520176349207759
1772741426384492300,3.5594921875,-0.00010445062071084976,0.0009534244891256094,0.0011380771175026894
1772741426394508300,3.56950830078125,-0.000014968682080507278,-0.0016434236895292997,-0.0000046853674575686455
1772741426404523300,3.579523193359375,-0.0004611872136592865,0.0002648020163178444,-0.0007420493056997657
1772741426414539300,3.589539306640625,-0.0019126101396977901,0.0006275244522839785,-0.0001537570497021079
1772741426424555500,3.599555419921875,0.00007641175761818886,0.00032631284557282925,0.00019907322712242603
1772741426434570500,3.609570556640625,0.0008023893460631371,-0.00036797323264181614,-0.000265382113866508
1772741426444586500,3.61958642578125,0.001158156432211399,0.00040202890522778034,0.00031687598675489426
1772741426454601500,3.6296015625,-0.001079431502148509,0.00019030761905014515,0.0007288670167326927
1772741426464617500,3.639617431640625,-0.0003956700675189495,0.0012804444413632154,0.0008582368027418852
1772741426474633500,3.649633544921875,0.00023736339062452316,0.0010687231551855803,0.0006427869666367769
1772741426484648400,3.6596484375,-0.000967762665823102,-0.0005004426930099726,0.0003507002256810665
1772741426494664400,3.66966455078125,0.0002719387412071228,-0.001042129471898079,-0.0008879359229467809
1772741426504679400,3.679679443359375,0.001998554915189743,-0.00011610100045800209,-0.0001542743993923068
1772741426514695400,3.6896953125,0.00018414342775940895,0.0007201314438134432,-0.00022804387845098972
1772741426524711400,3.69971142578125,0.00004730420187115669,0.0007794816046953201,0.0007918153423815966
1772741426534726400,3.709726318359375,-0.00042434176430106163,-0.0005520989652723074,0.0012650589924305677
1772741426544742400,3.719742431640625,0.0010151672177016735,-0.0012711945455521345,-0.0005378220812417567
1772741426554758700,3.729758544921875,0.00036375829949975014,-0.0005891590844839811,-0.0008733803406357765
1772741426564773600,3.739773681640625,-0.00011350587010383606,0.0012533522676676512,0.002691196743398905
1772741426574789600,3.74978955078125,0.0002966206520795822,0.00042803864926099777,-0.00024307414423674345
1772741426584804600,3.7598046875,0.0013806824572384357,-0.0011883890256285667,0.00013466912787407637
1772741426594820600,3.769820556640625,0.00009277742356061935,0.00007048714905977249,-0.00036280928179621696
1772741426604836400,3.77983642578125,-0.00015284912660717964,-0.0007353422697633505,0.0004446828970685601
1772741426614851600,3.7898515625,0.0006855139508843422,-0.0014365522656589746,0.00015306670684367418
1772741426624867300,3.799867431640625,-0.0028075040318071842,-0.00016509508714079857,0.000518338056281209
1772741426634882600,3.809882568359375,-0.0007499458733946085,-0.00014938251115381718,-0.00032615032978355885
1772741426644898300,3.819898193359375,-0.0013806058559566736,-0.0002410365268588066,0.0009418249828740954
1772741426654914300,3.829914306640625,-0.0003712677862495184,0.0008276901207864285,-0.0006150591070763767
1772741426664929300,3.83992919921875,0.001262424048036337,0.00011340249329805374,-0.00044428458204492927
1772741426674945300,3.8499453125,0.000997972209006548,0.0014593639643862844,0.00034987006802111864
1772741426684960300,3.859960205078125,0.00021022045984864235,-0.00027893739752471447,0.0002844624686986208
1772741426694976500,3.8699765625,-0.0010704935993999243,-0.00022966880351305008,-0.0005624227924272418
1772741426704992500,3.879992431640625,0.0005890056490898132,-0.00035206577740609646,-0.0004877038300037384
1772741426715007500,3.890007568359375,0.0011908798478543758,-0.0006857600528746843,0.0005748973926529288
1772741426725023500,3.9000234375,-0.0013189769815653563,-0.0015805691946297884,0.00023029663134366274
1772741426735039500,3.91003955078125,0.002553259488195181,-0.0001509843859821558,-0.0011247197398915887
1772741426745054500,3.920054443359375,-0.000462943222373724,0.0009590617846697569,-0.00009876361582428217
1772741426755070500,3.930070556640625,0.0001357351429760456,-0.0007051473949104548,-0.0023075893986970186
1772741426765085400,3.94008544921875,0.0001476062461733818,0.00017959019169211388,0.00012611958663910627
1772741426775101400,3.950101318359375,-0.0015903725288808346,-0.0012566526420414448,0.0007474350277334452
1772741426785117400,3.960117431640625,-0.000009756535291671753,-0.0008729221299290657,-0.0010957769118249416
1772741426795132400,3.97013232421875,0.00006774114444851875,0.0005321616772562265,-0.0010973748285323381
1772741426805148400,3.9801484375,-0.0012425531167536974,-0.0001157738734036684,0.00000897503923624754
1772741426815163400,3.990163330078125,-0.00008114846423268318,-0.00028994446620345116,0.00004652561619877815
1772741426825179400,4.000179443359375,0.0005250843241810799,-0.0008766266983002424,0.0007346458733081818
1772741426835195600,4.010195556640625,0.0015378845855593681,0.0004176695365458727,-0.0005213007680140436
1772741426845210600,4.020210693359375,-0.0003350870683789253,0.00126386689953506,0.000040005543269217014
1772741426855226600,4.0302265625,-0.001480246428400278,-0.00008795387111604214,-0.00035680539440363646
1772741426865242400,4.040242431640625,0.0008057989180088043,-0.0000868840143084526,-0.0010565128177404404
1772741426875257600,4.050257568359375,0.0007866239175200462,0.0006526759825646877,-0.0005827364511787891
1772741426885273300,4.0602734375,-0.00037575396709144115,0.0013079296331852674,0.001268047490157187
1772741426895288600,4.07028857421875,0.000818141270428896,0.0003159022890031338,0.0001966578420251608
1772741426905304300,4.08030419921875,-0.0001628347672522068,0.0011946943122893572,-0.0005694130668416619
1772741426915320300,4.0903203125,-0.0010541947558522224,-0.001922801835462451,0.00015762995462864637
1772741426925335300,4.100335205078125,-0.0004816099535673857,0.0005658506415784359,-0.0003141440683975816
1772741426935351300,4.110351318359375,-0.0008946664165705442,0.00020659016445279121,0.0003409935161471367
1772741426945366300,4.1203662109375,-0.0005645579658448696,0.0012562398333102465,-0.0003958939341828227
1772741426955382300,4.13038232421875,-0.00014670798555016518,-0.00003832275979220867,-0.0005921688862144947
1772741426965398500,4.1403984375,-0.0003549237735569477,0.0007461635395884514,-0.00014940404798835516
1772741426975413500,4.15041357421875,0.000531109981238842,0.0006233917083591223,-0.00041864963714033365
1772741426985429500,4.160429443359375,0.0001962468959391117,-0.000033766962587833405,-0.00176571577321738
1772741426995444500,4.170444580078125,0.001452459953725338,0.000013104639947414398,0.0006369882030412555
1772741427005460500,4.18046044921875,-0.0017508938908576965,0.00004562479443848133,-0.0016336431726813316
1772741427015476500,4.1904765625,0.0014251922257244587,0.000377454562112689,0.0011147391051054
1772741427025491500,4.200491455078125,-0.0005175231490284204,0.0007022717036306858,-0.0001093840692192316
1772741427035507500,4.210507568359375,-0.0023116949014365673,-0.0006870992947369814,-0.00011178094428032637
1772741427045523500,4.2205234375,0.000609097070991993,-0.00012640724889934063,-0.0007531814626418054
1772741427055538400,4.230538330078125,-0.00012380443513393402,0.00010874983854591846,0.00046548107638955116
1772741427065554400,4.240554443359375,-0.0008326226379722357,-0.0005218368023633957,-0.0009641085052862763
1772741427075569400,4.2505693359375,0.0008273255079984665,0.0015916479751467705,-0.0011555898236110806
1772741427085585400,4.26058544921875,-0.0019108469132333994,0.000020005041733384132,0.0004135692724958062
1772741427095601700,4.2706015625,0.0007126331329345703,0.0001805934589356184,-0.0007707384647801518
1772741427105616600,4.28061669921875,-0.00016916869208216667,-0.00004518241621553898,-0.0004308390780352056
1772741427115632600,4.290632568359375,-0.0007175134960561991,0.00046428036876022816,0.00002775725442916155
1772741427125647600,4.300647705078125,-0.0011644121259450912,-0.0005738756153732538,-0.001486774766817689
1772741427135663600,4.31066357421875,-0.00016386248171329498,0.0004666214808821678,-0.0008769109263084829
1772741427145679400,4.320679443359375,0.0005197669379413128,0.0006804035510867834,-0.0009092698455788195
1772741427155694600,4.330694580078125,0.0001501203514635563,-0.0011009846348315477,-0.0003689144505187869
1772741427165710300,4.34071044921875,-0.00007791025564074516,-0.0016876417212188244,-0.0008092384086921811
1772741427175725600,4.3507255859375,0.0005378122441470623,-0.001027178019285202,-0.00009897327981889248
1772741427185741300,4.3607412109375,-0.0019392985850572586,-0.0020111745689064264,-0.00024606066290289164
1772741427195757300,4.37075732421875,0.0006985627114772797,0.0002450556494295597,0.0005443654954433441
1772741427205772300,4.380772216796875,-0.0007477384060621262,0.0006811472121626139,-0.0008616673294454813
1772741427215788300,4.390788330078125,-0.002375196199864149,0.00004332023672759533,0.000007854774594306946
1772741427225804500,4.400804443359375,0.0004285345785319805,-0.0007297948468476534,-0.00013687030877918005
1772741427235819300,4.4108193359375,0.00005462672561407089,-0.0010456459131091833,-0.0005818845238536596
1772741427245835500,4.42083544921875,0.0010245335288345814,0.0010259058326482773,-0.0012457802658900619
1772741427255849500,4.430849365234375,0.00046713370829820633,0.0012781070545315742,-0.0005570867797359824
1772741427265865500,4.440865478515625,-0.0006654174067080021,0.000968151492998004,0.001051584491506219
1772741427275881500,4.450881591796875,-0.0006265353877097368,-0.0000776718370616436,-0.0008677557925693691
1772741427285896400,4.460896484375,0.0006946916691958904,0.001446716021746397,-0.0006833604420535266
1772741427295912400,4.470912353515625,0.0020547681488096714,-0.0014633198734372854,0.00037950719706714153
1772741427305927400,4.480927490234375,-0.0010514494497328997,-0.00017589470371603966,0.0005567028420045972
1772741427315943400,4.490943359375,-0.0015931364614516497,0.0015248000854626298,0.0008304757066071033
1772741427325959700,4.500959716796875,0.0009295102208852768,-0.0009104199707508087,-4.2153988033533096e-7
1772741427335974700,4.510974609375,-0.0016758604906499386,-0.0003815162926912308,-0.000505356932990253
1772741427345990700,4.52099072265625,-0.00009407801553606987,-0.00017217779532074928,0.001475849887356162
1772741427356005600,4.531005615234375,0.00039913924410939217,-0.0009178631007671356,0.00022043567150831223
1772741427366021600,4.541021728515625,-0.00012641167268157005,-0.0005959267728030682,0.00005913421045988798
1772741427376037600,4.55103759765625,0.0010951803997159004,-0.00023826397955417633,0.0009438364068046212
1772741427386052600,4.561052490234375,0.0004927036352455616,0.0006272555328905582,0.00021143234334886074
1772741427396068600,4.571068603515625,0.0014415881596505642,0.0007521577645093203,-0.00023864186368882656
1772741427406084600,4.581084716796875,-0.0008106732275336981,0.0011270137038081884,-0.00013615679927170277
1772741427416099600,4.591099609375,-0.0006428940687328577,0.000319809652864933,-0.00018089788500219584
1772741427426115600,4.601115478515625,-0.0001867818646132946,-0.0003105835057795048,-0.00010296062100678682
1772741427436130600,4.611130615234375,-0.0008855953346937895,-0.000763054471462965,0.0004315358819440007
1772741427446146600,4.621146484375,-0.0010691848583519459,-0.00012638606131076813,0.0016324231401085854
1772741427456162800,4.631162841796875,0.00017531029880046844,0.00039719161577522755,0.0002763415686786175
1772741427466177500,4.641177490234375,-0.0011682834010571241,-0.0002195171546190977,-0.00002621591556817293
1772741427476193800,4.65119384765625,0.00041629746556282043,-0.000812336802482605,0.0006422376027330756
1772741427486208800,4.661208740234375,0.00018353480845689774,-0.0007587692234665155,0.000957706943154335
1772741427496224800,4.671224853515625,-0.00026147952303290367,0.00014670542441308498,-0.00036615028511732817
1772741427506240500,4.681240478515625,0.00016885483637452126,-0.0005185822956264019,0.001077044173143804
1772741427516255700,4.691255859375,-0.0018857738468796015,-0.00002083764411509037,-0.00015093933325260878
1772741427526271500,4.701271484375,-0.0001357709988951683,0.0007313285022974014,0.0005547356558963656
1772741427536286700,4.71128662109375,0.000021089334040880203,-0.0008415346965193748,0.00024021638091653585
1772741427546302500,4.721302490234375,0.00015494273975491524,0.0010309240315109491,-0.0005213833646848798
1772741427556318500,4.731318359375,-0.0004253603983670473,-0.001111855497583747,-0.00009447860065847635
1772741427566333400,4.74133349609375,0.00039316294714808464,0.0003574732691049576,0.0005810160655528307
1772741427576349400,4.751349365234375,0.0012445757165551186,0.0004195249639451504,0.0012614536099135876
1772741427586365400,4.761365478515625,-0.0002699233591556549,-0.000616914127022028,0.0006220673676580191
1772741427596380400,4.77138037109375,0.00020624976605176926,-0.00014100736007094383,-0.001624308992177248
1772741427606396700,4.781396728515625,-0.0013346367049962282,0.0002097578253597021,-0.00008527853060513735
1772741427616411600,4.79141162109375,-0.00027256784960627556,-0.0015268893912434578,-0.0006517328438349068
1772741427626427600,4.801427734375,-0.0006544999778270721,0.0008479522075504065,-0.00018451130017638206
1772741427636443600,4.811443603515625,0.0015828218311071396,0.00045087491162121296,0.0006711623864248395
1772741427646458600,4.821458740234375,-0.001889621140435338,-0.0009998874738812447,-0.0006107125082053244
1772741427656474600,4.831474609375,0.0012899269349873066,-0.0015410417690873146,-0.0004501239163801074
1772741427666489600,4.841489501953125,-0.0009097440633922815,-0.0012119989842176437,0.0007322432938963175
1772741427676505600,4.851505615234375,-0.0006048120558261871,0.0005851022433489561,0.0007895012386143208
1772741427686521600,4.861521484375,0.00031278468668460846,-0.0016675058286637068,0.0009345684666186571
1772741427696536600,4.87153662109375,0.0003548627719283104,-0.00013459054753184319,-0.001156545476987958
1772741427706552600,4.881552490234375,-0.0005163352470844984,-0.00011877692304551601,-0.0006019906722940505
1772741427716568600,4.891568603515625,0.00020564766600728035,0.00027590361423790455,0.00045368634164333344
1772741427726583600,4.90158349609375,-0.0004711674991995096,-0.0018739982042461634,-0.0002350637223571539
1772741427736599800,4.911599853515625,-0.00020378641784191132,-0.000513655599206686,0.0003393801162019372
1772741427746614800,4.92161474609375,-0.001149698393419385,0.0005254969000816345,0.00008672697003930807
1772741427756630800,4.931630859375,0.000014369376003742218,0.0010229754261672497,0.00043826422188431025
1772741427766646500,4.941646484375,-0.0010159029625356197,0.0007153437472879887,-0.001465248060412705
1772741427776661800,4.951661865234375,-0.0003690212033689022,0.000623997300863266,-0.0025259852409362793
1772741427786677500,4.961677490234375,-0.00015745637938380241,-0.0013698663096874952,-0.00021244538947939873
1772741427796692700,4.971692626953125,0.001054281834512949,0.0007268404588103294,0.0003598678158596158
1772741427806708500,4.98170849609375,-0.00038181361742317677,0.0002945244777947664,-0.0013970158761367202
1772741427816724500,4.991724365234375,0.0009287279099225998,0.0000026419293135404587,-0.0003924715565517545
1772741427826739500,5.001739501953125,0.000167094636708498,0.0005268971435725689,0.0003215046599507332
1772741427836755500,5.01175537109375,0.001211320050060749,0.000054984819144010544,-0.0002843644469976425
1772741427846770400,5.0217705078125,-0.0011700184550136328,-0.001081682974472642,-0.001022030715830624
1772741427856786400,5.031786376953125,-0.0008142201695591211,0.0002235323190689087,0.00034710043109953403
1772741427866802700,5.041802734375,0.0013245097361505032,-0.0007736838888376951,0.0007363613694906235
1772741427876817400,5.0518173828125,-0.001653436804190278,0.0006865272298455238,-0.000005595386028289795
1772741427886833700,5.061833740234375,0.00025741662830114365,0.0013311861548572779,-0.0002562927547842264
1772741427896848600,5.0718486328125,0.0019115060567855835,0.0003274406772106886,0.0004284060560166836
1772741427906864600,5.08186474609375,0.000671161338686943,0.00017602788284420967,0.0010306481271982193
1772741427916880600,5.091880615234375,-0.001006630016490817,-0.00004501454532146454,-0.00012622913345694542
1772741427926895600,5.1018955078125,0.0004926389083266258,-0.0000034330878406763077,0.0002701034536585212
1772741427936911600,5.11191162109375,-0.0007611773908138275,-0.0011920018587261438,-0.00022391288075596094
1772741427946927600,5.121927734375,0.0008563175797462463,0.0004430939443409443,0.00012203480582684278
1772741427956942600,5.131942626953125,-0.001955447718501091,0.00032564857974648476,0.0001036589965224266
1772741427966958600,5.14195849609375,0.0008195023983716965,-0.0008374408353120089,0.00025488610845059156
1772741427976973600,5.1519736328125,-0.0005416390486061573,-0.0004816425498574972,0.00033078622072935104
1772741427986989600,5.161989501953125,-0.00046874862164258957,-0.00018535717390477657,-0.0010599911911413074
1772741427997005600,5.172005615234375,-0.001987283118069172,-0.0001520675141364336,-0.0009457416017539799
1772741428007020500,5.1820205078125,-0.0009574638679623604,0.0007742501329630613,-0.001722104731015861
1772741428017036800,5.192036865234375,-0.0012866307515650988,-0.001671863254159689,-0.0011604441097006202
1772741428027051800,5.2020517578125,-0.0004463242366909981,-0.0007799994200468063,0.00034075346775352955
1772741428037067800,5.21206787109375,0.001653311774134636,0.0014948726166039705,0.0005274410359561443
1772741428047083500,5.22208349609375,-0.0008148234337568283,0.00026130909100174904,0.0004018411273136735
1772741428057098800,5.2320986328125,-0.00017886050045490265,-0.0007490944117307663,0.00005722814239561558
1772741428067114500,5.242114501953125,-0.0001087971031665802,0.0005130290519446135,-0.0005072812782600522
1772741428077129700,5.252129638671875,-0.001074725529178977,0.0011529866605997086,0.0003507891669869423
1772741428087145500,5.2621455078125,-0.001578806433826685,-0.0003643021918833256,-0.001837761141359806
1772741428097161500,5.272161376953125,0.0004196297377347946,-0.0005800183862447739,-0.0018843663856387138
1772741428107176400,5.282176513671875,-0.0006290825549513102,0.00048040016554296017,-0.00036576599813997746
1772741428117192400,5.2921923828125,0.00003404449671506882,-0.0012205606326460838,-0.00033487332984805107
1772741428127208400,5.30220849609375,0.00010659871622920036,-0.0004708648193627596,0.00018474448006600142
1772741428137223400,5.312223388671875,0.0007404307834804058,0.0005041183903813362,-0.0010616148356348276
1772741428147239700,5.32223974609375,0.001226599793881178,0.00035602832213044167,-0.001245133695192635
1772741428157254700,5.332254638671875,-0.0007888805121183395,0.000651639187708497,-0.0010145038831979036
1772741428167270700,5.342270751953125,-0.0007450813427567482,-0.00073593994602561,-0.0008075708174146712
1772741428177286700,5.35228662109375,0.0003923550248146057,-0.0011532572098076344,0.0005335970781743526
1772741428187301600,5.362301513671875,0.0009660972282290459,-0.0012163450010120869,0.001234504277817905
1772741428197317600,5.372317626953125,-0.00048133102245628834,-0.00006319629028439522,0.0004986730637028813
1772741428207332600,5.38233251953125,0.0006263065151870251,0.00042699207551777363,-0.0006240466609597206
1772741428217348600,5.3923486328125,-0.0010701273567974567,0.00014230003580451012,0.00018076063133776188
1772741428227364600,5.402364501953125,-0.00019070971757173538,-0.00019813980907201767,-0.0001750079682096839
1772741428237379600,5.412379638671875,0.00009744474664330482,0.0005691167898476124,-0.0013342819875106215
1772741428247395600,5.4223955078125,-0.0002818559296429157,-0.000669475644826889,0.002019200474023819
1772741428257411000,5.4324111328125,-0.0003646800760179758,-0.0006497683934867382,0.0010455488227307796
1772741428267427000,5.442427001953125,-0.0006661578081548214,-0.0011675877030938864,-0.0002580668078735471
1772741428277442800,5.45244287109375,-0.00042114686220884323,-0.0011864963453263044,0.0005259678000584245
1772741428287458000,5.4624580078125,0.0006653047166764736,-0.000029257265850901604,0.0004332297248765826
1772741428297473800,5.472473876953125,0.0015049995854496956,-0.0005416495259851217,-0.0004964797990396619
1772741428307489000,5.482489013671875,-0.00019829394295811653,0.0004166937433183193,-0.000014858436770737171
1772741428317504800,5.4925048828125,0.00047362176701426506,-0.00006107729859650135,0.00067862868309021
1772741428327520800,5.502520751953125,-0.00013902503997087479,0.0011795361060649157,0.001421815948560834
1772741428337535700,5.51253564453125,-0.00157713214866817,0.0012916552368551493,0.00024816079530864954
1772741428347552000,5.522552001953125,-0.0005111189093440771,0.0005040271207690239,0.00195638881996274
1772741428357568000,5.532568115234375,-0.000948410015553236,-0.0013836214784532785,0.0009105653734877706
1772741428367583000,5.5425830078125,-0.0010235959198325872,-0.00039535295218229294,-0.00015649222768843174
1772741428377599000,5.552598876953125,0.0013370299711823463,0.0003809584304690361,-0.000481397844851017
1772741428387614000,5.562614013671875,-0.0002817031927406788,-0.0012579576577991247,0.0012511973036453128
1772741428397630000,5.5726298828125,-0.00032671052031219006,0.0008645814377814531,-0.0001794528216123581
1772741428407646000,5.58264599609375,0.0008094850927591324,-0.0006221849471330643,-0.0005284190410748124
1772741428417661000,5.592660888671875,0.000029179267585277557,-0.0003111273981630802,0.0011472419137135148
1772741428427677000,5.602677001953125,-0.0003461940214037895,-0.0013913565780967474,-0.0014164114836603403
1772741428437692000,5.61269189453125,-0.0009025284089148045,-0.0007354200351983309,0.0006691099843010306
1772741428447708000,5.6227080078125,0.0009536361321806908,-0.00020206021144986153,0.00020128674805164337
1772741428457724000,5.632723876953125,0.0010622930712997913,0.0002514761872589588,-0.0005566488835029304
1772741428467739000,5.64273876953125,-0.00004467181861400604,-0.00022315094247460365,-0.0005062000127509236
1772741428477755100,5.652755126953125,0.0006695878691971302,0.00007139472290873528,-0.0012673314195126295
1772741428487769900,5.662769775390625,-0.00016012322157621384,-0.00048395339399576187,-0.001160921761766076
1772741428497786000,5.6727861328125,-0.0004461465869098902,-0.00041337963193655014,-0.00009911949746310711
1772741428507802000,5.682802001953125,0.00008403044193983078,-0.0001185296569019556,0.00010205956641584635
1772741428517817000,5.692817138671875,-0.0007159833330661058,-0.0009675456676632166,0.0006858245469629765
1772741428527833000,5.7028330078125,0.001718074083328247,-0.00022136676125228405,0.0013078043702989817
1772741428537848000,5.71284814453125,-0.0001836889423429966,0.0001951516605913639,0.00039966648910194635
1772741428547864000,5.722864013671875,-0.0009287407156080008,0.0006686546839773655,-0.0004073712043464184
1772741428557879800,5.7328798828125,-0.0007929196581244469,0.000922720180824399,0.0008317976025864482
1772741428567895000,5.74289501953125,0.00011823605746030807,-0.0008397281635552645,-0.0008614828111603856
1772741428577910800,5.752910888671875,0.00041837431490421295,0.0006945189088582993,-0.002451656386256218
1772741428587926000,5.762926025390625,0.0003058062866330147,0.0011439111549407244,0.001381649635732174
1772741428597941800,5.772941650390625,-0.0014510811306536198,-0.0011072587221860886,-0.00040240201633423567
1772741428607957800,5.782957763671875,-0.0017920923419296741,-0.0013636837247759104,-0.0003012028755620122
1772741428617972700,5.79297265625,-0.0005262920167297125,0.0007332894019782543,-0.00009267742279917002
1772741428627989000,5.802989013671875,-0.0007580542005598545,0.00008728774264454842,-0.0005346268881112337
1772741428638005000,5.8130048828125,-0.00028534303419291973,-0.0001737019047141075,-0.0007436850573867559
1772741428648020000,5.82302001953125,-0.0009521832689642906,-0.000409149331972003,0.0012600603513419628
1772741428658036000,5.833035888671875,0.0017575831152498722,0.0010465346276760101,-0.0010925761889666319
1772741428668051000,5.843051025390625,0.001684130635112524,0.0005064273718744516,0.0006031187949702144
1772741428678067000,5.85306689453125,-0.0007667767349630594,-0.0001857280731201172,0.00003293610643595457
1772741428688083000,5.8630830078125,-0.00036934390664100647,0.0008297814056277275,0.0007666590390726924
1772741428698098000,5.873097900390625,-0.0008812036830931902,0.0005429589655250311,0.00019221508409827948
1772741428708114000,5.883114013671875,0.00010060332715511322,0.0009370907209813595,-0.00020185578614473343
1772741428718129000,5.89312890625,0.0013086129911243916,0.0019754571840167046,0.0007134726038202643
1772741428728145000,5.903144775390625,0.0009070616215467453,0.0005571236833930016,0.00020965503063052893
1772741428738161000,5.913160888671875,-0.0006950963288545609,0.0002884108107537031,-0.0006755797076039016
1772741428748176000,5.92317578125,-0.0009055722039192915,-0.0004963520914316177,-0.00018496334087103605
1772741428758192000,5.933192138671875,-0.001475755125284195,-0.00015466869808733463,-0.00028163602109998465
1772741428768207000,5.94320703125,0.0005747079849243164,0.0010858573950827122,0.0008193297544494271
1772741428778223000,5.95322314453125,0.0011648647487163544,-0.0005700960755348206,0.0002115963725373149
1772741428788239000,5.963239013671875,0.0000619855709373951,-0.0011791989672929049,-0.0005029139574617147
1772741428798254000,5.973254150390625,0.0009810426272451878,-0.0005586820188909769,-0.0003431242657825351
1772741428808270000,5.98327001953125,-0.0004189019091427326,0.00044641410931944847,0.000022133812308311462
1772741428818285000,5.99328515625,0.0011851200833916664,0.00042111403308808804,0.0000759295653551817
1772741428828301000,6.003301025390625,-0.0009869788773357868,0.0007878041360527277,-0.0005457953084260225
1772741428838316800,6.01331689453125,0.00047802599146962166,-0.00011793687008321285,0.0001474255695939064
1772741428848332000,6.02333203125,-0.00006925268098711967,-0.0005127955228090286,0.00044447521213442087
1772741428858347800,6.03334765625,0.0009251716546714306,0.0005308971740305424,0.00015925068873912096
1772741428868363800,6.04336376953125,0.001404596958309412,-0.0012089835945516825,0.0005750722484663129
1772741428878378800,6.053378662109375,-0.0000199279747903347,0.0017058461671695113,-0.0009754202328622341
1772741428888395000,6.06339501953125,-0.0010863901115953922,0.0001941907685250044,-0.0002745299134403467
1772741428898409700,6.07340966796875,-0.0002706637606024742,-0.00002898206003010273,0.001349199446849525
1772741428908426000,6.083426025390625,0.00017541367560625076,0.0006493953987956047,0.00004548276774585247
1772741428918442000,6.09344189453125,0.0009487955830991268,-0.00020920764654874802,-0.0010820996249094605
1772741428928457000,6.10345703125,0.00025407038629055023,-0.0011058496311306953,-0.000530828780028969
1772741428938473000,6.113472900390625,-0.0014679294545203447,0.0013876683078706264,0.0013962346129119396
1772741428948488000,6.123488037109375,0.0002795150503516197,-0.001026236917823553,-0.00044660677667707205
1772741428958504000,6.13350390625,-0.0003404689487069845,0.0005322450306266546,0.0014349165139719844
1772741428968520000,6.14352001953125,-0.0009551078546792269,-0.0004122820682823658,-0.00004119076766073704
1772741428978535000,6.153534912109375,-0.001735147787258029,0.00046629481948912144,-0.00020497525110840797
1772741428988551000,6.163551025390625,-0.0003696370404213667,-0.0005643570329993963,0.0010710785863921046
1772741428998566000,6.17356591796875,-0.0007816280703991652,-0.0005465138237923384,-0.0001640955451875925
1772741429008582000,6.183581787109375,-0.0006742957048118114,0.00044247135519981384,0.0007475283928215504
1772741429018598000,6.193597900390625,-0.00009132968261837959,0.0009101224131882191,0.00014671916142106056
1772741429028612900,6.20361279296875,-0.0014764524530619383,0.0020308266393840313,0.0010095159523189068
1772741429038629000,6.213629150390625,-0.00046338606625795364,0.0001700760331004858,0.00022734561935067177
1772741429048644000,6.22364404296875,0.00018583517521619797,-0.0013106565456837416,0.0005464375717565417
1772741429058660000,6.23366015625,0.00026626233011484146,0.0018702230881899595,-0.00001628836616873741
1772741429068676000,6.243676025390625,-0.0009029584471136332,0.0001826148945838213,0.0009224609239026904
1772741429078691000,6.253691162109375,0.0008573909290134907,-0.00042671640403568745,-0.00006530550308525562
1772741429088707000,6.26370703125,-0.00024670688435435295,0.0018553589470684528,0.0021421415731310844
1772741429098722800,6.273722900390625,0.0033855782821774483,0.0009552105329930782,0.001304577337577939
1772741429108738000,6.283738037109375,0.0007549957372248173,-0.00031924876384437084,-0.0003576008602976799
1772741429118753800,6.29375390625,0.0007299617864191532,-0.0008295101579278708,-0.0003349639009684324
1772741429128769000,6.30376904296875,0.0002319198101758957,-0.00008446117863059044,0.0003183478256687522
1772741429138784800,6.31378466796875,-0.0003603671211749315,0.0000385770108550787,0.0011316773016005754
1772741429148800800,6.32380078125,-0.0008846928831189871,-0.001827325439080596,0.0008029429009184241
1772741429158815700,6.333815673828125,-0.00029267207719385624,0.00012104329653084278,-0.0006801715935580432
1772741429168832000,6.34383203125,-0.002309610368683934,0.0004083048552274704,0.0010224200086668134
1772741429178846700,6.3538466796875,0.0006038877181708813,-0.00008198292925953865,0.0003299980890005827
1772741429188863000,6.363863037109375,0.0007196348160505295,0.0005508626345545053,-0.0005379755748435855
1772741429198879000,6.37387890625,-0.0008207375649362803,-0.0008630095981061459,0.00009132944978773594
1772741429208894000,6.38389404296875,-0.001562398625537753,-0.00047010136768221855,-0.00047288049245253205
1772741429218910000,6.393909912109375,0.00015161186456680298,0.00019355816766619682,-0.0005897932569496334
1772741429228925000,6.403925048828125,0.00036829058080911636,0.0014562050346285105,-0.0015234675956889987
1772741429238941000,6.41394091796875,-0.00016354257240891457,-0.001581396209076047,-0.0004579368978738785
1772741429248957000,6.42395703125,-0.0005345800891518593,0.0001715135294944048,0.0010119113139808178
1772741429258972000,6.433971923828125,-0.00003097625449299812,0.0010160019155591726,-0.0015135642606765032
1772741429268988000,6.44398779296875,0.00008116988465189934,-0.0007268914487212896,-0.0001344138290733099
1772741429279003000,6.4540029296875,-0.0012424211017787457,-0.0016416872385889292,0.000029903254471719265
1772741429289019100,6.46401904296875,0.0007540998049080372,-0.0017600278370082378,0.0016125618712976575
1772741429299035100,6.47403515625,-0.00036389497108757496,0.00024080532602965832,0.001503638573922217
1772741429309050000,6.484050048828125,0.00024294201284646988,0.0002551027573645115,0.00006570678669959307
1772741429319066000,6.494066162109375,-0.001946975477039814,0.0005603011231869459,-0.00046213180758059025
1772741429329081000,6.5040810546875,0.0009921235032379627,-0.0006347640883177519,-0.0009927419014275074
1772741429339097000,6.51409716796875,-0.00043240119703114033,-0.0014313156716525555,0.000751362182199955
1772741429349113000,6.524113037109375,0.0005218945443630219,0.0005991803482174873,0.0017297707963734865
1772741429359128000,6.534128173828125,0.0006148386746644974,-0.0003651503939181566,-0.0012867917539551854
1772741429369144000,6.54414404296875,0.0005528940819203854,0.00024473341181874275,0.000022298889234662056
1772741429379159000,6.554158935546875,0.00020854733884334564,-0.00011133123189210892,-0.0006176586612127721
1772741429389175000,6.564175048828125,-0.0009890778455883265,-0.00004824926145374775,-0.00003836001269519329
1772741429399190800,6.574190673828125,-0.00024499092251062393,-0.0012389484327286482,-0.00048284156946465373
1772741429409206000,6.5842060546875,-0.0005149375647306442,-0.0009807711467146873,0.0007659883704036474
1772741429419221800,6.5942216796875,0.00007708324119448662,-0.001032968983054161,-0.0013411047402769327
1772741429429237000,6.604237060546875,-0.0010790349915623665,0.0009616408497095108,0.0002961041172966361
1772741429439253000,6.6142529296875,0.001984665635973215,0.00019944412633776665,-0.0009427983895875514
1772741429449269000,6.62426904296875,-0.0008437391370534897,-0.0007657227106392384,0.00016157084610313177
1772741429459284000,6.634283935546875,0.0003299158997833729,-0.0005838288925588131,-0.00021766324061900377
1772741429469300000,6.644300048828125,-0.00021698232740163803,-0.0024277956690639257,-0.00048586924094706774
1772741429479316000,6.65431591796875,0.000564921647310257,-0.00021497509442269802,-0.00038120709359645844
1772741429489331000,6.6643310546875,0.0001442297361791134,-0.00094238156452775,-0.0005732621648348868
1772741429499347000,6.674346923828125,-0.0013282319996505976,-0.00010028993710875511,-0.0005729958065785468
1772741429509362000,6.68436181640625,-0.00011667981743812561,0.000042469706386327744,0.00038928946014493704
1772741429519378000,6.6943779296875,-0.001307112630456686,-0.00022677588276565075,0.00023216300178319216
1772741429529394000,6.704393798828125,0.0001340615563094616,-0.0012514516711235046,0.0012973720440641046
1772741429539409000,6.714408935546875,-0.0016159014776349068,-0.000880473293364048,0.0006989598041400313
1772741429549425000,6.7244248046875,0.0000406559556722641,-0.00005899672396481037,0.0006784892175346613
1772741429559440000,6.73443994140625,-0.0009894550312310457,-0.0005287784151732922,-0.0010064926464110613
1772741429569456000,6.7444560546875,0.00040780287235975266,0.0009010087233036757,-0.0011559630511328578
1772741429579472100,6.75447216796875,-0.0025528334081172943,0.0011779775377362967,-0.0007216014782898128
1772741429589487000,6.764487060546875,-0.0005551539361476898,-0.0008560973219573498,-0.0005372311570681632
1772741429599503000,6.774503173828125,0.0006581819616258144,-0.001362630631774664,0.0003511994145810604
1772741429609518000,6.78451806640625,-0.0021342432592064142,-0.0009528626687824726,-0.0019735111854970455
1772741429619534000,6.7945341796875,0.000646097119897604,-0.001174704171717167,0.0004875161685049534
1772741429629550000,6.804550048828125,0.0010438929311931133,0.0005066615995019674,0.0005164780886843801
1772741429639565000,6.81456494140625,-0.0020413792226463556,0.00008135475218296051,-0.0010689017362892628
1772741429649581000,6.8245810546875,0.00016403011977672577,-0.0001506027765572071,0.0006477668648585677
1772741429659596000,6.834595947265625,-0.0001938990317285061,-0.00038149883039295673,-0.0006465294281952083
1772741429669612000,6.844612060546875,0.0008204677142202854,-0.00037091621197760105,-0.000025755376555025578
1772741429679627800,6.854627685546875,-0.0010509355925023556,0.00010445807129144669,-0.000437213690020144
1772741429689643000,6.86464306640625,0.0011456850916147232,0.000654872739687562,-0.0008191867382265627
1772741429699659000,6.874658935546875,0.00011717202141880989,0.0007598011288791895,0.0005387590499594808
1772741429709674000,6.884674072265625,0.00011126184836030006,0.0005752888973802328,-0.0004036750178784132
1772741429719690000,6.89468994140625,-0.0005372180603444576,-0.0016806747298687696,0.00012762565165758133
1772741429729706000,6.9047060546875,0.00031446758657693863,0.0007789514493197203,-0.0006522465846501291
1772741429739721000,6.914720947265625,0.0008963681757450104,-0.0009518368169665337,-0.0002895240904763341
1772741429749737000,6.924737060546875,-0.0013116023037582636,0.0014202941674739122,0.0017105143051594496
1772741429759752000,6.934751953125,-0.0012578065507113934,0.000030656810849905014,-0.00044238497503101826
1772741429769768000,6.944767822265625,-0.0003733846824616194,-0.0011003226973116398,0.00048432627227157354
1772741429779784000,6.954783935546875,0.00011077802628278732,-0.001035874243825674,0.000098966876976192
1772741429789799000,6.964798828125,-0.00031499285250902176,-0.002298068255186081,0.0005827614804729819
1772741429799815000,6.97481494140625,0.00034706899896264076,0.0010657703969627619,-0.0006715873023495078
1772741429809830000,6.984829833984375,-0.0011867571156471968,-0.000017008278518915176,-0.00025264511350542307
1772741429819846000,6.994845947265625,0.0002175276167690754,0.0005276082083582878,-0.0015658498741686344
1772741429829862000,7.00486181640625,0.00014311261475086212,0.0009921875316649675,-0.0010776923736557364
1772741429839876900,7.014876953125,-0.0019232339691370726,-0.0010704307351261377,-0.00021003454457968473
1772741429849893000,7.02489306640625,0.00030936067923903465,-0.001586679369211197,0.0006550172111019492
1772741429859908000,7.034908203125,0.0004475787281990051,0.00023465650156140327,-0.0006523285992443562
1772741429869924000,7.044924072265625,-0.001210794085636735,0.0006828408222645521,0.0008607764029875398
1772741429879940000,7.054940185546875,-0.0004691039212048054,0.0008849748410284519,-0.0008441794198006392
1772741429889955000,7.064955078125,0.0007302663289010525,-0.0008649458177387714,0.0007533220341429114
1772741429899971000,7.07497119140625,0.0006943135522305965,0.00023707025684416294,-0.00008663884364068508
1772741429909987000,7.084987060546875,0.0022772643715143204,0.0006948860827833414,0.00034835527185350657
1772741429920002000,7.095001953125,0.0005342252552509308,-0.00044468045234680176,0.001405097427777946
1772741429930018000,7.10501806640625,-0.0007867005188018084,-0.0007513356395065784,-0.0006260091322474182
1772741429940033000,7.115032958984375,-0.000984839629381895,0.0009227276314049959,0.0005005080020055175
1772741429950049000,7.125049072265625,-0.0019338945858180523,0.00016663619317114353,-0.001410836586728692
1772741429960064800,7.135064697265625,0.0004568248987197876,-0.0005532160867005587,0.0005644300254061818
1772741429970080000,7.145080078125,0.0020701666362583637,-0.0007557556964457035,-0.00033172674011439085
1772741429980096000,7.155095947265625,0.00026401085779070854,0.0005060501862317324,0.0008073071949183941
1772741429990111200,7.165111328125,-0.0014113911893218756,0.0006961843464523554,0.0011877212673425674
1772741430000127000,7.175126953125,-0.0013469425030052662,0.002003530040383339,0.0003434991231188178
1772741430010143000,7.18514306640625,-0.0007538783829659224,-0.00026132166385650635,0.000036828103475272655
1772741430020158000,7.195157958984375,-0.0013557528145611286,-0.0007931550499051809,-0.0006215053726918995
1772741430030174000,7.205174072265625,-0.00045891315676271915,-0.00010255188681185246,0.0015861093997955322
1772741430040189000,7.21518896484375,0.0004353760741651058,0.0005930657498538494,-0.0001039325725287199
1772741430050205000,7.225204833984375,-0.0018291682936251163,-0.0008442122489213943,0.00048036419320851564
1772741430060221000,7.235220947265625,-0.0013505981769412756,0.0005534146912395954,-0.0004602643311955035
1772741430070236000,7.24523583984375,0.00006248708814382553,0.00022170436568558216,0.00056930270511657
1772741430080252000,7.255251953125,-0.0010805416386574507,-0.00004407903179526329,0.0007543923566117883
1772741430090267000,7.265266845703125,-0.0020332196727395058,0.0006822797004133463,-0.00032149459002539515
1772741430100283000,7.275282958984375,-0.00013332068920135498,0.0004612372722476721,-0.0004232273786328733
1772741430110299100,7.285299072265625,-0.0011917108204215765,-0.0023174730595201254,-0.00005340774077922106
1772741430120313900,7.29531396484375,-0.0002976877149194479,0.0011076186783611774,-0.0005037482478655875
1772741430130330000,7.305330078125,-0.001293642446398735,0.00045271660201251507,0.0006856619147583842
1772741430140345000,7.315344970703125,0.0005948049947619438,0.0008492611814290285,0.0008806053083389997
1772741430150361000,7.325361083984375,0.0018031899817287922,0.0007710184436291456,0.0006304609123617411
1772741430160377000,7.335377197265625,-0.00011961255222558975,-0.0003411176148802042,0.0006360536208376288
1772741430170392000,7.34539208984375,-0.0005252331029623747,0.0006570394616574049,-0.00034564168890938163
1772741430180408000,7.355407958984375,0.0009395056404173374,-0.0010439215693622828,-0.0003248690045438707
1772741430190423000,7.365423095703125,-0.0006516799330711365,-0.0008759533520787954,0.000034656492061913013
1772741430200439000,7.37543896484375,0.0023100213147699833,0.0010529740247875452,-0.0003799976548179984
1772741430210455000,7.385455078125,0.0008965199813246727,-0.0002510880585759878,-0.0007797298021614552
1772741430220470000,7.395469970703125,-0.000254231970757246,-0.0008207382634282112,-0.00003431097138673067
1772741430230486000,7.405486083984375,0.0015311450697481632,0.0001048557460308075,0.000058167846873402596
1772741430240501000,7.4155009765625,0.0002000969834625721,-0.0011092792265117168,-0.0004568875301629305
1772741430250517000,7.42551708984375,0.00037573883309960365,-0.00092511554248631,-0.0005526661407202482
1772741430260533200,7.435533203125,0.001033273059874773,0.0007960856892168522,0.000017250305972993374
1772741430270548200,7.44554833984375,-0.0007561799138784409,0.000019070226699113846,0.0006831258069723845
1772741430280564200,7.455564208984375,-0.0008360748179256916,-0.0005391284357756376,-0.00020557106472551823
1772741430290579200,7.4655791015625,0.00043855980038642883,0.0009838191326707602,-0.00040174287278205156
1772741430300595200,7.47559521484375,-0.0016917025204747915,0.00038434145972132683,-0.00023076793877407908
1772741430310611200,7.485611083984375,-0.0005910082254558802,-0.00006498722359538078,0.00023777212481945753
1772741430320626200,7.495626220703125,-0.001459198771044612,0.0003363511059433222,-0.000015494530089199543
1772741430330642200,7.50564208984375,0.0005878857336938381,-0.00025120656937360764,-0.0003350226324982941
1772741430340657200,7.5156572265625,0.0003668437711894512,0.00044254702515900135,-0.00017523294081911445
1772741430350673200,7.525673095703125,-0.00039891363121569157,0.0012865348253399134,0.0016844081692397594
1772741430360689200,7.535689208984375,-0.0008343404624611139,0.000856700586155057,0.000748839695006609
1772741430370704100,7.5457041015625,0.0018489384092390537,0.000052248360589146614,0.00007462524808943272
1772741430380720000,7.55572021484375,0.0002561020664870739,-0.0011142164003103971,0.0008386861300095916
1772741430390735000,7.565735107421875,-0.0002691480331122875,-0.0009668832644820213,0.0009437504922971129
1772741430400751400,7.57575146484375,-0.0010611722245812416,-0.0012438520789146423,0.0005938110407441854
1772741430410767400,7.585767333984375,-0.0012009362690150738,-0.0008465126156806946,-0.0004792346735484898
1772741430420782300,7.5957822265625,-0.0009420770220458508,-0.0007453123107552528,0.0007349004736170173
1772741430430798300,7.60579833984375,0.0007839775644242764,0.000042814528569579124,0.00007369881495833397
1772741430440813300,7.615813232421875,0.00047744764015078545,0.0009706597775220871,0.0004116540076211095
1772741430450829300,7.625829345703125,-0.0022356321569532156,0.00007199542596936226,-0.00018317875219509006
1772741430460845300,7.63584521484375,-0.000930949579924345,-0.0002526440657675266,0.0014088588068261743
1772741430470860300,7.6458603515625,-0.00011557759717106819,0.00010653934441506863,0.0006155094597488642
1772741430480876300,7.655876220703125,0.0015667416155338287,-0.00038428138941526413,-0.00016373151447623968
1772741430490891300,7.665891357421875,-0.0008960934355854988,0.0004658671095967293,-0.00029716448625549674
1772741430500907300,7.6759072265625,-0.00046599283814430237,0.0017817348707467318,-0.0007714735111221671
1772741430510923300,7.68592333984375,0.0001683277077972889,-0.00042251404374837875,0.000843820977024734
1772741430520938200,7.695938232421875,0.002022953238338232,0.00005472451448440552,0.00020492856856435537
1772741430530954200,7.705954345703125,0.0023665926419198513,-0.0005070255137979984,-0.00007827871013432741
1772741430540969200,7.71596923828125,-0.0000904398038983345,-0.0008183489553630352,0.0005291884299367666
1772741430550985200,7.725985107421875,0.0007246430031955242,0.00019244872964918613,0.00017389515414834023
1772741430561001200,7.736001220703125,0.0008010757155716419,-0.00025709299370646477,0.0006860210560262203
1772741430571016200,7.74601611328125,-0.0002039363607764244,0.0011324707884341478,0.0008379672653973103
1772741430581032200,7.7560322265625,0.0003132494166493416,-0.000026803230866789818,0.00037457712460309267
1772741430591047200,7.766047119140625,-0.0015497172717005014,0.00017978460527956486,0.0004614084027707577
1772741430601063200,7.776063232421875,0.00002767285332083702,0.0000860411673784256,0.000369795598089695
1772741430611079200,7.7860791015625,0.0002845153212547302,0.00030712992884218693,0.00034534663427621126
1772741430621094100,7.79609423828125,-0.0009823502041399479,-0.0006002092268317938,0.00041352363768965006
1772741430631110100,7.806110107421875,-0.0000051227398216724396,-0.0006167520768940449,-0.0003428435302339494
1772741430641125000,7.816125,0.0010606744326651096,0.00014384672977030277,0.000780211528763175
1772741430651141000,7.82614111328125,0.0018553012050688267,-0.001118997111916542,0.0002403539838269353
1772741430661157000,7.8361572265625,0.00010773492977023125,0.00027756462804973125,-0.00005339272320270538
1772741430671172000,7.846172119140625,0.0003756382502615452,-0.0019007958471775055,0.0009334334172308445
1772741430681188400,7.856188232421875,-0.0008661935571581125,-0.0007042377255856991,-0.0003259755321778357
1772741430691203300,7.866203369140625,0.0006892019882798195,-0.0012589588295668364,0.00036502955481410027
1772741430701219300,7.87621923828125,-0.000486849807202816,0.00038074934855103493,-0.00014629738871008158
1772741430711235300,7.8862353515625,-0.0001270757056772709,0.00028018723241984844,0.00026290537789463997
1772741430721250300,7.896250244140625,-0.0017004713881760836,-0.0009637754410505295,0.0011185790644958615
1772741430731266300,7.906266357421875,0.001485676970332861,0.0008565012831240892,0.0007167404983192682
1772741430741281300,7.91628125,0.000889128539711237,-0.0008902659174054861,0.0010927789844572544
1772741430751297300,7.92629736328125,0.0023572645150125027,0.0003176792524755001,-0.000692018773406744
1772741430761313300,7.936313232421875,-0.002273972611874342,-0.0016669086180627346,0.00022410857491195202
1772741430771328300,7.946328369140625,-0.0009281120728701353,0.0000901778694242239,0.0005616607377305627
1772741430781344300,7.95634423828125,-0.001306014833971858,-0.001793209696188569,0.0003161173081025481
1772741430791359200,7.966359130859375,0.0006891409866511822,0.0006550753023475409,0.00042430590838193893
1772741430801375200,7.976375244140625,-0.0005513594951480627,0.0008795796893537045,0.0019396444549784064
1772741430811391200,7.98639111328125,-0.00024197110906243324,-0.0002765525132417679,0.001372438040561974
1772741430821406500,7.996406494140625,-0.0020670355297625065,0.005211956333369017,0.0438903383910656
1772741430831422200,8.006422119140625,0.0031120390631258488,0.003935602027922869,0.20058861374855042
1772741430841437400,8.0164375,0.003909123595803976,0.004961185157299042,0.2694784700870514
1772741430851453200,8.026453125,0.0026507414877414703,0.0025585927069187164,0.2825894355773926
1772741430861469200,8.03646923828125,0.0008962512947618961,0.005309105385094881,0.26668664813041687
1772741430871484200,8.046484130859374,0.002065305132418871,0.004389537498354912,0.23757261037826538
1772741430881500200,8.056500244140626,0.0019358755089342594,0.0046822186559438705,0.19831256568431854
1772741430891515100,8.06651513671875,0.0013171928003430367,0.0027800751850008965,0.150902658700943
1772741430901531100,8.07653125,0.0007864246144890785,0.0017148108454421163,0.08785603940486908
1772741430911547100,8.086547119140626,0.0012228074483573437,0.0006313428748399019,0.017691174522042274
