time,seconds_elapsed,z,y,x
1772733521497942300,0.0629423828125,0.0564583848029375,0.021647475923597812,-0.01040156702697277
1772733521507958300,0.072958251953125,0.07292436643540859,0.007939232034049927,0.014962646131124347
1772733521517973200,0.08297314453125,0.06395020186305046,-0.002900580279715359,0.020186668956303038
1772733521527989200,0.0929892578125,0.0838555102944374,0.008864164859242737,0.03357085939010139
1772733521538004200,0.103004150390625,0.09897124636173248,0.018530622544698415,0.018543276530294677
1772733521548019200,0.113019287109375,0.05602934573590755,0.019024872335046527,0.0004137045005802065
1772733521558035200,0.12303515625,0.046752983346581456,0.0336673648674041,0.005957867224793881
1772733521568050200,0.13305029296875,0.05932195754051208,-0.010477518340013921,-0.014484068833943455
1772733521578066200,0.143066162109375,0.03971709336042404,-0.0018858502792194485,-0.03450561035641003
1772733521588081200,0.1530810546875,0.026253216153383253,0.014507029584422708,-0.02209830213075038
1772733521598096100,0.16309619140625,0.0620183570176363,0.004755925822816789,-0.009264786115963942
1772733521608112000,0.173112060546875,0.09149638043642043,0.01164751196745783,0.005752366681373678
1772733521618127000,0.183127197265625,0.0689022713124752,0.027030593734048307,0.0030555242462549357
1772733521628143400,0.193143310546875,0.06590893471539021,0.014470131640136242,0.01359835834086407
1772733521638158000,0.203157958984375,0.07728373068869114,0.00391626012828201,-0.0067305001316824925
1772733521648173000,0.213173095703125,0.03987374522686005,0.017851298511028287,-0.014504180040210484
1772733521658189300,0.223189208984375,0.03882803556621074,0.022271270377747714,-0.024085544124944135
1772733521668204300,0.233204345703125,0.049153614747524256,-0.00019161358196288347,-0.014642903524311258
1772733521678220300,0.24322021484375,0.051699207577109337,-0.0023392200699076057,0.0020048781155841424
1772733521688235300,0.2532353515625,0.0520014053940773,0.014201434233970939,0.003591311623388901
1772733521698250200,0.263250244140625,0.07145370936095714,0.02768492945693433,-0.0045113627774873745
1772733521708266200,0.273266357421875,0.07848726125955581,0.010302782827615738,0.0064852840658044435
1772733521718281200,0.28328125,0.047210663986206054,0.01272887746337801,0.010202171997353434
1772733521728297200,0.293297119140625,0.056638417544960976,0.020343297989852724,-0.005161469849827699
1772733521738312200,0.303312255859375,0.05170037662088871,-0.0028770532736554742,-0.007575878614373505
1772733521748327200,0.3133271484375,0.04317220225036144,0.014577574069984256,-0.009960746190603822
1772733521758343200,0.32334326171875,0.03688742289245128,0.015325177566893397,-0.005518886719061993
1772733521768358100,0.333358154296875,0.0458668481618166,0.002305975387431681,-0.007756815538695082
1772733521778374100,0.3433740234375,0.058441083052754396,0.014745076123997568,-0.0014515779146458954
1772733521788389000,0.35338916015625,0.03614566461443901,0.020255144782364367,-0.01194878276924137
1772733521798404000,0.363404052734375,0.053504211172461506,0.00948182183355093,-0.010612552029686048
1772733521808420000,0.373420166015625,0.057842532637715334,0.00455313325971365,0.0020249984550056977
1772733521818435000,0.38343505859375,0.053203182399272915,0.02298314497414976,-0.0023225840289378538
1772733521828451000,0.393451171875,0.06099018301367759,0.011587671539001166,-0.01052846764253918
1772733521838466000,0.403466064453125,0.05366086303889751,-0.007203392040170729,-0.005875006680353545
1772733521848481300,0.413481201171875,0.043785950234532356,0.001422324420697987,-0.0010980243697762489
1772733521858497000,0.4234970703125,0.05232172338962555,0.012160320327803491,-0.002661405795556493
1772733521868512300,0.43351220703125,0.056660629376769064,0.011564619456976651,-0.009306775793898851
1772733521878528000,0.443528076171875,0.06428864003717899,0.00971566712204367,-0.010816257908241823
1772733521888543200,0.453543212890625,0.04917231944799423,-0.00007839899845421314,-0.013995477032824418
1772733521898558200,0.46355810546875,0.043188568863272665,0.0006277399769052863,-0.006652507558604702
1772733521908574200,0.47357421875,0.06159457864761352,0.009880758023262024,0.004169403772288933
1772733521918589200,0.483589111328125,0.05546119045913219,0.0003945522755384445,0.010207519459328613
1772733521928605400,0.49360546875,0.06563713203668593,0.012497333729825913,0.007090501683647744
1772733521938620200,0.5036201171875,0.055313890942931175,0.004805244857259095,0.00925720559770707
1772733521948635100,0.51363525390625,0.049179918232560155,0.02166110259015113,-0.008662774235359393
1772733521958651400,0.5236513671875,0.04349836546480655,-0.00014255027584731577,-0.01655495225728955
1772733521968666400,0.533666259765625,0.055471711853146546,0.009674312198348342,-0.00816320438249968
1772733521978682400,0.543682373046875,0.06115735627412796,0.006251680805906653,-0.0014562906223814934
1772733521988697300,0.553697265625,0.05562427206635475,0.013192220658808946,-0.005511529963091015
1772733521998712300,0.56371240234375,0.03437631685435772,0.00675608666408807,-0.010846598247578366
1772733522008728300,0.573728271484375,0.057719783040881156,0.011843655594065784,0.004151023298804648
1772733522018743300,0.583743408203125,0.05981003331840038,0.007173435293324292,-0.003031545149045996
1772733522028759300,0.59375927734375,0.047834933364391326,0.017020875568874178,-0.008108524186350404
1772733522038774300,0.603774169921875,0.0686363138526678,0.011570610806345938,-0.013903876059502362
1772733522048789200,0.613789306640625,0.04768997193574905,-0.003026471681706607,-0.034254439473780804
1772733522058805200,0.62380517578125,0.04604571186006069,0.008147285294160247,-0.013004995557595975
1772733522068820200,0.6338203125,0.060113984701037404,-0.005071677241101861,0.000454534267890267
1772733522078836200,0.643836181640625,0.06265899300873279,-0.004223572511784732,0.003627058790205046
1772733522088851200,0.653851318359375,0.042160979381203646,0.006657813921384513,0.003975324238603934
1772733522098866200,0.6638662109375,0.042163317468762396,0.0012148922150954603,0.007543076889892108
1772733522108882200,0.673882080078125,0.04695405887663364,-0.011562062173709272,-0.016001163432584144
1772733522118897200,0.683897216796875,0.057577744221687314,-0.002589797297492623,-0.0018227082154015078
1772733522128913200,0.6939130859375,0.053685997480154034,0.0014717895856127142,0.00903732033590786
1772733522138928000,0.70392822265625,0.04830255087614059,-0.004479520034231245,-0.013602249064692295
1772733522148943000,0.713943115234375,0.053390813925862306,0.01047346321940422,-0.018589942383347078
1772733522158959000,0.723958984375,0.04905073889493942,0.01798800356797874,-0.007734603706886991
1772733522168974000,0.73397412109375,0.05129881008267402,0.01446026783324778,-0.0007762222366174683
1772733522178989000,0.743989013671875,0.051148003435134884,0.01628927335869521,-0.007263492763531394
1772733522189005000,0.754005126953125,0.07329144618213176,0.002153707435168326,-0.0061401101902127265
1772733522199020000,0.76402001953125,0.03887304375171661,0.003068191931582987,0.009818711937987244
1772733522209036000,0.7740361328125,0.06326397316455841,0.022226737116277217,0.0025047584956977517
1772733522219051000,0.784051025390625,0.061765259039402005,0.0062664399836212395,-0.00456738098077476
1772733522229066200,0.794066162109375,0.04530629166960716,0.00470543774459511,0.005426048203301615
1772733522239082000,0.80408203125,0.0388736282736063,0.009899024332314729,-0.0024611157167935744
1772733522249097200,0.81409716796875,0.055932899624109265,0.008819193206354976,-0.0006245570725528523
1772733522259113200,0.82411328125,0.04770224689543247,0.009413798098638654,0.0023374071387341246
1772733522269128200,0.834128173828125,0.043512393990159035,0.016138832037337122,-0.017537414822843857
1772733522279143200,0.84414306640625,0.05428747050464153,0.01729786587934941,0.002718867037259042
1772733522289159400,0.854159423828125,0.045910687303543085,0.00015694412738084793,-0.01534179990813136
1772733522299174400,0.86417431640625,0.04681026649177074,0.006080269761756062,-0.009338221244933083
1772733522309190400,0.8741904296875,0.07000526411831379,0.009189597421325742,-0.002864390154904686
1772733522319205400,0.884205322265625,0.06237725345790386,0.005792904187738895,-0.015274538791622034
1772733522329220400,0.894220458984375,0.03933423152267933,0.023284721736609934,-0.013393081559729762
1772733522339236400,0.904236328125,0.050261283728480335,0.012701952923834322,-0.00507567299620714
1772733522349251300,0.914251220703125,0.05594926623702049,-0.009358268519118428,-0.007112791147269308
1772733522359266800,0.924266845703125,0.0535568181425333,-0.005658464153110981,-0.001511432042834349
1772733522369281800,0.93428173828125,0.05789455508589744,0.006050861004181206,-0.01986557920919731
1772733522379296800,0.944296875,0.05909282495975494,0.003941321504302322,0.001183387398556806
1772733522389312800,0.954312744140625,0.044727614998817444,0.017404906450398265,0.0011943654502974822
1772733522399327700,0.96432763671875,0.04457914643883705,0.020034926160424946,-0.014665983005799353
1772733522409343700,0.97434375,0.048020226803421974,0.009115911130607128,0.0038019176001893354
1772733522419358700,0.984358642578125,0.04203589169681072,0.008051277573779225,0.0006466730062384158
1772733522429373700,0.994373779296875,0.04547404945194721,0.005294562744162976,-0.0048522943028016016
1772733522439390000,1.004389892578125,0.05056406606733799,0.010906009417772292,-0.00988300934585277
1772733522449404700,1.01440478515625,0.058199675512313837,0.0022634148873388765,0.002246938676573336
1772733522459419600,1.024419677734375,0.05191372711062431,0.009016104017943144,-0.011517090520821512
1772733522469436000,1.034435791015625,0.06014730244874954,0.007147387536615133,-0.009032452364545316
1772733522479451000,1.044450927734375,0.04637947385907173,0.010602642557024955,0.007343581395572982
1772733522489467000,1.054466796875,0.057606970316171645,0.013920096541941165,0.00765509959673509
1772733522499481900,1.06448193359375,0.04578676866292953,0.005658500685729086,-0.0015448091560509056
1772733522509496800,1.074496826171875,0.057010757988691325,-0.00034713293723762035,-0.0037983922025421634
1772733522519512800,1.084512939453125,0.053122518378496165,0.009298135829716921,-0.0030296911186771464
1772733522529527800,1.09452783203125,0.0445943440079689,0.00508983395230025,-0.010965836146497166
1772733522539543800,1.104543701171875,0.07212824762165546,0.010155008387379347,-0.00886041569930967
1772733522549558800,1.114558837890625,0.05896481466591358,0.016169519436545668,-0.008910022428119554
1772733522559574000,1.124573974609375,0.06226034907996654,0.007843881900794804,-0.014328850872768088
1772733522569589800,1.13458984375,0.04849602762162685,0.004963979082927107,-0.003677624500240199
1772733522579605000,1.14460498046875,0.051341480180621145,0.010727730241417884,0.0006676198961446062
1772733522589620700,1.154620849609375,0.05313771594762802,-0.008134462345205247,-0.0015735968591179697
1772733522599635700,1.1646357421875,0.062113049563765524,-0.001353606566041708,-0.011313558172201737
1772733522609651000,1.17465087890625,0.05119067353308201,0.012827369401790202,-0.004988090610876679
1772733522619666700,1.184666748046875,0.05508125123083591,0.0023407179072499275,0.0006172870815498754
1772733522629682000,1.194681884765625,0.051940615117549896,0.0018545418255031109,-0.008271135436114855
1772733522639697700,1.20469775390625,0.06361234821081162,-0.008024316501617432,-0.002579202838242054
1772733522649713000,1.214712890625,0.056580549877882,0.0078069108912721275,-0.02042700791766401
1772733522659728000,1.224727783203125,0.04819909050166606,0.006073365096934139,-0.011532324622571468
1772733522669743900,1.234743896484375,0.047750762212276456,0.005775514661520719,0.006209828125289641
1772733522679758800,1.2447587890625,0.05314122307896614,-0.005397950053401291,0.0005038259028689935
1772733522689773800,1.25477392578125,0.041623219242691994,-0.0034205125005915757,0.002465102338744327
1772733522699789800,1.264789794921875,0.055987260159850116,-0.002351787290535867,-0.0016234456165228038
1772733522709804800,1.2748046875,0.057032969820499414,-0.0007983838360756635,-0.0028441967502469195
1772733522719820800,1.28482080078125,0.05344049828648567,0.0016189064387232065,-0.014044348542694932
1772733522729835800,1.294835693359375,0.05089782806634903,0.00875617444012314,-0.009370931637869217
1772733522739850800,1.304850830078125,0.04910685299634933,0.003703896019235253,-0.014607544516562484
1772733522749866800,1.31486669921875,0.0500058476626873,0.0039794615576043725,-0.000815581566048786
1772733522759881700,1.3248818359375,0.0562929651081562,0.0069258172078058115,0.00348647670915816
1772733522769898000,1.33489794921875,0.051204702058434484,-0.0024854236075654624,0.0009755122349597513
1772733522779912700,1.34491259765625,0.05375087940990925,0.009572788052633403,-0.009341879073320887
1772733522789927700,1.354927734375,0.03893383402824402,0.015324958371184765,-0.004655173428659327
1772733522799944000,1.36494384765625,0.04925765964388847,-0.004562010685913265,-0.00403627434533555
1772733522809959000,1.374958984375,0.05584171420931816,0.003053177025541663,-0.0045341591311851516
1772733522819975000,1.384974853515625,0.06332651700675487,-0.001653575893305242,-0.0002055233763065189
1772733522829990000,1.394989990234375,0.0467161584675312,-0.005678849354013801,-0.015054795093717984
1772733522840004900,1.4050048828125,0.056741877919435496,0.002552424429170787,-0.01351731986075174
1772733522850020900,1.415020751953125,0.0450689757823944,0.008418174657411874,-0.007372341699176468
1772733522860035800,1.425035888671875,0.05360124180614948,0.00954082201179117,-0.00575239864741452
1772733522870051800,1.4350517578125,0.04417641085684299,-0.004007956999726593,-0.005253824308398179
1772733522880066800,1.44506689453125,0.04297989454865456,-0.004919518886692822,0.0016049509786069391
1772733522890081800,1.455081787109375,0.058096215137839316,-0.005892419039458036,-0.004039470949419774
1772733522900097800,1.465097900390625,0.055103463062644,-0.0011168021354824305,-0.0018879783042240886
1772733522910112800,1.47511279296875,0.051209962755441665,0.004188208937458694,-0.015572384660458191
1772733522920127700,1.485127685546875,0.04642155943512916,0.0043438744232058525,-0.010086879621190018
1772733522930143700,1.495143798828125,0.05599719703197479,0.013357749951444566,-0.007886830559954977
1772733522940158700,1.50515869140625,0.06048574062287807,0.01846785950679332,0.00030770510914735497
1772733522950174700,1.5151748046875,0.056444940799474715,0.00276570185367018,-0.003699813499161973
1772733522960189700,1.525189697265625,0.044475101542472834,0.012150785314477979,0.004743792427028529
1772733522970205000,1.535204833984375,0.04821428807079792,0.001427037128433585,-0.005570712804421782
1772733522980220700,1.545220703125,0.053451604202389716,0.012334434785693883,-0.01058212035880424
1772733522990236000,1.55523583984375,0.058088616353273385,0.010598295175470411,-0.0031158806979423386
1772733523000251600,1.565251708984375,0.04132569760084152,-0.0035419469231739637,-0.009974989345087669
1772733523010267000,1.575266845703125,0.04012859677076339,0.008744337871856987,-0.004322233413555659
1772733523020281900,1.58528173828125,0.060631871095299716,0.011212371953204273,-0.0031554500899277625
1772733523030297900,1.5952978515625,0.055397477573156356,0.009497494326718151,-0.011271723757893778
1772733523040312800,1.605312744140625,0.045670448806881904,-0.0016983648831024765,-0.010004539666557684
1772733523050328800,1.615328857421875,0.05031038356721401,0.015469737136736512,-0.010713500786665827
1772733523060343800,1.62534375,0.04357610687613487,0.0015767112648114561,-0.007723949882132001
1772733523070358800,1.63535888671875,0.042678281253576276,0.02012662303186953,-0.010569534871866926
1772733523080374800,1.645374755859375,0.04402268159985542,0.001942000913247466,0.007940250380779616
1772733523090389800,1.6553896484375,0.041480595901608464,0.000388560926169157,-0.005311874638567678
1772733523100404700,1.66540478515625,0.04223170652985572,0.012417509959265589,0.005943322676210664
1772733523110421000,1.6754208984375,0.050911856591701506,0.008359759001061319,-0.001737564382329583
1772733523120435700,1.685435791015625,0.056745969572663306,0.012000490123592316,0.003925722076371312
1772733523130452000,1.695451904296875,0.04522328956127167,0.017697350058332086,0.0006900280907750129
1772733523140467000,1.705467041015625,0.05105857158601284,0.01322491735201329,-0.008309567750361747
1772733523150482000,1.71548193359375,0.06093640699982643,0.008096870281174779,-0.0001672600254183635
1772733523160498000,1.725497802734375,0.06018588089346885,0.01775470626875758,0.0036665140177588908
1772733523170513000,1.735512939453125,0.058386722517013545,0.005731675519794225,0.0030858006535097954
1772733523180529000,1.74552880859375,0.05075695829093456,0.010769523556530476,0.003235159696056507
1772733523190544000,1.7555439453125,0.052256256937980645,0.003959989672154188,-0.011505610145581886
1772733523200558800,1.765558837890625,0.047321723145246505,-0.005977722702734172,-0.0037038275205763054
1772733523210574800,1.775574951171875,0.045673955938220025,-0.0015923837579786776,-0.010284968609712087
1772733523220589800,1.78558984375,0.055850482037663456,0.004213197248242795,-0.0025208739468595013
1772733523230604800,1.795604736328125,0.05166004461050033,-0.006250840555690229,0.005268903146521188
1772733523240620800,1.805620849609375,0.06752046156525611,0.014740911405533552,-0.0021490175603190434
1772733523250635800,1.8156357421875,0.056149172723293304,0.0003579100595787167,-0.010414444774854927
1772733523260651800,1.82565185546875,0.04941431151032447,-0.002767418886721134,-0.004848403578973375
1772733523270666800,1.835666748046875,0.05300561400055885,0.007420614987425506,-0.005916690397611819
1772733523280681700,1.845681640625,0.05674480052888393,0.0019295067578554152,-0.0018503223081119357
1772733523290697700,1.85569775390625,0.052851300221681594,0.006943170201405883,0.0009663197149289771
1772733523300712700,1.865712646484375,0.04522036695182323,0.006791011846996844,-0.0006933982247952371
1772733523310728700,1.875728759765625,0.05659457840323448,0.006304981895722449,-0.005844374080072157
1772733523320743700,1.88574365234375,0.04971066410839557,0.006011990298517048,-0.005685795118031091
1772733523330759000,1.895759033203125,0.04776245265007019,0.013861425157263874,-0.003688785215071402
1772733523340774700,1.905774658203125,0.06572071866691112,0.004968582192808389,-0.01447120935237035
1772733523350790000,1.915789794921875,0.055391632354259486,-0.006160604988969862,-0.004840809360984712
1772733523360805400,1.925805419921875,0.041027006915211675,0.016856624917872248,-0.013446816474385559
1772733523370820400,1.9358203125,0.051501639178395266,0.0003896569047123193,-0.01630098206279799
1772733523380835300,1.94583544921875,0.053148237341642375,0.007106507536955177,-0.0011548280243529007
1772733523390851300,1.955851318359375,0.0452174443423748,0.013835413933172822,-0.008159720084047875
1772733523400866300,1.9658662109375,0.05419803865551948,0.004661744733341038,-0.003686940317857079
1772733523410881300,1.97588134765625,0.058536944642663,0.003189005299657583,-0.00478286862866953
1772733523420897300,1.985897216796875,0.05464636694490909,-0.00459134637825191,0.0025361719806911423
1772733523430912300,1.995912353515625,0.056140404894948,0.013108707093819975,0.00047941754739731546
1772733523440928300,2.00592822265625,0.04462181653678417,0.0036031755911186333,-0.008060141300247051
1772733523450943200,2.015943115234375,0.050908349460363385,0.00010842881053686141,-0.0031142686961684375
1772733523460958200,2.025958251953125,0.06512567538321018,0.005893040093965828,-0.007322328544990159
1772733523470974500,2.035974365234375,0.055551206830143925,0.005973192658089101,0.000012000965047627687
1772733523480989200,2.0459892578125,0.06946691945791245,0.008535115567967296,0.002106977650034241
1772733523491005400,2.05600537109375,0.0583931522578001,0.013647672808729111,-0.00043308048790786414
1772733523501020400,2.0660205078125,0.03953706061840057,0.004709164071641862,-0.008944340256252325
1772733523511035400,2.076035400390625,0.0591425093203783,0.009269348126649856,-0.010257601112173869
1772733523521051400,2.086051513671875,0.0630330870181322,0.0180727957746014,0.01030231247015763
1772733523531066400,2.09606640625,0.050314475220441815,0.0072922393674030896,-0.0031332017255015668
1772733523541081300,2.106081298828125,0.05629881032705307,0.00028539281263947484,-0.0046741566903423515
1772733523551097300,2.116097412109375,0.05794482396841049,0.0014807035444304346,-0.008371111512137576
1772733523561112300,2.1261123046875,0.04627367539703846,0.012992862161807716,-0.00838836860761512
1772733523571128300,2.13612841796875,0.05600362677276134,0.001366575645469129,-0.006712676780624315
1772733523581143300,2.146143310546875,0.049119712477922434,0.01632945923861116,-0.015618411192693747
1772733523591158300,2.156158203125,0.05540566087961197,0.007187025427259504,-0.003276331956661306
1772733523601174300,2.16617431640625,0.05705459713041782,0.0015675415776669978,0.0016964788866927847
1772733523611189200,2.176189208984375,0.054960839721560475,0.008692351956292987,0.002106685389089398
1772733523621205200,2.186205322265625,0.05017360544502735,0.014195296754129231,-0.004169919795519672
1772733523631220200,2.19622021484375,0.0500233833193779,0.00042863720823079344,-0.0032146420644130554
1772733523641235500,2.2062353515625,0.06319558410346508,0.0075122387936338774,-0.00953849305738695
1772733523651251200,2.216251220703125,0.060498600104451176,0.005956095392815768,0.0012785685684531926
1772733523661266400,2.226266357421875,0.05660451527535915,0.01576020798329264,-0.01106312707508914
1772733523671282200,2.2362822265625,0.054209729093313216,0.005443250499852001,-0.011180255215312353
1772733523681297400,2.24629736328125,0.05315934325754642,0.004936470021493732,-0.0032446170775685458
1772733523691312400,2.2563125,0.046427404654026026,0.010720898641832172,-0.014897015282697974
1772733523701328400,2.266328369140625,0.06662906568348408,0.0012622019555419684,-0.0006766206199303269
1772733523711343400,2.27634326171875,0.0527115994900465,0.0019030936749652027,-0.005017873827787116
1772733523721358300,2.2863583984375,0.05824760630726814,-0.00003434066101908684,0.0032426443161908537
1772733523731374300,2.296374267578125,0.06752630678415299,0.0006882745251059532,0.002325488372077234
1772733523741389300,2.306389404296875,0.05346154107451439,0.004226714316941798,-0.0023632585326209665
1772733523751405300,2.3164052734375,0.04074176023304462,-0.00009359656758606433,-0.0022588848426938054
1772733523761420300,2.326420166015625,0.06722703157663346,-0.0009681874450296163,-0.011408405981957912
1772733523771435300,2.336435302734375,0.05705225904285907,0.00798387489337474,-0.015723433336592277
1772733523781451300,2.346451171875,0.058691842943429946,0.00022142419833689927,-0.006541996388835832
1772733523791466200,2.35646630859375,0.061384150767326354,-0.0006496960803866386,0.011359808466723189
1772733523801481200,2.366481201171875,0.050909518504142756,-0.0003669336162507534,0.00485367340913508
1772733523811497200,2.376497314453125,0.0485159013658762,0.007084076509438455,-0.01531339123097714
1772733523821512200,2.38651220703125,0.05375263297557831,-0.0009822525030001997,-0.004634221972175874
1772733523831528400,2.396528564453125,0.05554711517691612,0.0074228800097480415,-0.0011701762905344366
1772733523841543400,2.40654345703125,0.049260582253336904,0.005370440991967916,-0.010432724783639423
1772733523851558100,2.41655810546875,0.05823942300081253,0.00265654239077121,0.007566864190855995
1772733523861574400,2.426574462890625,0.05629530319571495,0.009059102909453212,0.014123195065720937
1772733523871589400,2.43658935546875,0.051953474599123,0.019613595475815235,-0.01170027420115657
1772733523881605400,2.44660546875,0.058688335812091826,-0.001357953947596252,0.0015848534720716997
1772733523891620400,2.456620361328125,0.06766659203767776,0.002833360262401402,-0.005412302805739454
1772733523901635300,2.46663525390625,0.05105681802034378,0.010012604242004454,-0.00979123027601745
1772733523911651300,2.4766513671875,0.051657706522941584,0.008166391853429376,-0.013864886622829363
1772733523921666300,2.486666259765625,0.05345686489939689,-0.004490041428245604,-0.006444225969631225
1772733523931682300,2.496682373046875,0.06587620148956776,-0.0007342690913006663,-0.0012212306243367492
1772733523941697300,2.506697265625,0.0595914221316576,0.003755297412909567,-0.0022925724831642583
1772733523951712300,2.516712158203125,0.04986731597483158,0.0050554567586630576,-0.002919887768384069
1772733523961728300,2.526728271484375,0.05375672462880611,0.006727993080765008,0.002445785716921091
1772733523971743200,2.5367431640625,0.05959434474110603,0.0024782632144168017,0.0014456367976265028
1772733523981758500,2.546758544921875,0.051961073383688924,0.0026642142405733467,0.0013901346175698563
1772733523991774200,2.556774169921875,0.057497664722800254,0.009568111877515911,0.006707064457167871
1772733524001789400,2.56678955078125,0.054500820994377135,0.007718136629275977,-0.0019087014318443834
1772733524011805200,2.57680517578125,0.05929039335846901,0.015010010670498012,0.0008506848454708233
1772733524021820400,2.5868203125,0.07110942596793174,0.004893361532129347,-0.0148460431472864
1772733524031835400,2.59683544921875,0.052556701189279555,0.011409246232174337,-0.020681859461567365
1772733524041851400,2.606851318359375,0.055251347100734705,0.01063285503219813,0.011939407586120068
1772733524051866400,2.616866455078125,0.0498620552778244,0.006054660396464169,0.0035372113825520497
1772733524061882400,2.62688232421875,0.0506114123404026,0.009014240854419767,-0.006047792264260351
1772733524071897300,2.6368974609375,0.04956745624542236,0.00787456930000335,-0.0030260469900211316
1772733524081912300,2.646912353515625,0.05600187320709228,0.013693740440160035,0.0006278906739549711
1772733524091928300,2.65692822265625,0.0543541060000658,0.013291625912673771,0.010196993498736992
1772733524101943300,2.666943359375,0.0482195487678051,0.009106924106553196,0.00012493242076598107
1772733524111958300,2.676958251953125,0.057200727602839466,-0.0021997750665992497,-0.008414809089968911
1772733524121974300,2.686974365234375,0.05241115523874759,-0.0002236892206594348,-0.0018376591893611474
1772733524131989200,2.6969892578125,0.03849602713286877,0.014999306613393127,-0.009760506344190798
1772733524142005500,2.707005615234375,0.05660276170969009,0.004059285328164696,-0.0011741355130216106
1772733524152020200,2.717020263671875,0.06139174955189228,0.0035879049567505714,0.004855349342990666
1772733524162035200,2.72703515625,0.04762567452788353,0.0059600774481892585,-0.005277689241175539
1772733524172051500,2.737051513671875,0.06318915436267852,0.009504398991540073,-0.005996194507763721
1772733524182066400,2.74706640625,0.058254620569944376,0.00866484289485961,0.008386012253747322
1772733524192082400,2.75708251953125,0.04643208082914352,0.010786949615366756,0.008221515007573179
1772733524202097400,2.767097412109375,0.04792670330107212,0.020418664781004188,-0.007341170242778025
1772733524212112400,2.7771123046875,0.04269172525703907,-0.002110050956532359,-0.004468441517790779
1772733524222128400,2.78712841796875,0.04927577982246875,0.00866908067855984,-0.0007364016828825696
1772733524232143400,2.797143310546875,0.05975275017321109,0.0003876476107165217,-0.017999488509795627
1772733524242158300,2.807158447265625,0.05182137265205383,0.00579063916541636,-0.0036051940182689575
1772733524252174300,2.81717431640625,0.047179099804162974,-0.0001131415182724595,0.004862244874658063
1772733524262189300,2.827189208984375,0.06034603989124298,-0.006091156481951475,-0.006433289017085917
1772733524272205300,2.837205322265625,0.06798223385810852,0.001403765850700438,-0.0017646807181183248
1772733524282220300,2.84722021484375,0.05556640439927578,0.004287942984886467,0.012342545026913284
1772733524292235300,2.8572353515625,0.047338089758157724,-0.005053009073249995,0.004009765364322811
1772733524302251300,2.867251220703125,0.05362520720362663,0.0013190467093139886,-0.0018504364725435152
1772733524312266200,2.877266357421875,0.05587210934758186,0.0047051820162683725,-0.005179891422507353
1772733524322282200,2.8872822265625,0.041807343637943264,0.016333806620165706,0.0008381632906151935
1772733524332297200,2.897297119140625,0.05213292281925678,0.003450907638855278,0.005943404874601401
1772733524342312400,2.9073125,0.060062546774744985,0.006035151978395879,0.005111931619676761
1772733524352328200,2.917328125,0.0688940880060196,0.011518588358163833,-0.011636022459063679
1772733524362343400,2.927343505859375,0.05468436086773872,-0.005244111198559403,-0.006703370096161961
1772733524372358400,2.9373583984375,0.05423778614401817,0.004859459262527525,-0.002507799836155027
1772733524382374400,2.94737451171875,0.048996962881088256,0.011227021533064544,-0.013062201070971786
1772733524392389400,2.957389404296875,0.05303600913882255,0.0013839651716873048,0.0010079440666828305
1772733524402405400,2.9674052734375,0.04300912064313888,0.005167904157191515,-0.004915450066351332
1772733524412420400,2.97742041015625,0.060817164534330365,0.004400828774832189,-0.005426646424923092
1772733524422435300,2.987435302734375,0.055279404151439664,0.009676540688052774,-0.005926143212546594
1772733524432451300,2.997451416015625,0.05767360581159591,0.0023445538321509958,0.0063484009123407304
1772733524442466300,3.00746630859375,0.06366261709332466,-0.0017874314060434698,0.006909418628853746
1772733524452482300,3.017482421875,0.04930208330750465,-0.0023425080055370926,0.00159687270342838
1772733524462497300,3.027497314453125,0.0488555085837841,0.007307108142971992,-0.007173165865265764
1772733524472512300,3.03751220703125,0.048857846671342846,0.0033607451373711228,0.0063683979541761795
1772733524482528300,3.0475283203125,0.05005436297953129,0.008770714422129094,-0.011040517951059155
1772733524492543200,3.057543212890625,0.04900748427510261,0.004713511453196406,-0.0051383538357215
1772733524502558200,3.06755810546875,0.046613867136836046,0.002293627362512052,-0.002444520775019191
1772733524512574500,3.077574462890625,0.0582885228395462,0.014937603021413087,0.012632741878833622
1772733524522589400,3.08758935546875,0.04975801038146019,-0.0002845890950411558,-0.01660551340074744
1772733524532605400,3.09760546875,0.044669162809848784,0.002883300351351499,-0.006262407695897854
1772733524542620400,3.107620361328125,0.048559155985713004,0.0014069807210937142,-0.009113057019817643
1772733524552635400,3.117635498046875,0.054845688909292215,0.01663399514313787,-0.0034463273618603124
1772733524562651400,3.1276513671875,0.06053133333027363,-0.008498911743424832,0.00062190845774021
1772733524572666400,3.137666259765625,0.0608329466253519,0.0013188640462234616,-0.002830026660999283
1772733524582681300,3.147681396484375,0.05380348637998104,0.014102759632468223,-0.0013872896399348973
1772733524592697300,3.157697265625,0.06113748252987861,0.004631239997223019,-0.005202180886128917
1772733524602712300,3.16771240234375,0.05440320583879947,-0.004775726501829922,-0.0033987618930870667
1772733524612728300,3.177728271484375,0.0563496637314558,0.007455284442007541,0.0012355011782841756
1772733524622743300,3.187743408203125,0.04632686688899994,0.008868841034360229,-0.006647356459451839
1772733524632758300,3.19775830078125,0.05605448017716407,0.01542220820058137,0.006369009875529445
1772733524642774300,3.207774169921875,0.052015433919429775,-0.004074081038497388,0.013122338326950556
1772733524652789200,3.217789306640625,0.059497898629307745,-0.0019793372489511967,0.007543067756737582
1772733524662805200,3.22780517578125,0.05111994638442993,0.007840228638984263,-0.0025188463865546506
1772733524672820200,3.2378203125,0.06099661275446414,0.01650167400036007,0.004860797269665636
1772733524682835500,3.24783544921875,0.055014031213521955,0.007431392109766602,0.006843235224578529
1772733524692851200,3.257851318359375,0.04948036248385906,0.012590564971230924,-0.005695900953514501
1772733524702866400,3.267866455078125,0.034817630881071086,0.00968198404815048,-0.01024943607202731
1772733524712882200,3.277882080078125,0.04454465964734554,0.003081599402427673,0.004399527300312183
1772733524722897400,3.2878974609375,0.055769233494997024,0.007960274822078645,-0.005400374905928038
1772733524732912400,3.297912353515625,0.044396191087365144,0.0021287921896204352,-0.0068948695136932655
1772733524742928400,3.307928466796875,0.05143032750785351,0.014372626082412897,-0.0023966310792602596
1772733524752943400,3.317943359375,0.04439736013114452,0.001506203311868012,-0.01106755208845716
1772733524762958300,3.327958251953125,0.05008534263968467,0.002812098278664052,-0.004710547744552604
1772733524772974300,3.337974365234375,0.06460252829194069,0.009015884822234511,-0.0008831943090073763
1772733524782989300,3.3479892578125,0.0550292287826538,-0.006794190184772014,-0.0022321201333543286
1772733524793005300,3.35800537109375,0.05892331361174583,0.0007416852127760648,-0.01975338297241833
1772733524803020300,3.368020263671875,0.05159399363696575,0.0021592969257384536,-0.005860233802907168
1772733524813035300,3.37803515625,0.06147416713833809,-0.007971088477037846,-0.011440883479453623
1772733524823051300,3.38805126953125,0.056684594774246214,-0.013168766717985272,-0.009683011528034694
1772733524833066200,3.398066162109375,0.06117372288703918,0.004633212758600711,0.014895649876096284
1772733524843081200,3.408081298828125,0.04920622171759605,0.0075338661035522815,-0.005071165784448385
1772733524853097500,3.418097412109375,0.04771218376755714,0.006271262289211154,-0.0014804021503310649
1772733524863112200,3.4281123046875,0.04681494266688824,0.007327164550311863,0.0008172438001725822
1772733524873128400,3.43812841796875,0.05235036496222019,-0.005225041171908378,-0.0005035199421923607
1772733524883143400,3.448143310546875,0.06207680920660495,0.007822875645384192,-0.01137936255056411
1772733524893158400,3.458158447265625,0.058931496918201445,0.018072138187475502,-0.0017585615045856682
1772733524903174400,3.46817431640625,0.05773322704434394,-0.010325725311785936,0.002709135661111213
1772733524913189400,3.478189453125,0.05608545983731746,-0.00024535306319594383,-0.013206687575578689
1772733524923205400,3.488205322265625,0.04606149395108223,0.0018131503691896796,-0.01221677235593088
1772733524933220400,3.498220458984375,0.047557869988679884,0.014095343510992824,-0.012990985298552549
1772733524943235300,3.5082353515625,0.05399170242846012,0.008711933439597487,0.0012213082561502232
1772733524953251300,3.518251220703125,0.04636076915860176,0.0019805428253486753,0.004195428696111776
1772733524963266300,3.528266357421875,0.05219780474901199,0.009408902727812527,0.0005147628554143011
1772733524973281300,3.53828125,0.060877370288968086,0.009239939369075,-0.009770639579137787
1772733524983297300,3.54829736328125,0.055638300591707227,0.004496507701650262,-0.010949487799894995
1772733524993312300,3.558312255859375,0.0523456887871027,0.007952895233221352,-0.009872081526461988
1772733525003328300,3.568328369140625,0.05324468345344066,-0.007499671573005616,0.002101105031673796
1772733525013343200,3.57834326171875,0.05055179110765457,0.0034143384881317614,-0.0097440620994661
1772733525023358500,3.5883583984375,0.0420236167371273,-0.0027502485562115905,-0.0018783702256623654
1772733525033374200,3.598374267578125,0.053096799415349956,0.005195778544805943,-0.0014397185134934262
1772733525043389400,3.608389404296875,0.07628945895433425,0.0038629225058481095,0.0026429887894541025
1772733525053405200,3.6184052734375,0.06476911703050137,0.005012640530243515,-0.000493715500808321
1772733525063420400,3.62842041015625,0.059981882753968235,0.014117080418765544,-0.01056813293264713
1772733525073435400,3.638435302734375,0.08138356722295284,-0.012311821095086634,0.010330611549457535
1772733525083451400,3.648451416015625,0.05565057555139064,0.003272190071083605,-0.010916526245209389
1772733525093466400,3.65846630859375,0.050564650589227676,0.0057592211138457056,-0.008042939003696665
1772733525103481300,3.6684814453125,0.04323533061444759,0.007783201222121715,-0.0038544149724068118
1772733525113497300,3.678497314453125,0.05924363160729408,0.005761924527585506,-0.004137442298023961
1772733525123512300,3.68851220703125,0.053855508828163146,0.004924377724900841,-0.0033798151640221474
1772733525133528300,3.6985283203125,0.04592413130700588,0.006149024149030446,-0.012434502193261868
1772733525143543300,3.708543212890625,0.0505634815454483,0.007638130195625126,-0.004214644853235222
1772733525153558300,3.718558349609375,0.06387772114872932,0.0180626762393862,0.0019188164004823192
1772733525163574300,3.72857421875,0.059086979740858074,-0.0006007058395072817,0.00018200093682389705
1772733525173589200,3.73858935546875,0.04277648093104362,-0.001496376037597656,0.009925729676149785
1772733525183605500,3.74860546875,0.0481669417977333,-0.00279635272026062,-0.006385983843216672
1772733525193620500,3.758620361328125,0.06268295840620994,0.0009257365427911282,-0.010633334522810765
1772733525203635200,3.76863525390625,0.05789689317345619,0.009550758883915841,-0.009064153543906286
1772733525213651500,3.7786513671875,0.06283434957563877,0.010610460537299513,0.0018736666510812937
1772733525223666400,3.78866650390625,0.0638829818457365,-0.010206446313671767,-0.01116199347283691
1772733525233681400,3.798681396484375,0.047720367074012754,-0.007482610840350389,-0.0037725225423462685
1772733525243697400,3.808697509765625,0.0547550880163908,0.0020601839328184724,-0.006084676508815027
1772733525253712400,3.81871240234375,0.05221300231814384,-0.0024713220169767735,-0.00046843036250211295
1772733525263728400,3.828728271484375,0.054009238085150714,0.0030434593491256235,-0.005629228925472125
1772733525273743400,3.838743408203125,0.059845104631781575,0.000042670097947120666,0.0015789169216295703
1772733525283758300,3.84875830078125,0.06702946317791939,-0.00496953204087913,-0.005049506508489139
1772733525293774300,3.8587744140625,0.05370996287763118,0.005110986338183283,-0.004635546279582195
1772733525303789300,3.868789306640625,0.05265957704186439,0.01343804864604026,0.0032666279799770563
1772733525313805300,3.878805419921875,0.04412848006188869,-0.0005757175287231803,-0.012162539684353395
1772733525323820300,3.8888203125,0.06492752246260643,0.006000519056431949,-0.004990771191730164
1772733525333835300,3.898835205078125,0.06178337921798229,0.0027516733283177016,-0.0037879621400730683
1772733525343851300,3.908851318359375,0.062081485381722444,-0.0020053484730422496,-0.009923802580544724
1772733525353866200,3.9188662109375,0.06447510251998902,0.0017546251149848102,-0.019647922437102533
1772733525363882000,3.928882080078125,0.05175415263473987,-0.007780095949582755,-0.008971465725195594
1772733525373898000,3.93889794921875,0.05893734213709831,0.0071690148465335364,-0.005851438575098291
1772733525383913000,3.948912841796875,0.05669511616826057,-0.002903941280581057,-0.005770934384525753
1772733525393929000,3.958928955078125,0.053254035803675645,0.0007897986708208918,-0.00891017312516924
1772733525403944000,3.96894384765625,0.048915129816532135,0.009002586949244142,0.0024059605966089293
1772733525413959000,3.978958984375,0.06792085905969142,0.010323021898046136,-0.005329113467736169
1772733525423975000,3.988974853515625,0.06537585075199603,0.004688121283613145,0.004341006612684577
1772733525433990000,3.998989990234375,0.055200493696331975,-0.0002495908468961716,0.0017868514507310463
1772733525444005000,4.009005126953125,0.05594809719324111,0.010084902293235063,-0.00914302746639587
1772733525454020900,4.019020751953125,0.06013853462040424,-0.004120623593963682,-0.0012984834118979051
1772733525464036000,4.0290361328125,0.04846212535202503,0.004532017406448721,0.002916882960544899
1772733525474052000,4.039052001953125,0.04875789342820644,0.0061236339794471855,0.00218307052697055
1772733525484067000,4.049067138671875,0.04187281008958816,-0.004165887507796288,-0.011349351004790514
1772733525494082000,4.05908203125,0.04860591773688793,0.003928096696548164,-0.0011676509733079
1772733525504098300,4.069098388671875,0.05893032787442207,0.01442435626965016,0.011364553140499629
1772733525514113300,4.07911328125,0.0496527964413166,0.00829454827774316,-0.004832461657747626
1772733525524129300,4.08912939453125,0.0536918426990509,0.0086229034492746,-0.0009675024584401399
1772733525534144300,4.099144287109375,0.04201835604012012,0.00988086762111634,-0.0051700230490416286
1772733525544159200,4.1091591796875,0.05967617780566215,0.006265709331259131,-0.004347682948643341
1772733525554175200,4.11917529296875,0.051745969328284264,-0.004069331798143685,-0.004231997846835292
1772733525564190200,4.129190185546875,0.0517442157626152,0.0050793856235221025,-0.0038587532208068293
1772733525574206200,4.139206298828125,0.05578676915168762,-0.0012822583628818393,-0.007535898230434395
1772733525584221200,4.14922119140625,0.05549100107550621,-0.009299231808260082,0.005770893285330384
1772733525594236200,4.159236083984375,0.05758592752814293,-0.010334493140131235,0.010349485213286243
1772733525604252200,4.169252197265625,0.041425650843977924,0.0035561215789988634,0.007201241182279773
1772733525614267100,4.17926708984375,0.05324702154099941,-0.0036292598804458973,0.0018468928085872902
1772733525624282000,4.1892822265625,0.0521972202271223,0.0013708499617874621,-0.01817610545202624
1772733525634298000,4.199298095703125,0.05159574720263481,-0.0034886093007400628,0.0016270029802108183
1772733525644313000,4.20931298828125,0.04440963509082794,-0.010139555089920758,-0.012718570698495022
1772733525654329000,4.2193291015625,0.05907353573739528,0.0004954188341274857,-0.01849083852358162
1772733525664344000,4.229343994140625,0.049344753405451774,0.0028068375816568732,-0.002359139479929581
1772733525674359000,4.239359130859375,0.05847206271290779,0.007478592252358794,0.0004614069666713476
1772733525684375000,4.249375,0.047696401676535605,0.0018319646675139664,-0.001302360435994342
1772733525694390000,4.25939013671875,0.054878422135114666,0.010960187290422618,-0.01168244628352113
1772733525704405000,4.269405029296875,0.053532268223166465,0.010324154409207403,-0.0026428609252907333
1772733525714421000,4.2794208984375,0.03482756775319576,0.0007480784209445119,-0.005573457317356951
1772733525724436000,4.28943603515625,0.05667524242401123,0.008062456554919481,0.005496875816653483
1772733525734452000,4.299451904296875,0.04559972165822983,-0.0014648118555545806,-0.014077332930266856
1772733525744467000,4.309467041015625,0.04649754728078842,0.010056881775148213,-0.011614870073180645
1772733525754482000,4.31948193359375,0.04859188921153545,0.00036024814713746305,-0.004649629603861831
1772733525764498000,4.329497802734375,0.04889116441905498,0.005446867229044437,-0.006491512877191416
1772733525774513000,4.339512939453125,0.046047465425729746,0.00950005160998553,-0.017678412462421692
1772733525784529000,4.34952880859375,0.05023848737478256,0.01171232083197683,-0.009944772303337231
1772733525794543900,4.3595439453125,0.0643055911719799,-0.0043164018943905825,0.0036400826685596254
1772733525804559000,4.36955908203125,0.05203706122934818,0.006567213028483092,-0.0071575481710257
1772733525814575000,4.3795751953125,0.05607727653086185,0.008491605219803751,0.0011069383285939693
1772733525824590000,4.389590087890625,0.059516018807888024,-0.0006918547216802835,-0.004881995321321301
1772733525834605000,4.39960498046875,0.06879121215343476,0.0014570669405162334,-0.0012536898555234074
1772733525844621000,4.40962109375,0.0475397498100996,0.016207221098430452,0.0007886433267733082
1772733525854636300,4.41963623046875,0.0560708467900753,0.002096132029034197,0.004701652052043937
1772733525864652000,4.429652099609375,0.06460019020438194,0.002367240587994456,0.012173805430461652
1772733525874667300,4.439667236328125,0.04589373616874218,-0.004171988455019891,0.0015688019529916345
1772733525884682200,4.44968212890625,0.0511298832565546,-0.0019250132458284496,0.00036669158765580503
1772733525894698200,4.4596982421875,0.07537351315319538,-0.0016871493693441152,-0.0015754782889503985
1772733525904713200,4.469713134765625,0.06175882929861545,0.011404277796112,-0.0034348743860842658
1772733525914729200,4.479729248046875,0.06295709917247296,0.006430946362949907,-0.005710345037397928
1772733525924744200,4.489744140625,0.05442658671438694,0.000025280571728944778,-0.003418110480951145
1772733525934759200,4.49975927734375,0.05068623114228248,0.00046473143491894,-0.014659649163135327
1772733525944775200,4.509775146484375,0.0521843607455492,0.016580292194522915,-0.004066559885744937
1772733525954790100,4.5197900390625,0.06370528719127178,0.01975680333878845,-0.00482139684103895
1772733525964805000,4.52980517578125,0.061759998342394824,0.013008461589738726,0.0018326039883308112
1772733525974821000,4.539821044921875,0.05413023411631584,0.00920658508874476,-0.004870588011317886
1772733525984836000,4.549836181640625,0.056522682210803026,0.009861980257555842,0.0070513432836160055
1772733525994852000,4.55985205078125,0.05891805291473865,-0.0031609117163345214,-0.004399486201116815
1772733526004867000,4.5698671875,0.05771919851899147,-0.0035693829193711277,-0.007395188285224139
1772733526014882000,4.579882080078125,0.047694063588976855,-0.009888795199245215,0.003165834486624226
1772733526024898000,4.58989794921875,0.06086451080739498,0.00709836076311767,-0.00033027313398197294
1772733526034913000,4.5999130859375,0.06385726288259029,0.004411496299318969,-0.003692013785196468
1772733526044928000,4.609927978515625,0.049639936959743496,-0.00616261428296566,0.0035080811861902474
1772733526054944000,4.619944091796875,0.058768999832868575,0.0027882059464231133,0.009184163194382563
1772733526064959000,4.629958984375,0.06056757368743419,0.009737878953851758,0.0010698668543715028
1772733526074975000,4.63997509765625,0.04814823709726333,0.015562274258397518,-0.006863816788303665
1772733526084990000,4.649989990234375,0.06401157666146755,0.010872947398386896,-0.001047559124440886
1772733526095005000,4.6600048828125,0.052937809461355206,-0.0007903101274743676,0.0031920512066921218
1772733526105021000,4.67002099609375,0.05279167898893356,-0.0026791560813784598,0.0014088804172351956
1772733526115036000,4.680035888671875,0.05907762739062309,-0.007352883513458073,-0.008486449554073624
1772733526125052000,4.690052001953125,0.04740764786303043,-0.003669957217015326,-0.0029225409497739747
1772733526135067000,4.70006689453125,0.05623802005052566,0.008413315819203853,-0.0023956675314577296
1772733526145082000,4.71008203125,0.06162906543910503,-0.005149930109083652,-0.012174421918392181
1772733526155097900,4.720097900390625,0.043075171616673465,-0.007443922797776758,0.002506087369681336
1772733526165113000,4.730113037109375,0.055797290545701976,0.007150858135335147,0.009245428394945339
1772733526175128000,4.740128173828125,0.0472697006970644,0.009201981978863478,-0.0021729555583326144
1772733526185144000,4.75014404296875,0.05594751267135143,-0.0033471550034359096,-0.0061616553017403925
1772733526195159000,4.760158935546875,0.05729191301763057,-0.005243709339760243,-0.007424176917690783
1772733526205175000,4.770175048828125,0.05145721551477909,0.0022143881138414145,0.0006078662326559425
1772733526215190300,4.780190185546875,0.057144613501429554,0.004135711565241218,0.000554980701371096
1772733526225205200,4.790205322265625,0.062382514154911035,0.00008183306455612182,-0.00883215315262787
1772733526235221200,4.80022119140625,0.05833996076583862,-0.005696786869503557,-0.003419503287016414
1772733526245236200,4.810236328125,0.057440966099500654,0.0018270692966878414,0.006249269653111696
1772733526255251200,4.820251220703125,0.056844753772020334,0.004161868919804692,0.00668058287561871
1772733526265267200,4.83026708984375,0.05205576592981815,-0.0028501287341117856,-0.012265132409147917
1772733526275282200,4.8402822265625,0.04741583116948604,0.0003179433753713965,-0.008772942911833524
1772733526285298200,4.850298095703125,0.058040101036429405,0.0009172609753906727,-0.0005224118723301216
1772733526295313200,4.860313232421875,0.051906128326058384,0.011515008161589502,0.0028752860082546247
1772733526305328000,4.870328125,0.05115794030725956,0.0011839490875601769,-0.007146131727867759
1772733526315344100,4.88034423828125,0.050260699206590646,0.0031204335754737257,-0.014449741872656158
1772733526325359000,4.890359130859375,0.06627192280888557,0.0029670331120491026,-0.016571026609255933
1772733526335375000,4.900375,0.061333881884813306,-0.0009030132543295621,0.002213264735834673
1772733526345390000,4.91039013671875,0.05280512299239635,-0.0006042129708454013,0.00017426972151733935
1772733526355405000,4.920405029296875,0.047719782552123065,0.0021670053081586957,0.0011034174975240603
1772733526365420500,4.930420654296875,0.06283376505374907,0.008861936369538307,0.006445764906168915
1772733526375435500,4.940435546875,0.05505260965824127,0.009456723924912511,0.0006735473134322091
1772733526385450500,4.950450439453125,0.040537177571654315,0.009924743295460938,0.007798179595544933
1772733526395466500,4.960466552734375,0.06013853462040424,-0.0023266163166612386,-0.0008102706366917118
1772733526405481500,4.9704814453125,0.048915129816532135,0.023139979503676293,-0.005652591534750536
1772733526415497500,4.98049755859375,0.059089902350306506,0.010756591009721159,-0.008120095893135294
1772733526425512400,4.990512451171875,0.061332128319144245,0.0013962035987526177,-0.0038116444097599012
1772733526435527700,5.000527587890625,0.058335284590721126,0.010932203304953873,0.0010249500004108996
1772733526445543400,5.01054345703125,0.05129822556078434,-0.0012485752889886497,-0.0006688300391193479
1772733526455558700,5.02055859375,0.04770633854866028,-0.003031513183005154,-0.004234491198020987
1772733526465574400,5.030574462890625,0.03708148415982723,0.0083508450422436,-0.004240368382958695
1772733526475589600,5.040589599609375,0.0695510906100273,0.009596461189165711,-0.001234711160417646
1772733526485604600,5.0506044921875,0.04171908083260059,-0.005820961238443851,0.002173795808549039
1772733526495620600,5.06062060546875,0.05249006569385528,0.005343589517660439,0.00972775941863656
1772733526505635600,5.070635498046875,0.039324294650554655,0.004107800645008683,0.006492485558148473
1772733526515650600,5.080650634765625,0.040672786650061604,0.012140702311880885,0.0024087051095440983
1772733526525666800,5.090666748046875,0.047258010259270664,-0.0001555558878928423,-0.0013589357617078347
1772733526535681800,5.100681884765625,0.048454526567459105,0.005241480850055814,0.007074331433558836
1772733526545697800,5.11069775390625,0.052344519743323326,0.003154993432201445,-0.0015821546249091625
1772733526555712800,5.120712646484375,0.05219488213956356,0.014836407669261097,0.00390976188883651
1772733526565727700,5.130727783203125,0.058926236221194264,0.0024674495594576,-0.009211361728562042
1772733526575743700,5.14074365234375,0.06236907015144825,-0.002656432792916894,-0.004556037602853029
1772733526585758700,5.1507587890625,0.0499491490393877,0.004832717386074364,0.0043964037614641705
1772733526595773700,5.160773681640625,0.05683306333422661,0.009133227591589093,-0.010449406490381806
1772733526605789700,5.170789794921875,0.0532388382345438,0.009962189229018986,-0.00896690371450968
1772733526615804700,5.1808046875,0.06461129612028599,-0.0017074249723926186,-0.0008557126470375805
1772733526625820700,5.190820556640625,0.0601227525293827,0.013993198310770094,-0.006316201976058073
1772733526635835600,5.200835693359375,0.058927989786863325,-0.006851692525669932,-0.005369504843628965
1772733526645850600,5.2108505859375,0.04711071074306965,-0.0032052988473325965,-0.0133442283161683
1772733526655866600,5.22086669921875,0.04217442338466644,0.0010929463358595967,0.002601542534213513
1772733526665881600,5.230881591796875,0.05549217011928558,0.010660035300068557,0.0058956932753557335
1772733526675897600,5.240897705078125,0.05354921935796737,-0.0010755568096414208,0.0035473994164261966
1772733526685912600,5.25091259765625,0.04561784183681011,-0.0001679404454305768,-0.004522190132178366
1772733526695927600,5.260927490234375,0.055198155608773225,0.008264628063514828,-0.000002726246626116335
1772733526705943600,5.270943603515625,0.06313070217370986,0.0010202464258298278,0.007325223754975013
1772733526715958500,5.28095849609375,0.059389762079715726,0.004627988594211638,0.00008102021380327641
1772733526725973500,5.290973388671875,0.055199909174442285,0.0010483765417709946,-0.005035952907172032
1772733526735989500,5.300989501953125,0.05759703344404697,0.005767915876954794,-0.004540963331307284
1772733526746004500,5.31100439453125,0.04876783030033111,0.015237060892023145,-0.0034609586754115297
1772733526756020500,5.3210205078125,0.06059153908491134,0.003049889089912176,-0.007693390347086824
1772733526766035500,5.331035400390625,0.05520692343711853,-0.006589607523381709,-0.0004605073509505018
1772733526776050700,5.34105078125,0.05505787035524845,-0.010350165633298457,-0.009269987447466701
1772733526786066400,5.35106640625,0.05969838963747024,-0.010254377108626067,-0.007957128450344316
1772733526796081700,5.36108154296875,0.05117138431072235,-0.006118884739093482,-0.017883981504500844
1772733526806096600,5.3710966796875,0.04787877250611782,0.00841444833036512,-0.013688881601952016
1772733526816112600,5.381112548828125,0.04398819480836391,0.00750800100993365,-0.011723540912312454
1772733526826127600,5.391127685546875,0.047882864159345624,0.012784589705988765,-0.0007998177413363009
1772733526836143600,5.4011435546875,0.05686579656004905,0.004117664451897144,-0.00987718695984222
1772733526846158600,5.41115869140625,0.06405073962807654,0.011247406733967364,0.011479945981362833
1772733526856173600,5.421173583984375,0.04878770404458046,0.005248531645350158,0.004442361795040779
1772733526866189800,5.43118994140625,0.05642214444577694,-0.003498290444537997,-0.0030578258011955766
1772733526876204800,5.441204833984375,0.05821954925656318,0.006894691417180001,0.008298096508276648
1772733526886220800,5.451220703125,0.04699731349647045,0.0037329759832471607,-0.002478724438720383
1772733526896235800,5.46123583984375,0.04131283811926841,0.004122559822723269,-0.0019295843896688892
1772733526906250800,5.471250732421875,0.039517771396040915,-0.00530464574676007,-0.000336227950733155
1772733526916266800,5.481266845703125,0.05313303977251053,0.0038594884397462007,-0.005880121246888302
1772733526926281700,5.49128173828125,0.04505319369137287,-0.0006331833370029926,-0.0011175875867716967
1772733526936296700,5.501296630859375,0.04250584729611873,0.00034881343767046927,0.006409675246058032
1772733526946312700,5.511312744140625,0.05013853413164615,0.008402319501154124,-0.00028864878222811964
1772733526956327700,5.52132763671875,0.06285656140744686,0.008573547882214188,-0.0014809866722207516
1772733526966343700,5.53134375,0.05866729302406311,0.006322261824086308,-0.004793942578532733
1772733526976358700,5.541358642578125,0.0537310056656599,-0.001346153911948204,-0.013226876413659192
1772733526986373600,5.55137353515625,0.044453474232554434,0.015251381678320467,-0.014949649652233346
1772733526996389600,5.5613896484375,0.06735153473913669,0.0039386546231806275,-0.013222040408337488
1772733527006404600,5.571404541015625,0.041913726621866224,-0.006850413884036242,0.0010060763365821912
1772733527016419600,5.581419677734375,0.04864508070349693,-0.0018386866692453622,0.00005231927570421248
1772733527026435600,5.591435546875,0.05956979482173919,0.012195939630456268,-0.008808904707781038
1772733527036450600,5.601450439453125,0.05208733011186122,-0.007543401116877794,-0.003575931391166523
1772733527046466600,5.611466552734375,0.054631753897666925,0.0024884558148682116,0.0027372794767841695
1772733527056481500,5.6214814453125,0.04295709819495678,0.002121777926944196,-0.008038267395156435
1772733527066496500,5.63149658203125,0.057924365702271455,0.00709525549057871,-0.014223189408052712
1772733527076512500,5.641512451171875,0.04191197305619716,0.004732398816756904,-0.0077335625272709875
1772733527086527500,5.651527587890625,0.04714519753456115,-0.0023585823575034736,0.0012091474608983844
1772733527096543500,5.66154345703125,0.04594634313881397,0.013242891400121151,-0.014164495190489105
1772733527106558500,5.671558349609375,0.055823009508848186,0.004847366965934634,-0.004574445475800894
1772733527116573700,5.68157373046875,0.048940848779678345,0.0009320566857233643,-0.003146038374188356
1772733527126589400,5.69158935546875,0.06315759018063545,-0.009732654789462685,-0.00921217914589215
1772733527136604700,5.701604736328125,0.04729717322587967,-0.002615187467075884,-0.00788473450099118
1772733527146619600,5.71161962890625,0.03996609968543052,-0.013738346766866742,0.0008715632367180659
1772733527156635600,5.7216357421875,0.05897124440670013,-0.002116371099464595,-0.001289423322607763
1772733527166650600,5.731650634765625,0.0570247865140438,-0.002086962341889739,-0.009002381453267299
1772733527176666600,5.74166650390625,0.05313479333817959,-0.00616882482804358,-0.004568508925358764
1772733527186681600,5.751681640625,0.06331015039384365,-0.0013714344836771488,-0.013889486774546093
1772733527196696600,5.761696533203125,0.07213876901566982,0.00401920904610306,-0.007888835287373512
1772733527206712800,5.771712890625,0.04430559019446373,0.0032874972380697726,0.00873123179511167
1772733527216727800,5.781727783203125,0.0419102194905281,0.01347626176457852,-0.0006479836139129475
1772733527226742500,5.791742431640625,0.044754503005743025,-0.003155541421473026,0.0021811297316337
1772733527236758800,5.8017587890625,0.04011456824541092,0.012407207760959863,0.00037166459029540415
1772733527246773800,5.811773681640625,0.05866904658973217,0.006743336780369281,-0.002731703685945831
1772733527256789800,5.821789794921875,0.05806991165280342,0.0016543796109035611,0.004983857393753715
1772733527266804700,5.8318046875,0.049393268722295755,0.006236702432483435,0.006442604834702797
1772733527276819700,5.84181982421875,0.05732756885290145,-0.002272401911392808,-0.0025896466004429386
1772733527286835700,5.851835693359375,0.060174190455675125,-0.0042811113853007555,-0.003928384390915743
1772733527296850700,5.8618505859375,0.058978843191266055,0.0027058614252135154,-0.004218672574381343
1772733527306866700,5.87186669921875,0.04760404721796512,0.0005240969393402338,0.001173888917849399
1772733527316881700,5.881881591796875,0.04266366820633411,0.012844868525862693,-0.0073008108329260715
1772733527326896600,5.891896728515625,0.06615852556228638,0.0026259645894169807,-0.00045869898635428395
1772733527336912600,5.90191259765625,0.04954699797928333,-0.006607070114836096,0.005284621305461042
1772733527346927600,5.911927734375,0.04235971682369709,0.009362725498527288,0.014470496966317295
1772733527356942600,5.921942626953125,0.052234629628062246,0.006241086346656084,-0.006648717299476265
1772733527366958800,5.931958740234375,0.051336219483613964,-0.006005743220821023,-0.009545014129718764
1772733527376973800,5.941973876953125,0.06974164474606513,0.009992840095609426,-0.0071278791185468435
1772733527386989800,5.95198974609375,0.05956745673418045,-0.005172324603982269,-0.0022208954864414406
1772733527397004800,5.9620048828125,0.04729717322587967,0.003355520972982049,0.007957598807802424
1772733527407019800,5.972019775390625,0.04445172066688537,-0.005253755809739232,0.002590591881936416
1772733527417035800,5.982035888671875,0.03577040156126022,0.0036535906041041013,-0.019302063574921337
1772733527427050800,5.99205078125,0.05372574496865272,0.011174779889173805,-0.009164791773632169
1772733527437065700,6.002065673828125,0.05597147806882858,0.009645962886698544,-0.006783536360017024
1772733527447081700,6.012081787109375,0.05312719455361366,0.013249722999706864,-0.010576489769038744
1772733527457096700,6.0220966796875,0.05133095878660678,0.0020285466855391857,0.0004318475120468065
1772733527467112700,6.03211279296875,0.051630818516016,-0.006375599446520209,-0.004315698641492054
1772733527477127700,6.042127685546875,0.05162789590656757,0.004471555923484266,-0.0073043316639959804
1772733527487143000,6.052142822265625,0.06299918474853039,0.0003130845371633768,-0.009103330210247076
1772733527497158700,6.06215869140625,0.062247489598393435,-0.0018530439881607888,-0.005384012859594076
1772733527507174000,6.072173828125,0.054467503246664994,-0.0036855566449463363,-0.017284563439781776
1772733527517188900,6.08218896484375,0.0519230794608593,-0.00430105819478631,0.007820724787493237
1772733527527204900,6.092204833984375,0.05162438877522945,0.0007766469283029437,-0.004038918393570929
1772733527537219800,6.1022197265625,0.03755670045614242,0.004290938659571111,-0.003518607146781869
1772733527547235800,6.11223583984375,0.04698094688355922,0.0022736074877902864,-0.0015811271450249477
1772733527557251000,6.1222509765625,0.041595746713876725,0.002223229007422924,-0.006948933221912011
1772733527567266000,6.13226611328125,0.06179682322144508,0.011219495813734829,0.008979055376606994
1772733527577282000,6.142281982421875,0.06807984901368618,0.006040668403729796,0.001925670832954347
1772733527587297000,6.152297119140625,0.04803016367554664,-0.005258979974128305,0.008138197805406526
1772733527597313000,6.16231298828125,0.04772913490235805,-0.0013168182196095586,-0.012189564688596874
1772733527607328000,6.172327880859375,0.059848027241230006,0.00889185658376664,-0.005410119981807657
1772733527617343000,6.182343017578125,0.0592471387386322,-0.001671769137121737,-0.0002929048322374001
1772733527627359000,6.19235888671875,0.05939268468916416,0.0045831630717962975,-0.007615566737367771
1772733527637374000,6.2023740234375,0.050263037294149396,0.005976553658954799,-0.01461014289902523
1772733527647389000,6.212388916015625,0.05759352631270885,-0.004596387879550457,0.007058494543610141
1772733527657405000,6.222405029296875,0.045920039653778076,0.007858020024001598,-0.01175595447772648
1772733527667420000,6.232419921875,0.055793783414363855,-0.002247084807045758,0.003536412231530994
1772733527677436000,6.242435791015625,0.057440966099500654,0.004154124004766345,0.004746084848814644
1772733527687451000,6.252450927734375,0.05639584096074104,-0.0028063626576215026,-0.002690622756886296
1772733527697465900,6.2624658203125,0.057144028979539865,0.003757562435232103,-0.015128992841090075
1772733527707481900,6.27248193359375,0.05505260965824127,0.010205131139419973,0.000923585684900172
1772733527717496800,6.282496826171875,0.06238719033002853,0.0033979353426024316,-0.0047487014975864435
1772733527727511800,6.29251171875,0.050419104638695714,-0.004005582379549741,-0.0030536565161542965
1772733527737527800,6.30252783203125,0.0553559765189886,-0.004716616725735366,0.002462065564864315
1772733527747542800,6.312542724609375,0.058200260034203526,0.006202069510519504,0.0076283942529000335
1772733527757558800,6.322558837890625,0.045182373028993604,-0.0006956906465813517,-0.004852673328714445
1772733527767573800,6.33257373046875,0.04817044892907142,-0.007618475647084414,-0.003999577330448665
1772733527777588700,6.342588623046875,0.060740007644891736,0.008985745412297547,0.005350343485432676
1772733527787604700,6.352604736328125,0.049373394978046416,0.0043379561390727754,-0.0015670986196724696
1772733527797619700,6.36261962890625,0.04742869065105915,-0.0052810091428458685,-0.00014713055284228176
1772733527807635000,6.372635009765625,0.052066871845722194,0.002371661034785211,-0.0014662594605470076
1772733527817650700,6.382650634765625,0.04293956253826618,-0.002437638943083584,-0.004255835380149074
1772733527827666000,6.392666015625,0.04593114556968212,0.013883417793363332,-0.0058533063051989295
1772733527837681700,6.402681640625,0.057604632228612895,0.005753083634003997,-0.0039853159096557645
1772733527847697000,6.41269677734375,0.06418868679404259,0.0003526493625715375,-0.007855782401142642
1772733527857711900,6.4227119140625,0.0568552751660347,-0.00204133310187608,0.0013195946985855697
1772733527867728000,6.432727783203125,0.06942366483807563,-0.002322816924378276,-0.0017501179032260552
1772733527877742800,6.442742919921875,0.05565408268272876,-0.006601517156884074,-0.009155859548505394
1772733527887757800,6.4527578125,0.06942015770673751,0.013479330504499376,-0.0027289637395879252
1772733527897774000,6.462774169921875,0.045324411848187446,-0.00437207760438323,-0.0019708845144370568
1772733527907788800,6.472788818359375,0.04936696523725986,-0.00310837781149894,0.0017104617462726309
1772733527917805000,6.48280517578125,0.04816927988529205,-0.0000887377293780446,0.0033310030196560545
1772733527927820000,6.492820068359375,0.06747311529219151,0.007664251017570495,0.003402296423888765
1772733527937835000,6.5028349609375,0.0698655633866787,0.012181655376777052,-0.007020404722657986
1772733527947851000,6.51285107421875,0.054601358759403223,-0.0060471712097525596,-0.007820208764262497
1772733527957866000,6.522865966796875,0.06013678105473518,0.0007085135955363512,0.006259804746857844
1772733527967882000,6.532882080078125,0.041433834150433536,0.0030386735761538147,0.0037825370462844145
1772733527977897000,6.54289697265625,0.05041325941979885,-0.00028184914868324993,-0.008613509999844246
1772733527987912000,6.552911865234375,0.047718613508343694,-0.00040956718157976864,-0.0006902701193699613
1772733527997928000,6.562927978515625,0.0634299773812294,0.0048346170822158455,0.012238011506781913
1772733528007943000,6.57294287109375,0.06298340265750885,-0.0016470000220462678,0.00021559267917182294
1772733528017958000,6.5829580078125,0.054154784035682677,0.008357311315648257,-0.0013301160925999283
1772733528027974000,6.592973876953125,0.048912791728973386,-0.00022482173182070253,-0.002529669174668379
1772733528037988900,6.60298876953125,0.06058394030034542,0.007730594252049922,-0.009472656712983734
1772733528048003800,6.61300390625,0.0632774171680212,-0.006463131599500775,0.003657380863232538
1772733528058019800,6.623019775390625,0.06746610102951527,0.0034476197032257913,0.0022822291856631634
1772733528068034800,6.633034912109375,0.052501756131649015,-0.007743490266241133,-0.0015819034631596876
1772733528078050800,6.64305078125,0.06671557492315769,-0.01098835393898189,0.0066454887293512
1772733528088065800,6.653065673828125,0.06925941418707371,-0.004546776584163308,-0.009799966138321906
1772733528098080800,6.663080810546875,0.05295183798670768,-0.0032873876402154563,0.0036843510685488578
1772733528108096800,6.6730966796875,0.041132805377244945,0.0041179201802238816,-0.001768877402623184
1772733528118111700,6.68311181640625,0.06058744743168354,0.007968311998061835,0.0008806141928536816
1772733528128127700,6.693127685546875,0.05759527987837791,0.01469338246937841,-0.0052834111624863
1772733528138142700,6.703142822265625,0.05894143379032612,-0.0029573519682511685,-0.0030053192958235738
1772733528148158000,6.713157958984375,0.0665717825382948,0.004707447038590907,-0.0022866085332585496
1772733528158173700,6.723173583984375,0.054147769773006435,0.0037608869034796953,0.004824657377204857
1772733528168189000,6.73318896484375,0.05818740055263042,0.000036240357160568236,-0.004602004769584164
1772733528178204000,6.743203857421875,0.05967968493700027,-0.0032892873363569376,-0.008180502577172592
1772733528188220000,6.753219970703125,0.047854807108640665,-0.0017009586989879606,0.0029289661239832636
1772733528198235000,6.76323486328125,0.049349429580569266,-0.003030198008753359,0.0015445990934967993
1772733528208251000,6.7732509765625,0.0610205781519413,0.010737667113542557,0.004938113989308476
1772733528218265900,6.783265869140625,0.05608136818408966,0.003871251942776143,-0.009023218745319172
1772733528228280800,6.79328076171875,0.05473579879403114,0.006676847415417433,-0.003309846067195758
1772733528238297000,6.803297119140625,0.059523617592453955,0.006252813317067921,0.01039049764368683
1772733528248311800,6.813311767578125,0.04216273294687271,0.008875051579438149,0.0071423369021620595
1772733528258326800,6.823326904296875,0.04709609769582748,-0.004922149235196412,-0.0058325512115377925
1772733528268343000,6.833343017578125,0.05367606060802936,0.008791720677539706,0.006970706662302836
1772733528278358000,6.84335791015625,0.055468789243698115,0.008844729506410657,-0.0053284513140330085
1772733528288374000,6.8533740234375,0.045892567124962806,0.0018035788232460617,0.0003913785043405369
1772733528298389000,6.863388916015625,0.055471711853146546,0.013999664584174752,-0.002866102621378377
1772733528308404000,6.873404052734375,0.056070262268185615,0.00874503199160099,-0.008359699635556899
1772733528318420000,6.883419921875,0.050831192570924756,0.0029554157394915815,-0.004309520062454976
1772733528328435000,6.89343505859375,0.05098375278413295,0.0084041826646775,0.0017056668401462956
1772733528338450000,6.903449951171875,0.04843757543265819,0.014601977858878672,0.007138003220339305
1772733528348466000,6.9134658203125,0.0592079757720232,0.011687734379991889,-0.006869780738209374
1772733528358481000,6.92348095703125,0.05531973616182804,0.009234021084941924,0.009149201478855683
1772733528368496400,6.933496337890625,0.0605588058590889,-0.00009315817616879939,0.0012050284082069992
1772733528378511400,6.943511474609375,0.04454992034435272,0.009575564531609416,0.0048859956430038435
1772733528388526300,6.9535263671875,0.037519291055202485,0.005161036024987698,-0.0020521878560306505
1772733528398542300,6.963542236328125,0.06579962912201881,0.0047326180124655365,-0.012365478377928956
1772733528408557300,6.973557373046875,0.05666939720511436,-0.0032739071041345594,-0.004141670948569663
1772733528418572500,6.983572509765625,0.05457271718680858,0.010704385898448526,-0.004359473851136863
1772733528428588300,6.99358837890625,0.04604220472872257,-0.007221731414459646,-0.007792562705511227
1772733528438603500,7.003603515625,0.06549684678316116,0.006638816959969699,-0.0001386138862464577
1772733528448619300,7.013619384765625,0.04394786279797554,-0.006662563161738216,-0.01604214389694389
1772733528458634500,7.023634521484375,0.05981003331840038,0.01008278340138495,0.007299043567525223
1772733528468649500,7.0336494140625,0.045594460961222646,0.004680485966429114,0.004481762223667465
1772733528478665500,7.04366552734375,0.07522153746187686,-0.0015817892987281083,0.002349887594394386
1772733528488680400,7.053680419921875,0.02060264304578304,0.006959756010025739,-0.005834715769160539
1772733528498695400,7.0636953125,0.11712006651461124,0.014102832697704433,0.012829762288276106
1772733528508711400,7.07371142578125,0.012819149562716483,0.003709887368604541,-0.006598745244485326
1772733528518726400,7.083726318359375,0.10559504841566085,0.003966200217232108,-0.01514487083023414
1772733528528742400,7.093742431640625,0.013864859223365783,0.004041238214820623,-0.01828965339567512
1772733528538757400,7.10375732421875,0.09272504544854164,0.004020853013917803,-0.00037313959475141016
1772733528548772400,7.1137724609375,0.01745557719171047,0.010650646417215465,-0.00501290539172478
1772733528558788400,7.123788330078125,0.06324351489841938,0.011426562693156301,0.0033652295162435618
1772733528568803300,7.13380322265625,0.04618599711358547,0.014995616818964481,0.006574405387672596
1772733528578818300,7.143818359375,0.05620762491226196,-0.0018680954268202184,0.005297590384888463
1772733528588834300,7.153834228515625,0.06652969696223736,0.003872530584409833,-0.00035746253500692544
1772733528598849300,7.163849365234375,0.05410509967505932,0.004739559209905564,-0.0035773926958907395
1772733528608865300,7.173865234375,0.056796822977066036,0.0025208602471277117,-0.005899693597038276
1772733528618880300,7.18388037109375,0.02836567826271057,-0.009026588879339397,0.0008549363289028406
1772733528628895200,7.193895263671875,0.07265782445371151,-0.007085209020599723,-0.027927122448664157
1772733528638911200,7.2039111328125,0.015652327162027357,0.007605068176239728,-0.02012239894790109
1772733528648926200,7.21392626953125,0.09226736480891704,0.012962503556162118,0.014017780196177772
1772733528658941200,7.223941162109375,0.04034077821671962,-0.0023739260571077466,0.01953490421641618
1772733528668957200,7.233957275390625,0.08478431557714938,0.007471760652773082,0.02238391870567575
1772733528678972200,7.24397216796875,0.056653030592203134,0.008184037107974291,0.02771553465775214
1772733528688988200,7.25398828125,0.07415829214453697,0.0019284473119303583,0.015740576267638244
1772733528699003100,7.264003173828125,0.022828502401709555,-0.0012693988813087342,-0.011380755356629378
1772733528709018000,7.27401806640625,0.042428105884790415,-0.010191029548831283,-0.00934963312151376
1772733528719034400,7.284034423828125,0.04452244781553745,-0.004904394382797181,-0.027279321497841735
1772733528729049300,7.29404931640625,0.04482055397927761,-0.002773191040381789,-0.006505915861879475
1772733528739065300,7.3040654296875,0.049912908682227135,0.015072627577930688,-0.002981070770556107
1772733528749080300,7.314080322265625,0.06158405725359916,0.0016197101563215255,0.008537987945065833
1772733528759095600,7.324095458984375,0.05634732564389705,0.004732471881993115,0.004274357417528517
1772733528769111300,7.334111328125,0.05634732564389705,0.008903473956324159,0.009565878821234218
1772733528779126500,7.34412646484375,0.04168167143166065,-0.0019930735133588313,0.00523313771339599
1772733528789141500,7.3541416015625,0.044670916375517844,0.02908431139346212,-0.005947807055083103
1772733528799157500,7.364157470703125,0.05918459489643573,0.015951931163109837,-0.008529535210551694
1772733528809172500,7.37417236328125,0.046613867136836046,-0.00931413711644709,-0.004140597802912816
1772733528819187500,7.3841875,0.046615036180615424,-0.012642879680357873,-0.009034612355590797
1772733528829203500,7.394203369140625,0.05454466013610363,-0.002270136889070272,-0.005814353401144035
1772733528839218400,7.404218505859375,0.06217617792785168,0.0011825243154540658,0.0064924079263349995
1772733528849234400,7.414234375,0.06023673429787159,-0.012246464241296053,0.0013397470040479673
1772733528859249400,7.42424951171875,0.04886719902157783,-0.004082885399460792,0.005403229016717523
1772733528869264400,7.434264404296875,0.06368541344702243,0.01500350786447525,0.004431689703976735
1772733528879280400,7.4442802734375,0.061142743226885794,0.007514686479046941,-0.008123849619645625
1772733528889295400,7.45429541015625,0.05515314742326736,0.011528196436725556,0.0009925273018423467
1772733528899311400,7.464311279296875,0.04647533544898033,0.0010327405812218784,0.005877961255842819
1772733528909326300,7.474326416015625,0.03584931201636791,-0.004590323464944959,-0.0075189836282515896
1772733528919341300,7.48434130859375,0.058442252096533774,0.0011652078544721006,-0.014141306111146695
1772733528929357300,7.494357421875,0.03673953885436058,0.00487542401663959,-0.010426153478957713
1772733528939372300,7.504372314453125,0.04227729923725128,0.0067641969053074714,-0.015088514700229278
1772733528949387300,7.51438720703125,0.055151393857598305,-0.014473492641001938,-0.00881069023949094
1772733528959403300,7.5244033203125,0.07265957801938057,-0.0007496493235230445,0.007634833126841113
1772733528969418200,7.534418212890625,0.044829906329512594,0.009658201313763857,0.011242050138837657
