time,seconds_elapsed,z,y,x
1772733521497942300,0.0629423828125,0.0009487816132605076,0.003232910530641675,-0.001251976122148335
1772733521507958300,0.072958251953125,-0.0005077014211565256,0.004375672899186611,0.00012434553354978561
1772733521517973200,0.08297314453125,-0.00011334149166941643,0.003140147542580962,-0.002659888006746769
1772733521527989200,0.0929892578125,0.002112528309226036,0.002484743483364582,-0.0013365632621571422
1772733521538004200,0.103004150390625,0.0013109664432704449,0.001294523011893034,0.00029343587812036276
1772733521548019200,0.113019287109375,-0.0008765540551394224,0.000046032946556806564,-0.0016006042715162039
1772733521558035200,0.12303515625,0.0010972488671541214,-0.0004632060881704092,0.00010944728273898363
1772733521568050200,0.13305029296875,-0.0007099723443388939,-0.0011542963329702616,0.0008274355204775929
1772733521578066200,0.143066162109375,0.00015891343355178833,0.0017115258378908038,-0.00012417323887348175
1772733521588081200,0.1530810546875,0.0009450786747038364,0.0021711874287575483,-0.0009974237764254212
1772733521598096100,0.16309619140625,-0.0002991186920553446,0.00004817545413970947,0.00024347659200429916
1772733521608112000,0.173112060546875,0.0015373975038528442,-0.0006517034489661455,-0.0008830405422486365
1772733521618127000,0.183127197265625,0.000871011521667242,0.0005890822503715754,0.000575355370528996
1772733521628143400,0.193143310546875,-0.0007402009796351194,-0.0003448883071541786,0.0006888060597702861
1772733521638158000,0.203157958984375,-0.0007867696695029736,-0.0008894568309187889,0.0002544570015743375
1772733521648173000,0.213173095703125,-0.0026195570826530457,0.0011878088116645813,-0.0013200038811191916
1772733521658189300,0.223189208984375,-0.00021606171503663063,-0.000257374020293355,-0.001482512103393674
1772733521668204300,0.233204345703125,0.0007136478088796139,-0.00042994669638574123,0.000620319857262075
1772733521678220300,0.24322021484375,0.000775857362896204,0.00014539272524416447,-0.0012180673656985164
1772733521688235300,0.2532353515625,-0.001643358264118433,0.0004295520484447479,-0.000184760894626379
1772733521698250200,0.263250244140625,-0.00047895475290715694,0.00012668408453464508,0.000750758801586926
1772733521708266200,0.273266357421875,-0.0006272927857935429,-0.0008789256680756807,-0.0002748245606198907
1772733521718281200,0.28328125,0.00006377091631293297,-0.00009673507884144783,0.00022387388162314892
1772733521728297200,0.293297119140625,-0.0010994977783411741,-0.0002799606882035732,0.0002174822147935629
1772733521738312200,0.303312255859375,0.00009122723713517189,-0.0007110615260899067,-0.0000416444381698966
1772733521748327200,0.3133271484375,0.0003010844811797142,-0.00011877436190843582,-0.0010403298074379563
1772733521758343200,0.32334326171875,0.0010365378111600876,0.0003228718414902687,0.000005203532055020332
1772733521768358100,0.333358154296875,0.0003728778101503849,0.000019005034118890762,0.00013143743854016066
1772733521778374100,0.3433740234375,-0.0008350801654160023,0.00013549672439694405,0.00025980197824537754
1772733521788389000,0.35338916015625,-0.00244602607563138,-0.0017090088222175837,-0.00007815321441739798
1772733521798404000,0.363404052734375,-0.0001748441718518734,-0.0007916886825114489,0.00030140182934701443
1772733521808420000,0.373420166015625,0.00046697771176695824,-0.00028488924726843834,-0.000004595378413796425
1772733521818435000,0.38343505859375,0.00028206175193190575,-0.0005372418090701103,-0.0008393728057853878
1772733521828451000,0.393451171875,-0.00010143313556909561,0.0005365447141230106,-0.0006963610649108887
1772733521838466000,0.403466064453125,-0.0006010029464960098,-0.001307663507759571,0.00044737313874065876
1772733521848481300,0.413481201171875,-0.00039141206070780754,-0.00045145698823034763,-0.0015350839821621776
1772733521858497000,0.4234970703125,-0.0007494469173252583,-0.0013918732292950153,-0.0013090301072224975
1772733521868512300,0.43351220703125,0.0013147694990038872,0.0009290715679526329,0.0009732989128679037
1772733521878528000,0.443528076171875,-0.0010230140760540962,-0.0007617035880684853,-0.00001989153679460287
1772733521888543200,0.453543212890625,0.00038286857306957245,-0.0001390567049384117,0.0007976989727467299
1772733521898558200,0.46355810546875,-0.002863112837076187,-0.0017818098422139883,0.000290053547360003
1772733521908574200,0.47357421875,-0.0006489607039839029,0.00006722309626638889,-0.0006580318440683186
1772733521918589200,0.483589111328125,-0.0010129103902727365,-0.0009889793582260609,-0.00004764797631651163
1772733521928605400,0.49360546875,-0.00021582609042525291,-0.00019375933334231377,-0.00023140606936067343
1772733521938620200,0.5036201171875,0.0016148332506418228,0.00014602881856262684,0.000013966578990221024
1772733521948635100,0.51363525390625,0.0005194749683141708,0.0004006270319223404,-0.001196972792968154
1772733521958651400,0.5236513671875,0.00025821803137660027,0.0009103985503315926,-0.00034184532705694437
1772733521968666400,0.533666259765625,-0.0015383504796773195,0.0006962802726775408,-0.0003160126507282257
1772733521978682400,0.543682373046875,0.0016912352293729782,0.0006389999762177467,0.00027431349735707045
1772733521988697300,0.553697265625,-0.0011213291436433792,-0.000362881226465106,-0.0006980065954849124
1772733521998712300,0.56371240234375,0.0007950221188366413,0.0004720115102827549,0.00080869160592556
1772733522008728300,0.573728271484375,0.0011159330606460571,-0.0000022975727915763855,0.0004510290455073118
1772733522018743300,0.583743408203125,0.000006155576556921005,0.00012888130731880665,0.001585475169122219
1772733522028759300,0.59375927734375,-0.0006628306582570076,-0.00049776048399508,0.000029656453989446163
1772733522038774300,0.603774169921875,-0.0011049164459109306,-0.00002097780816257,0.00021632516290992498
1772733522048789200,0.613789306640625,0.0009462502785027027,-0.0003863635938614607,-0.00008834048639982939
1772733522058805200,0.62380517578125,0.0013829502277076244,-0.00027974555268883705,0.00028538494370877743
1772733522068820200,0.6338203125,0.00017520645633339882,0.0008710063993930817,0.0001932395389303565
1772733522078836200,0.643836181640625,-0.0003973855637013912,-0.00003190571442246437,-0.0010666504967957735
1772733522088851200,0.653851318359375,-0.0005052434280514717,0.0008922112174332142,0.000392761779949069
1772733522098866200,0.6638662109375,-0.004011065699160099,0.000929912319406867,-0.0003822367871180177
1772733522108882200,0.673882080078125,-0.0014206087216734886,-0.00048262812197208405,0.0002899450482800603
1772733522118897200,0.683897216796875,-0.0008599953725934029,0.0009621931239962578,0.0007664279546588659
1772733522128913200,0.6939130859375,0.00038955966010689735,-0.0013891116250306368,-0.0001616837689653039
1772733522138928000,0.70392822265625,0.0027190595865249634,-0.0008358948398381472,-0.000009126495569944382
1772733522148943000,0.713943115234375,-0.0005156160332262516,0.0008597397245466709,-0.0009337760275229812
1772733522158959000,0.723958984375,-0.00046841753646731377,0.000025760149583220482,-0.00031287071760743856
1772733522168974000,0.73397412109375,-0.0002519022673368454,0.000952806556597352,-0.0007983649848029017
1772733522178989000,0.743989013671875,-0.0009767648298293352,0.0004276761319488287,0.0017451797612011433
1772733522189005000,0.754005126953125,0.0005388404242694378,-0.0009614287409931421,0.0002114654053002596
1772733522199020000,0.76402001953125,0.0003919699229300022,-0.0007894644513726234,-0.00007821002509444952
1772733522209036000,0.7740361328125,-0.0013606564607471228,-0.0010059792548418045,0.00048291811253875494
1772733522219051000,0.784051025390625,-0.0002285274676978588,-0.0010853654239326715,0.0002138175768777728
1772733522229066200,0.794066162109375,-0.00016647577285766602,-0.0005966753233224154,-0.0005417212378233671
1772733522239082000,0.80408203125,-0.0010621598921716213,0.0005079617258161306,-0.0005934018990956247
1772733522249097200,0.81409716796875,0.0009051170200109482,-0.0017626495100557804,0.0008114156080409884
1772733522259113200,0.82411328125,-0.0005409365985542536,-0.0008603474125266075,0.0005065628793090582
1772733522269128200,0.834128173828125,-0.0009318885859102011,0.0005913414061069489,-0.00023699167650192976
1772733522279143200,0.84414306640625,0.001181427389383316,-0.001386962365359068,-0.000471194158308208
1772733522289159400,0.854159423828125,0.0006597144529223442,0.0009702013339847326,-0.0005689321551471949
1772733522299174400,0.86417431640625,-0.00034580426290631294,-0.0010192107874900103,-0.0010718459961935878
1772733522309190400,0.8741904296875,-0.0004840223118662834,0.0007046530954539776,-0.000025490066036581993
1772733522319205400,0.884205322265625,0.0007390622049570084,0.0005605111364275217,0.00010251300409436226
1772733522329220400,0.894220458984375,-0.0003155497834086418,0.0006816848181188107,-0.00005754292942583561
1772733522339236400,0.904236328125,0.0005537341348826885,-0.0001943027600646019,-0.0001412907149642706
1772733522349251300,0.914251220703125,-0.0002968795597553253,0.001462449785321951,0.000220100162550807
1772733522359266800,0.924266845703125,0.001027749851346016,-0.0002608983777463436,-0.00009202398359775543
1772733522369281800,0.93428173828125,0.0003848630003631115,0.0006981058977544308,-0.000048614456318318844
1772733522379296800,0.944296875,0.00004833843559026718,-0.00032666209153831005,0.0013656545197591186
1772733522389312800,0.954312744140625,-0.003612442873418331,-0.0014228194486349821,-0.00015687465202063322
1772733522399327700,0.96432763671875,0.000029885675758123398,-0.0004266155883669853,-0.00010082812514156103
1772733522409343700,0.97434375,-0.0007003529462963343,-0.0007403362542390823,-0.0004443759680725634
1772733522419358700,0.984358642578125,-0.00178074324503541,0.000043206848204135895,0.0001875006128102541
1772733522429373700,0.994373779296875,-0.001215886790305376,-0.0010795819107443094,0.0006881748558953404
1772733522439390000,1.004389892578125,0.00017523346468806267,0.0010717902332544327,-0.0027796668000519276
1772733522449404700,1.01440478515625,-0.001105214236304164,-0.0006528727244585752,0.0002448852173984051
1772733522459419600,1.024419677734375,0.000016145408153533936,0.00040024821646511555,0.0005632435204461217
1772733522469436000,1.034435791015625,0.00045823026448488235,0.0018442141590639949,0.0012825633166357875
1772733522479451000,1.044450927734375,0.00022391648963093758,-0.0009801620617508888,0.00046481459867209196
1772733522489467000,1.054466796875,0.001155756413936615,0.0016864609206095338,-0.001087808283045888
1772733522499481900,1.06448193359375,0.0009238799102604389,0.0008310971315950155,-0.0008631449891254306
1772733522509496800,1.074496826171875,0.00012413272634148598,-0.00041739270091056824,-0.0010583547409623861
1772733522519512800,1.084512939453125,-0.0012167200911790133,0.0001820309553295374,-0.0011964949080720544
1772733522529527800,1.09452783203125,-0.00001989537850022316,0.00032983627170324326,0.0006807674653828144
1772733522539543800,1.104543701171875,-0.0003833605442196131,0.0013108793646097183,-0.001118466374464333
1772733522549558800,1.114558837890625,-0.0009711200837045908,0.00086932722479105,-0.002444986952468753
1772733522559574000,1.124573974609375,-0.00016840966418385506,0.0009623989462852478,-0.0005186856724321842
1772733522569589800,1.13458984375,-0.000988663174211979,0.0009932916145771742,-0.0009711567545309663
1772733522579605000,1.14460498046875,0.0008754460141062737,-0.0005605437327176332,-0.0010276276152580976
1772733522589620700,1.154620849609375,-0.0001839594915509224,-0.00007744599133729935,0.000845373491756618
1772733522599635700,1.1646357421875,-0.000419805059209466,-0.001317405141890049,0.00033707101829349995
1772733522609651000,1.17465087890625,-0.00014736363664269447,0.00016783992759883404,-0.00015108648221939802
1772733522619666700,1.184666748046875,0.0003740284591913223,-0.00019386247731745243,0.0011867228895425797
1772733522629682000,1.194681884765625,-0.0005093421787023544,0.0010761991143226624,-0.00021489884238690138
1772733522639697700,1.20469775390625,-0.00003294646739959717,0.001716111321002245,-0.0004875096492469311
1772733522649713000,1.214712890625,-0.0013586683198809624,-0.0008067013695836067,0.0003915998386219144
1772733522659728000,1.224727783203125,-0.0003291885368525982,0.0014839874347671866,0.00039319577626883984
1772733522669743900,1.234743896484375,-0.000923872459679842,0.0008442960679531097,-0.0014086989685893059
1772733522679758800,1.2447587890625,0.0002831974998116493,-0.0006622504442930222,-0.0003448523348197341
1772733522689773800,1.25477392578125,0.0007886653766036034,0.00033350568264722824,-0.00008838984649628401
1772733522699789800,1.264789794921875,0.0011453861370682716,-0.0004401498008519411,0.000029221060685813427
1772733522709804800,1.2748046875,-0.0018061953596770763,-0.00000871787779033184,0.0008281692862510681
1772733522719820800,1.28482080078125,-0.0010017140302807093,-0.00024456530809402466,-0.0012270845472812653
1772733522729835800,1.294835693359375,-0.0010994519107043743,0.0005426651332527399,-0.0008616988197900355
1772733522739850800,1.304850830078125,-0.0016274836380034685,0.0010272539220750332,0.0008521866984665394
1772733522749866800,1.31486669921875,-0.000011743977665901184,0.00042165094055235386,-0.0012064367765560746
1772733522759881700,1.3248818359375,0.001645087730139494,-0.0006005014292895794,-0.00006677140481770039
1772733522769898000,1.33489794921875,-0.000928591238334775,-0.0004582887049764395,-0.00031364639289677143
1772733522779912700,1.34491259765625,0.0004124022088944912,-0.0005461352411657572,-0.0008147176122292876
1772733522789927700,1.354927734375,0.00027977675199508667,0.0005838437937200069,0.0010031560668721795
1772733522799944000,1.36494384765625,0.00033665262162685394,-0.0018500506412237883,0.0006503137992694974
1772733522809959000,1.374958984375,-0.00037174834869802,-0.0002548170741647482,-0.0012157631572335958
1772733522819975000,1.384974853515625,-0.000277969054877758,0.0010111457668244839,-0.00034524069633334875
1772733522829990000,1.394989990234375,0.00013189157471060753,-0.0007329585496336222,0.0008068426977843046
1772733522840004900,1.4050048828125,0.0015551792457699776,-0.0005019253585487604,-0.0009923174511641264
1772733522850020900,1.415020751953125,-0.0002579009160399437,0.00015374459326267242,-0.000052487943321466446
1772733522860035800,1.425035888671875,-0.0001504453830420971,0.000418646028265357,-0.0006950504030101001
1772733522870051800,1.4350517578125,0.0001925695687532425,0.00021944171749055386,0.00015796010848134756
1772733522880066800,1.44506689453125,-0.000375817297026515,-0.00011933944188058376,-0.0009669923456385732
1772733522890081800,1.455081787109375,-0.00016649276949465275,0.00008865329436957836,-0.00022077467292547226
1772733522900097800,1.465097900390625,-0.0006615584716200829,-0.0010846499353647232,0.00010671233758330345
1772733522910112800,1.47511279296875,-0.0004184118006378412,-0.0002811742015182972,-0.00034096505260095
1772733522920127700,1.485127685546875,-0.0013361854944378138,0.0009336629882454872,-0.00006280827801674604
1772733522930143700,1.495143798828125,0.0007677115499973297,-0.0004349355585873127,0.0006016504485160112
1772733522940158700,1.50515869140625,0.00026396196335554123,0.00024234200827777386,0.0006847180193290114
1772733522950174700,1.5151748046875,0.000028538517653942108,-0.0003262429963797331,-0.0012380842817947268
1772733522960189700,1.525189697265625,-0.0006918471772223711,-0.000832678284496069,0.00006749806925654411
1772733522970205000,1.535204833984375,-0.0002984984312206507,-0.0005101696588099003,-0.0003498193109408021
1772733522980220700,1.545220703125,0.0014201453886926174,-0.000005273148417472839,0.0009342991979792714
1772733522990236000,1.55523583984375,-0.0006994642317295074,0.0008967395406216383,0.0004014006117358804
1772733523000251600,1.565251708984375,-0.0004435204900801182,0.00004675425589084625,0.0011410426814109087
1772733523010267000,1.575266845703125,-0.000329270726069808,0.00028537330217659473,0.00006166344974189997
1772733523020281900,1.58528173828125,-0.002092658542096615,0.00011857575736939907,-0.00010055676102638245
1772733523030297900,1.5952978515625,0.0007747667841613293,0.0008125954773277044,0.0003729533636942506
1772733523040312800,1.605312744140625,0.0010171523317694664,0.000045837368816137314,-0.0001228837063536048
1772733523050328800,1.615328857421875,0.00009756302461028099,0.00023492169566452503,0.00027339463122189045
1772733523060343800,1.62534375,-0.0003680652007460594,0.0004995041526854038,-0.0013268692418932915
1772733523070358800,1.63535888671875,-0.0005939011462032795,-0.00007813563570380211,0.0008161765290424228
1772733523080374800,1.645374755859375,-0.0003796976525336504,0.00030637113377451897,0.000703007448464632
1772733523090389800,1.6553896484375,-0.0007874276489019394,-0.0003053569234907627,0.000390618690289557
1772733523100404700,1.66540478515625,0.00006819097325205803,-0.0005478027742356062,-0.0012741073733195662
1772733523110421000,1.6754208984375,-0.001502008643001318,0.002249048789963126,-0.0006993971765041351
1772733523120435700,1.685435791015625,-0.00013014650903642178,0.00026383460499346256,-0.00031129439594224095
1772733523130452000,1.695451904296875,-0.000725895632058382,-0.0004240598063915968,0.000542248715646565
1772733523140467000,1.705467041015625,-0.0005421815440058708,0.0008291469421237707,0.0004353155381977558
1772733523150482000,1.71548193359375,0.0006594369187951088,0.001401193905621767,0.00042626087088137865
1772733523160498000,1.725497802734375,0.0026572952046990395,-0.0016451864503324032,0.001037074951454997
1772733523170513000,1.735512939453125,-0.0015837890096008778,0.00008640089072287083,-0.0004835901199840009
1772733523180529000,1.74552880859375,0.0006176996976137161,-0.0002902217675000429,0.00019461638294160366
1772733523190544000,1.7555439453125,-0.00036766985431313515,0.0023380517959594727,-0.0008834312902763486
1772733523200558800,1.765558837890625,-0.000713433139026165,0.0019023724598810077,0.00018584704957902431
1772733523210574800,1.775574951171875,-0.0006117003504186869,0.0005124686285853386,0.0005027631996199489
1772733523220589800,1.78558984375,-0.00029381364583969116,0.0009533117990940809,-0.0013164732372388244
1772733523230604800,1.795604736328125,0.0005850293673574924,-0.0002898517996072769,0.00041058671195060015
1772733523240620800,1.805620849609375,0.0002473881468176842,0.002172771142795682,0.0005338621558621526
1772733523250635800,1.8156357421875,-0.00008550705388188362,-0.0002602927852421999,-0.00016415235586464405
1772733523260651800,1.82565185546875,0.0014072326011955738,-0.0007665522862225771,0.0009796880185604095
1772733523270666800,1.835666748046875,0.001380867324769497,0.0006095028948038816,0.001075827982276678
1772733523280681700,1.845681640625,0.0020635416731238365,-0.001805383013561368,-0.0003330417675897479
1772733523290697700,1.85569775390625,-0.00011013029143214226,0.0007821440231055021,0.0013820340391248465
1772733523300712700,1.865712646484375,-0.0009516584686934948,0.0004785202909260988,-0.00013707485049962997
1772733523310728700,1.875728759765625,0.0003402410075068474,-0.0009473362006247044,-0.000018297811038792133
1772733523320743700,1.88574365234375,0.0003993534483015537,0.00040526222437620163,0.00017252867110073566
1772733523330759000,1.895759033203125,-0.0016845699865370989,-0.0008826425764709711,0.00044283957686275244
1772733523340774700,1.905774658203125,-0.0011462061665952206,-0.0005898899398744106,0.00004673271905630827
1772733523350790000,1.915789794921875,0.0002514207735657692,-0.00010785763151943684,-0.00009015377145260572
1772733523360805400,1.925805419921875,0.001949954777956009,-0.0007929950952529907,-0.00011363928206264973
1772733523370820400,1.9358203125,0.001970195211470127,0.0009681535884737968,0.0005912994965910912
1772733523380835300,1.94583544921875,-0.0023109647445380688,0.00025087338872253895,0.0001388591481372714
1772733523390851300,1.955851318359375,0.0016571450978517532,-0.0010061387438327074,-0.001192188705317676
1772733523400866300,1.9658662109375,0.0016279499977827072,0.0003943967167288065,0.00038504728581756353
1772733523410881300,1.97588134765625,-0.0009776868391782045,0.0006508592050522566,0.000383449369110167
1772733523420897300,1.985897216796875,-0.0008140832651406527,0.00017866911366581917,-0.0005236492725089192
1772733523430912300,1.995912353515625,-0.0021496587432920933,-0.0007331969682127237,0.0002212368417531252
1772733523440928300,2.00592822265625,0.000023219268769025803,0.0003921627067029476,0.0002619960578158498
1772733523450943200,2.015943115234375,-0.00008383952081203461,0.001324535347521305,-0.001480243867263198
1772733523460958200,2.025958251953125,0.0004315604455769062,-0.000023812754079699516,-0.0006812649662606418
1772733523470974500,2.035974365234375,-0.0024587681982666254,0.0001245252788066864,-0.000022931606508791447
1772733523480989200,2.0459892578125,-0.0015392848290503025,-0.00018280628137290478,0.00004311674274504185
1772733523491005400,2.05600537109375,-0.0007406026124954224,0.000950368819758296,0.0014503311831504107
1772733523501020400,2.0660205078125,0.00047249672934412956,-0.00022264663130044937,-0.0009790156036615372
1772733523511035400,2.076035400390625,-0.0007672046776860952,-0.0005163932219147682,-0.00025623373221606016
1772733523521051400,2.086051513671875,-0.00006753625348210335,-0.001611423445865512,0.0018601844785735011
1772733523531066400,2.09606640625,-0.000025990884751081467,0.00039313756860792637,0.0008756137685850263
1772733523541081300,2.106081298828125,-0.0014194403775036335,0.0011082300916314125,0.00046446395572274923
1772733523551097300,2.116097412109375,-0.0007416659500449896,-0.0014579917769879103,0.0015534304548054934
1772733523561112300,2.1261123046875,-0.0009441052097827196,0.0003455772530287504,-0.0008325385861098766
1772733523571128300,2.13612841796875,-0.0002860382664948702,-0.0007913261651992798,-0.00023758842144161463
1772733523581143300,2.146143310546875,-0.002819604706019163,0.00046196463517844677,-0.00024550629314035177
1772733523591158300,2.156158203125,-0.0030401144176721573,0.0017517334781587124,-0.0005738741019740701
1772733523601174300,2.16617431640625,-0.0008380694780498743,-0.0019138820935040712,-0.0011042192345485091
1772733523611189200,2.176189208984375,0.00022266758605837822,0.00014367606490850449,0.00038422143552452326
1772733523621205200,2.186205322265625,-0.0009872245136648417,-0.0013464817311614752,-0.001115412451326847
1772733523631220200,2.19622021484375,0.001359553076326847,-0.0008450082968920469,-0.001269875792786479
1772733523641235500,2.2062353515625,-0.00017843488603830338,0.00013032159768044949,-0.0003442489542067051
1772733523651251200,2.216251220703125,-0.000509998295456171,0.00013005523942410946,0.0013151667080819607
1772733523661266400,2.226266357421875,-0.0010258732363581657,-0.0005033451598137617,0.0005906812148168683
1772733523671282200,2.2362822265625,0.0008420678786933422,-0.0006130675319582224,-0.0005297106690704823
1772733523681297400,2.24629736328125,-0.002183772623538971,0.0015714355977252126,0.0006276627536863089
1772733523691312400,2.2563125,0.0002940325066447258,-0.00017426651902496815,-0.0006109734531491995
1772733523701328400,2.266328369140625,0.00022485340014100075,-0.00089251808822155,0.0003327055601403117
1772733523711343400,2.27634326171875,0.0003494890406727791,0.0008284167852252722,0.00020673801191151142
1772733523721358300,2.2863583984375,0.001664002425968647,0.0009119727183133364,0.0005225075874477625
1772733523731374300,2.296374267578125,-0.0007669311016798019,0.0003527090884745121,-0.0015427737962454557
1772733523741389300,2.306389404296875,-0.00029106857255101204,0.0010645107831805944,0.0008590901270508766
1772733523751405300,2.3164052734375,0.0017949854955077171,0.0013707743491977453,-0.00008473405614495277
1772733523761420300,2.326420166015625,-0.0011277676094323397,0.00011896155774593353,-0.00030623568454757333
1772733523771435300,2.336435302734375,-0.000400458462536335,0.00018154573626816273,0.001432009506970644
1772733523781451300,2.346451171875,-0.000474034808576107,-0.0010286783799529076,0.00034999591298401356
1772733523791466200,2.35646630859375,0.00020294077694416046,-0.001436674501746893,-0.00008330040145665407
1772733523801481200,2.366481201171875,-0.0013712069485336542,-0.001305209007114172,-0.0005524394800886512
1772733523811497200,2.376497314453125,-0.0016625567805022001,-0.0009091966785490513,-0.0006195511668920517
1772733523821512200,2.38651220703125,0.00012517673894762993,-0.0003146983217447996,0.0003398715052753687
1772733523831528400,2.396528564453125,-0.0024996348656713963,-0.0016675842925906181,0.00006183749064803123
1772733523841543400,2.40654345703125,0.00038857245817780495,-0.0003259440418332815,-0.0005984566523693502
1772733523851558100,2.41655810546875,-0.00047136214561760426,0.00025861989706754684,-0.0008706317166797817
1772733523861574400,2.426574462890625,-0.0008655625861138105,0.000950308283790946,0.0003620591014623642
1772733523871589400,2.43658935546875,0.000007688067853450775,0.0009290031157433987,-0.0006022715824656188
1772733523881605400,2.44660546875,0.0006107804365456104,-0.0008483482524752617,0.000010868418030440807
1772733523891620400,2.456620361328125,-0.0007674051448702812,0.000006260117515921593,-0.000577956554479897
1772733523901635300,2.46663525390625,0.00014608865603804588,0.0009098420850932598,-0.00031036260770633817
1772733523911651300,2.4766513671875,0.0009551569819450378,-0.000077391741797328,-0.0004445859231054783
1772733523921666300,2.486666259765625,0.0005569141358137131,0.002801149385049939,0.00018824997823685408
1772733523931682300,2.496682373046875,0.00005837017670273781,0.00010017142631113529,0.00105084793176502
1772733523941697300,2.506697265625,-0.0012195357121527195,0.0014579538255929947,-0.0006515863933600485
1772733523951712300,2.516712158203125,0.0004350864328444004,0.00024195457808673382,0.0010589620796963573
1772733523961728300,2.526728271484375,-0.0007954395841807127,0.0003476492129266262,-0.0001528748543933034
1772733523971743200,2.5367431640625,0.00009725196287035942,-0.001258769305422902,-0.0004737857962027192
1772733523981758500,2.546758544921875,0.0003518476150929928,0.000689138425514102,0.0006412286311388016
1772733523991774200,2.556774169921875,-0.00021780235692858696,-0.000506620854139328,0.0004236483946442604
1772733524001789400,2.56678955078125,0.0002203984186053276,-0.0011822916567325592,-0.0008668925147503614
1772733524011805200,2.57680517578125,-0.0005657665897160769,-0.0010523293167352676,0.0004263385199010372
1772733524021820400,2.5868203125,0.001770978793501854,0.000012610107660293579,0.00015980342868715525
1772733524031835400,2.59683544921875,-0.0019838118460029364,-0.0002766090910881758,-0.0016109324060380459
1772733524041851400,2.606851318359375,-0.00008558481931686401,-0.00039030262269079685,-0.00022932840511202812
1772733524051866400,2.616866455078125,0.00028858892619609833,-0.00014688982628285885,-0.0002490357728675008
1772733524061882400,2.62688232421875,0.0010504922829568386,0.0008535727392882109,-0.0009255126351490617
1772733524071897300,2.6368974609375,0.00015247473493218422,-0.0008745524100959301,-0.0005761059001088142
1772733524081912300,2.646912353515625,0.0006863763555884361,-0.00029660086147487164,0.0009088108781725168
1772733524091928300,2.65692822265625,0.000539103988558054,0.00014575012028217316,0.00016285956371575594
1772733524101943300,2.666943359375,0.00018751481547951698,0.0015551118412986398,0.000018865102902054787
1772733524111958300,2.676958251953125,-0.00035363947972655296,-0.00019538379274308681,-0.00021762365940958261
1772733524121974300,2.686974365234375,0.0004415600560605526,-0.0017704165074974298,-0.0004110853769816458
1772733524131989200,2.6969892578125,-0.0006298294756561518,0.0006517283618450165,-0.0003623495576903224
1772733524142005500,2.707005615234375,-0.0025792585220187902,-0.001519045326858759,-0.0005928371101617813
1772733524152020200,2.717020263671875,0.000910547561943531,0.0008849899750202894,0.0007848161039873958
1772733524162035200,2.72703515625,0.002112702466547489,-0.000018745195120573044,-0.00023569376207888126
1772733524172051500,2.737051513671875,0.0010351873934268951,-0.0011852094903588295,-0.0012186665553599596
1772733524182066400,2.74706640625,0.0007991665042936802,0.0004753314424306154,-0.0009323064005002379
1772733524192082400,2.75708251953125,-0.000617635203525424,0.000301160616800189,-0.0006678545032627881
1772733524202097400,2.767097412109375,0.001170446164906025,-0.0008495040237903595,0.00048027641605585814
1772733524212112400,2.7771123046875,-0.0007206646259874105,0.0014738375321030617,-0.0013168246950954199
1772733524222128400,2.78712841796875,0.0002954397350549698,0.0012804230209439993,0.0007695832755416632
1772733524232143400,2.797143310546875,-0.0000475752167403698,-0.001153706107288599,-0.00027091370429843664
1772733524242158300,2.807158447265625,-0.0004941942170262337,0.00010871468111872673,0.001463891938328743
1772733524252174300,2.81717431640625,0.0009124875068664551,-0.0011075509246438742,0.0010178126394748688
1772733524262189300,2.827189208984375,0.00022601336240768433,-0.0009586198721081018,-0.0015183263458311558
1772733524272205300,2.837205322265625,0.0006952625699341297,0.0011751048732548952,-0.0019364426843822002
1772733524282220300,2.84722021484375,0.0003592842258512974,-0.0010564322583377361,-0.0017969533801078796
1772733524292235300,2.8572353515625,-0.0007437972817569971,0.00018087239004671574,-0.0005063855787739158
1772733524302251300,2.867251220703125,0.0007171863690018654,0.0007393746636807919,-0.00043290707981213927
1772733524312266200,2.877266357421875,0.0009057382121682167,-0.0007637136150151491,-0.001101360539905727
1772733524322282200,2.8872822265625,-0.0009503152687102556,-0.0010519325733184814,-0.0003861462464556098
1772733524332297200,2.897297119140625,0.001879559364169836,0.0010144140105694532,0.0003411630168557167
1772733524342312400,2.9073125,0.000014978926628828049,0.0001787228975445032,0.00015895639080554247
1772733524352328200,2.917328125,-0.0011285827495157719,0.0007470415439456701,-0.0005443844711408019
1772733524362343400,2.927343505859375,0.00020065438002347946,-0.001039920374751091,-0.0017291961703449488
1772733524372358400,2.9373583984375,-0.00022598402574658394,-0.0007006335072219372,0.00039494107477366924
1772733524382374400,2.94737451171875,-0.00044936337508261204,0.0003815540112555027,0.0006470679072663188
1772733524392389400,2.957389404296875,-0.0003287221770733595,-0.00009461911395192146,0.0010838262969627976
1772733524402405400,2.9674052734375,0.00028623035177588463,0.0009183934889733791,-0.00020978879183530807
1772733524412420400,2.97742041015625,-0.00044427462853491306,-0.00006511202082037926,0.0004674530355259776
1772733524422435300,2.987435302734375,0.0016708727926015854,0.0011846707202494144,0.0008959614206105471
1772733524432451300,2.997451416015625,-0.0007581966929137707,0.0005324624944478273,-0.0013504148228093982
1772733524442466300,3.00746630859375,-0.0009836137760430574,0.0004277953412383795,-0.001457073143683374
1772733524452482300,3.017482421875,0.0009698146022856236,0.0006206082180142403,-0.0013478834880515933
1772733524462497300,3.027497314453125,0.0002775536850094795,0.0002849691081792116,0.0011450952151790261
1772733524472512300,3.03751220703125,0.0009521320462226868,0.0017361254431307316,-0.0005481425323523581
1772733524482528300,3.0475283203125,0.0002826428972184658,0.00045564351603388786,0.0006896605482324958
1772733524492543200,3.057543212890625,-0.0023536202497780323,-0.001691663172096014,-0.0010611015604808927
1772733524502558200,3.06755810546875,-0.0002786540426313877,0.0008241196628659964,-0.000229539698921144
1772733524512574500,3.077574462890625,-0.00011087488383054733,0.0007343711331486702,-0.00007800583261996508
1772733524522589400,3.08758935546875,-0.0007241310086101294,0.0000661374069750309,-0.0005840383237227798
1772733524532605400,3.09760546875,0.0018311720341444016,-0.0010270900093019009,0.00017709308303892612
1772733524542620400,3.107620361328125,0.0006215651519596577,-0.0005094697698950768,-0.0008600555011071265
1772733524552635400,3.117635498046875,-0.0005667372606694698,-0.00012597441673278809,-0.0006848195334896445
1772733524562651400,3.1276513671875,-0.0005644583143293858,0.001571523491293192,0.00032276741694658995
1772733524572666400,3.137666259765625,-0.0002954790834337473,0.0005067917518317699,-0.0001291710650548339
1772733524582681300,3.147681396484375,-0.0006966041401028633,0.0007958309724926949,-0.0000396419782191515
1772733524592697300,3.157697265625,-0.0010119224898517132,0.0001604005228728056,-0.0004444424994289875
1772733524602712300,3.16771240234375,0.001131532248109579,0.0007515205070376396,0.0004632541676983237
1772733524612728300,3.177728271484375,-0.0003497176803648472,-0.0001568836160004139,-0.0008147967746481299
1772733524622743300,3.187743408203125,0.0005682981573045254,-0.0009827814064919949,0.00040772627107799053
1772733524632758300,3.19775830078125,-0.0006200042553246021,0.00003933999687433243,-0.0006546087097376585
1772733524642774300,3.207774169921875,-0.0006386344321072102,0.00022651045583188534,-0.00014285033103078604
1772733524652789200,3.217789306640625,0.00009400118142366409,0.0015069583896547556,-0.0004320696461945772
1772733524662805200,3.22780517578125,-0.0005873821210116148,-0.0004150685854256153,-0.00010091415606439114
1772733524672820200,3.2378203125,0.0010350155644118786,0.0002347426488995552,0.00065808673389256
1772733524682835500,3.24783544921875,-0.0008457179646939039,-0.0008570132777094841,-0.0004889433621428907
1772733524692851200,3.257851318359375,0.0005154237151145935,0.0008972110226750374,-0.0004846822703257203
1772733524702866400,3.267866455078125,-0.0007664761506021023,-0.0007154259365051985,-0.0006757151568308473
1772733524712882200,3.277882080078125,0.0009043910540640354,0.0007871296256780624,0.00040046824142336845
1772733524722897400,3.2878974609375,-0.0006267926655709743,0.000025252345949411392,-0.0012122920015826821
1772733524732912400,3.297912353515625,0.0013175811618566513,0.0003688002470880747,0.00010490743443369865
1772733524742928400,3.307928466796875,0.0004358035512268543,-0.0004598794039338827,-0.00013672583736479282
1772733524752943400,3.317943359375,0.0002328706905245781,0.0016679861582815647,-0.00001688359770923853
1772733524762958300,3.327958251953125,0.00008411100134253502,0.0009499944280833006,-0.0002644921187311411
1772733524772974300,3.337974365234375,-0.0014282981865108013,-0.0003525577485561371,0.0006287321448326111
1772733524782989300,3.3479892578125,0.0007348670624196529,-0.00004155654460191727,-0.00043235684279352427
1772733524793005300,3.35800537109375,0.001204914879053831,0.0007976056076586246,-0.0010496776085346937
1772733524803020300,3.368020263671875,-0.0005012291949242353,-0.0005002573598176241,-0.001506335218437016
1772733524813035300,3.37803515625,0.00113262003287673,0.0021844753064215183,0.00009502354077994823
1772733524823051300,3.38805126953125,-0.0008908815216273069,0.00024130567908287048,0.00187860825099051
1772733524833066200,3.398066162109375,0.0009115459397435188,-0.0003256811760365963,-0.0006727001164108515
1772733524843081200,3.408081298828125,-0.0010615866631269455,0.0015441456343978643,-0.0012219352647662163
1772733524853097500,3.418097412109375,-0.0010914141312241554,0.0004535811021924019,0.00031364336609840393
1772733524863112200,3.4281123046875,0.0005069803446531296,0.00014723418280482292,0.000689146458171308
1772733524873128400,3.43812841796875,-0.00000967271625995636,0.0004441766068339348,-0.0007830489776097238
1772733524883143400,3.448143310546875,0.000166239682585001,0.001006969716399908,0.000030201277695596218
1772733524893158400,3.458158447265625,-0.00007717357948422432,-0.00027827173471450806,-0.0002986991312354803
1772733524903174400,3.46817431640625,0.00044023245573043823,0.0007760168518871069,-0.00016184768173843622
1772733524913189400,3.478189453125,0.0013443753123283386,0.000018880236893892288,0.0008056787773966789
1772733524923205400,3.488205322265625,-0.0011571233626455069,0.0007814841810613871,-0.000539821689017117
1772733524933220400,3.498220458984375,-0.0021299761720001698,0.00024192780256271362,0.000030893716029822826
1772733524943235300,3.5082353515625,-0.0017321598716080189,0.000012780074030160904,-0.0009974670829251409
1772733524953251300,3.518251220703125,0.00035256240516901016,-0.00036432361230254173,-0.00002488063182681799
1772733524963266300,3.528266357421875,-0.000625489978119731,-0.00018631573766469955,-0.0009860448772087693
1772733524973281300,3.53828125,0.0011859922669827938,0.00003925408236682415,0.00025498808827251196
1772733524983297300,3.54829736328125,-0.001826286083087325,-0.0003112747799605131,0.0010932113509625196
1772733524993312300,3.558312255859375,-0.001566627761349082,-0.0009086218196898699,-0.0005441000103019178
1772733525003328300,3.568328369140625,0.00008662370964884758,-0.0002448153682053089,-0.0003039292059838772
1772733525013343200,3.57834326171875,-0.0007666533347219229,0.00007662829011678696,-0.00030499440617859364
1772733525023358500,3.5883583984375,0.002236365806311369,0.00010871049016714096,0.0005114011000841856
1772733525033374200,3.598374267578125,0.00014072423800826073,0.001700748223811388,0.0005188579671084881
1772733525043389400,3.608389404296875,0.0007028332911431789,-0.0007652088534086943,-0.0002505758311599493
1772733525053405200,3.6184052734375,-0.0013363489415496588,0.0000454573892056942,0.0007795349229127169
1772733525063420400,3.62842041015625,0.0017913826741278172,0.0013712374493479729,-0.0012832076754420996
1772733525073435400,3.638435302734375,0.00028030527755618095,-0.00043225521221756935,-0.0010805410565808415
1772733525083451400,3.648451416015625,-0.0001871522981673479,-0.00037930021062493324,-0.0005235765711404383
1772733525093466400,3.65846630859375,-0.0001509333960711956,0.0013757229316979647,-0.0004673838848248124
1772733525103481300,3.6684814453125,-0.000195010332390666,0.0004292691592127085,-0.0006451882072724402
1772733525113497300,3.678497314453125,0.0008516120724380016,0.0006692199967801571,0.0002206054050475359
1772733525123512300,3.68851220703125,-0.0005671514663845301,0.0020852582529187202,0.000029140152037143707
1772733525133528300,3.6985283203125,-0.0019035257864743471,0.000039417995139956474,0.001202528947032988
1772733525143543300,3.708543212890625,0.0006532897241413593,0.00007301545701920986,0.0007372620748355985
1772733525153558300,3.718558349609375,-0.0009267635177820921,-0.0011778711341321468,0.000714891473762691
1772733525163574300,3.72857421875,0.0006452980451285839,-0.0001508542336523533,-0.0002923163119703531
1772733525173589200,3.73858935546875,-0.0002681659534573555,-0.0006211686413735151,-0.0004611607873812318
1772733525183605500,3.74860546875,-0.0005866235587745905,0.0003752156626433134,0.00015726673882454634
1772733525193620500,3.758620361328125,0.001027784775942564,0.0010593817569315434,-0.0010680537670850754
1772733525203635200,3.76863525390625,-0.00014252355322241783,0.0021352595649659634,0.00017232086975127459
1772733525213651500,3.7786513671875,-0.000051709823310375214,-0.00021444750018417835,0.00036167167127132416
1772733525223666400,3.78866650390625,0.0015141270123422146,-0.00003801519051194191,-0.00033459486439824104
1772733525233681400,3.798681396484375,-0.000970868393778801,-0.0003232397139072418,0.0009549076203256845
1772733525243697400,3.808697509765625,-0.00017639086581766605,0.0007291729561984539,-0.0015199186746031046
1772733525253712400,3.81871240234375,0.00039831921458244324,-0.00021012406796216965,-0.0002336119068786502
1772733525263728400,3.828728271484375,-0.0004558067303150892,-0.0009018916171044111,0.0009076213464140892
1772733525273743400,3.838743408203125,0.0006051966920495033,-0.0021679585333913565,-0.000592270924244076
1772733525283758300,3.84875830078125,-0.0014910034369677305,-0.00020689191296696663,-0.000044414889998734
1772733525293774300,3.8587744140625,-0.00017913035117089748,0.00012280745431780815,0.0014624017057940364
1772733525303789300,3.868789306640625,0.0018237954936921597,0.0016409920062869787,0.0008338748011738062
1772733525313805300,3.878805419921875,-0.00148305157199502,0.00005348166450858116,-0.0004084898391738534
1772733525323820300,3.8888203125,-0.00019149086438119411,-0.0020581453572958708,-0.000020235194824635983
1772733525333835300,3.898835205078125,-0.0002516782842576504,-0.0001135051716119051,-0.00011610903311520815
1772733525343851300,3.908851318359375,-0.00037383614107966423,0.0008981639984995127,-0.000004893285222351551
1772733525353866200,3.9188662109375,-0.0006444132886826992,-0.00007282453589141369,0.0008760802447795868
1772733525363882000,3.928882080078125,0.00010001752525568008,0.000031337374821305275,-0.0004055275348946452
1772733525373898000,3.93889794921875,0.0008259951137006283,0.0009344152640551329,-0.0001746314810588956
1772733525383913000,3.948912841796875,-0.0018644372466951609,-0.0008765256498008966,-0.00020468700677156448
1772733525393929000,3.958928955078125,-0.00026148068718612194,-0.0003018153365701437,0.00026136625092476606
1772733525403944000,3.96894384765625,0.00001921365037560463,0.0020785408560186625,0.00013859476894140244
1772733525413959000,3.978958984375,-0.001149647869169712,0.00045587681233882904,0.0005255520809441805
1772733525423975000,3.988974853515625,0.00009731482714414597,-0.00026344647631049156,0.0003302691038697958
1772733525433990000,3.998989990234375,-0.00003531062975525856,0.0008316452149301767,-0.0018460662104189396
1772733525444005000,4.009005126953125,-0.00004196306690573692,0.0001403442583978176,0.00032079732045531273
1772733525454020900,4.019020751953125,-0.0013791359961032867,0.0011494159698486328,0.0012212120927870274
1772733525464036000,4.0290361328125,-0.0008722168859094381,-0.0008757708128541708,0.0027639553882181644
1772733525474052000,4.039052001953125,-0.0013252205681055784,-0.0012589998077601194,0.0006781673291698098
1772733525484067000,4.049067138671875,0.0013952595181763172,-0.0005399207584559917,0.0004178541712462902
1772733525494082000,4.05908203125,0.0002498337998986244,0.00016235490329563618,0.00048070470802485943
1772733525504098300,4.069098388671875,0.0014330251142382622,0.0012450662907212973,-0.0014071848709136248
1772733525514113300,4.07911328125,0.0012229019775986671,-0.000562421279028058,0.0008296041050925851
1772733525524129300,4.08912939453125,-0.0005058355163782835,0.001723149442113936,0.0005218866281211376
1772733525534144300,4.099144287109375,0.0004659518599510193,-0.0012294971384108067,0.00007820397149771452
1772733525544159200,4.1091591796875,0.0006944560445845127,-0.0004485000390559435,0.00007203919813036919
1772733525554175200,4.11917529296875,-0.0007998435758054256,-0.00013318168930709362,0.00019507715478539467
1772733525564190200,4.129190185546875,-0.00028186547569930553,-0.000709655461832881,0.0002846323186531663
1772733525574206200,4.139206298828125,-0.000447247875854373,0.00027198600582778454,-0.0016930310521274805
1772733525584221200,4.14922119140625,0.000017230398952960968,0.001101064495742321,0.0002475045621395111
1772733525594236200,4.159236083984375,-0.0006831807550042868,0.0008427377324551344,-0.00009311374742537737
1772733525604252200,4.169252197265625,-0.00010601291432976723,-0.00025928113609552383,0.0011814493918791413
1772733525614267100,4.17926708984375,0.0003789486363530159,-0.00046114856377243996,0.0003819684498012066
1772733525624282000,4.1892822265625,0.0008242810145020485,0.0005281642079353333,0.0015545996138826013
1772733525634298000,4.199298095703125,0.0009760810062289238,0.0004687756299972534,0.0003330075414851308
1772733525644313000,4.20931298828125,0.0005539944395422935,0.00010578613728284836,-0.0003090367536060512
1772733525654329000,4.2193291015625,-0.00026865582913160324,-0.000311531126499176,-0.0003231515293009579
1772733525664344000,4.229343994140625,-0.00037619611248373985,0.00023251259699463844,-0.000599729479290545
1772733525674359000,4.239359130859375,0.0006160978227853775,-0.0012732385657727718,0.0008101480780169368
1772733525684375000,4.249375,0.000307589303702116,-0.001506883418187499,0.00028783653397113085
1772733525694390000,4.25939013671875,-0.0007896330207586288,-0.0011494874488562346,-0.00040964531945064664
1772733525704405000,4.269405029296875,-0.00031015765853226185,0.00008633732795715332,-0.0008943346329033375
1772733525714421000,4.2794208984375,0.00018332619220018387,-0.000217795604839921,-0.0013846226502209902
1772733525724436000,4.28943603515625,-0.00036699348129332066,0.000976824900135398,-0.0008995522512122989
1772733525734452000,4.299451904296875,-0.000932648777961731,-0.0015438569243997335,-0.00038529583252966404
1772733525744467000,4.309467041015625,0.0003334265202283859,0.00045927613973617554,0.0012181324418634176
1772733525754482000,4.31948193359375,-0.0009395643137395382,0.0011860528029501438,0.0006982834311202168
1772733525764498000,4.329497802734375,0.00008311541751027107,-0.00036395853385329247,-0.0005324281519278884
1772733525774513000,4.339512939453125,0.000371535774320364,0.0009780083782970905,0.000245481263846159
1772733525784529000,4.34952880859375,-0.0012840800918638706,0.0003254788462072611,0.00013544701505452394
1772733525794543900,4.3595439453125,-0.00021615251898765564,0.000343055697157979,-0.0012869472848251462
1772733525804559000,4.36955908203125,0.00032875873148441315,0.00010063359513878822,-0.000011151423677802086
1772733525814575000,4.3795751953125,0.0006608548574149609,-0.0005526398308575153,-0.000023401924408972263
1772733525824590000,4.389590087890625,0.00044966721907258034,-0.0009554128628224134,0.00042753980960696936
1772733525834605000,4.39960498046875,0.0020515588112175465,0.0008334324229508638,0.0007737507112324238
1772733525844621000,4.40962109375,-0.0011595957912504673,-0.000415062066167593,0.00048742431681603193
1772733525854636300,4.41963623046875,0.00032644812017679214,-0.0003530103713274002,-0.0008380309445783496
1772733525864652000,4.429652099609375,-0.00010116514749825001,-0.0013820056337863207,0.0005215903511270881
1772733525874667300,4.439667236328125,-0.0005299339536577463,-0.00030289264395833015,0.0003322396660223603
1772733525884682200,4.44968212890625,-0.0003337687812745571,-0.0004037839826196432,-0.00033366872230544686
1772733525894698200,4.4596982421875,0.00030752038583159447,-0.00004558870568871498,-0.0001336652785539627
1772733525904713200,4.469713134765625,-0.0009086357895284891,0.0013838226441293955,-0.0026990300975739956
1772733525914729200,4.479729248046875,-0.0000867841299623251,0.00030550872907042503,0.0005569506902247667
1772733525924744200,4.489744140625,-0.0007834588177502155,0.0007234965451061726,0.0018168855458498001
1772733525934759200,4.49975927734375,0.00043946458026766777,-0.0008581546135246754,-0.0012404232984408736
1772733525944775200,4.509775146484375,0.00012136995792388916,-0.00005905795842409134,-0.0003182368818670511
1772733525954790100,4.5197900390625,-0.001042431453242898,-0.001056944252923131,0.0007789854425936937
1772733525964805000,4.52980517578125,0.00016999011859297752,-0.0001361106988042593,-0.00024619034957140684
1772733525974821000,4.539821044921875,-0.0010055291932076216,-0.00019842875190079212,-0.0004057136829942465
1772733525984836000,4.549836181640625,-0.0009768535383045673,0.0011499295942485332,0.00020022096578031778
1772733525994852000,4.55985205078125,0.001636772882193327,0.000721693504601717,0.0009230028372257948
1772733526004867000,4.5698671875,0.00012271525338292122,0.0002038779202848673,0.00022119726054370403
1772733526014882000,4.579882080078125,-0.00020964746363461018,-0.0008011991158127785,-0.0012997339945286512
1772733526024898000,4.58989794921875,-0.00043554743751883507,0.0009425149764865637,0.0012724564876407385
1772733526034913000,4.5999130859375,-0.000598799204453826,-0.00014245673082768917,0.00044847442768514156
1772733526044928000,4.609927978515625,0.00043700262904167175,-0.0003046938218176365,0.0010274151572957635
1772733526054944000,4.619944091796875,0.0002748160623013973,-0.0003627506084740162,-0.0008594343671575189
1772733526064959000,4.629958984375,0.00130567979067564,0.0012556666042655706,0.0005870464956387877
1772733526074975000,4.63997509765625,0.0011916966177523136,0.00011024088598787785,-0.002110203029587865
1772733526084990000,4.649989990234375,0.0000020852312445640564,0.0008137167897075415,0.00023853592574596405
1772733526095005000,4.6600048828125,0.000003949273377656937,0.00005231914110481739,-0.0005638745496980846
1772733526105021000,4.67002099609375,0.000909541267901659,-0.0008032568730413914,-0.00048424373380839825
1772733526115036000,4.680035888671875,0.00026319175958633423,-0.0002682276535779238,-0.001435524900443852
1772733526125052000,4.690052001953125,-0.0004772504325956106,-0.00024268333800137043,-0.0005200204905122519
1772733526135067000,4.70006689453125,-0.00000826781615614891,0.0008995465468615294,-0.0010750233195722103
1772733526145082000,4.71008203125,-0.0009200151544064283,0.00006899703294038773,-0.0013950548600405455
1772733526155097900,4.720097900390625,-0.0015724897384643555,-0.0010205022990703583,-0.00037612946471199393
1772733526165113000,4.730113037109375,0.0008392669260501862,0.001095921965315938,-0.000008989707566797733
1772733526175128000,4.740128173828125,0.00007254304364323616,0.0002676788717508316,-0.0008169927750714123
1772733526185144000,4.75014404296875,0.00042862631380558014,-0.0011769032571464777,0.0008944545406848192
1772733526195159000,4.760158935546875,-0.00253467308357358,0.0004763873293995857,0.0008270766120404005
1772733526205175000,4.770175048828125,-0.0009197290055453777,0.00026201666332781315,0.00022579403594136238
1772733526215190300,4.780190185546875,-0.0007881687488406897,-0.00047834194265305996,-0.0011755613377317786
1772733526225205200,4.790205322265625,-0.0019848353695124388,-0.0009206135291606188,0.0011549262562766671
1772733526235221200,4.80022119140625,-0.0007880108896642923,0.0005105691961944103,0.0010281597496941686
1772733526245236200,4.810236328125,0.0004604160785675049,0.00010459660552442074,-0.0011624547187238932
1772733526255251200,4.820251220703125,0.0005341856740415096,0.000697416253387928,-0.0008221027674153447
1772733526265267200,4.83026708984375,-0.0010197032243013382,0.001131230965256691,0.0015810446348041296
1772733526275282200,4.8402822265625,0.00039896275848150253,-0.0007388407830148935,0.000425232807174325
1772733526285298200,4.850298095703125,-0.0017796452157199383,-0.0006407499313354492,0.00000277708750218153
1772733526295313200,4.860313232421875,0.00184997683390975,0.00014807842671871185,0.00013886461965739727
1772733526305328000,4.870328125,-0.0007503197994083166,0.000556831480935216,-0.0011271379189565778
1772733526315344100,4.88034423828125,-0.0012222318910062313,-0.00029191793873906136,-0.0006621499778702855
1772733526325359000,4.890359130859375,0.0005589202046394348,0.0005322650540620089,-0.00044369412353262305
1772733526335375000,4.900375,0.0003927387297153473,0.0013503881637006998,-0.00019016116857528687
1772733526345390000,4.91039013671875,0.002034489531069994,0.000662998529151082,-0.0005021398537792265
1772733526355405000,4.920405029296875,0.0010227542370557785,-0.0006020031869411469,-0.0004920198698528111
1772733526365420500,4.930420654296875,-0.00005247257649898529,-0.0019657495431602,-0.0005931264022365212
1772733526375435500,4.940435546875,-0.0007108058780431747,0.0005746397655457258,0.0005296622402966022
1772733526385450500,4.950450439453125,-0.0005866547580808401,-0.0010723017621785402,-0.0003368340549059212
1772733526395466500,4.960466552734375,0.0005747498944401741,0.0011623566970229149,-0.0009839822305366397
1772733526405481500,4.9704814453125,0.000656351912766695,0.0006461953744292259,0.00015351118054240942
1772733526415497500,4.98049755859375,-0.0001156982034444809,-0.000828929478302598,0.0005375390173867345
1772733526425512400,4.990512451171875,0.00034553976729512215,0.0003355045337229967,0.0011040456593036652
1772733526435527700,5.000527587890625,0.000006252899765968323,-0.0016352343373000622,0.0011373350862413645
1772733526445543400,5.01054345703125,0.0005531520582735538,0.00044046901166439056,0.0005365232937037945
1772733526455558700,5.02055859375,-0.00008600670844316483,-0.0006431713700294495,0.0008917890954762697
1772733526465574400,5.030574462890625,-0.0012582081835716963,-0.0010677704121917486,-0.00034106808016076684
1772733526475589600,5.040589599609375,-0.001999099738895893,-0.0004770813975483179,0.0004570812452584505
1772733526485604600,5.0506044921875,-0.0005703847855329514,0.0012533310800790787,0.0008030369644984603
1772733526495620600,5.06062060546875,0.002013680525124073,0.0008780916687101126,0.00035695743281394243
1772733526505635600,5.070635498046875,-0.0017498121596872807,0.0016845415811985731,-0.00019280880223959684
1772733526515650600,5.080650634765625,-0.00013780081644654274,0.0001966336276382208,0.0005251793190836906
1772733526525666800,5.090666748046875,0.002137133851647377,0.0003984717186540365,-0.00010286737233400345
1772733526535681800,5.100681884765625,0.00233633816242218,-0.0008643991313874722,0.00011710973922163248
1772733526545697800,5.11069775390625,-0.0002440286334604025,0.00044130580499768257,0.0007173563353717327
1772733526555712800,5.120712646484375,-0.0006344481371343136,0.000819740816950798,0.0008467859588563442
1772733526565727700,5.130727783203125,0.0013384660705924034,-0.0006018178537487984,-0.00003224867396056652
1772733526575743700,5.14074365234375,0.0011009122245013714,0.000850137323141098,-0.0008439801167696714
1772733526585758700,5.1507587890625,-0.0011597538832575083,-0.0016740758437663317,-0.000246490933932364
1772733526595773700,5.160773681640625,-0.0003275158815085888,-0.00046579958871006966,0.0005750942509621382
1772733526605789700,5.170789794921875,-0.00030892249196767807,-0.0002588112838566303,0.00023185648024082184
1772733526615804700,5.1808046875,-0.000867919996380806,0.0008144427556544542,0.00007419742178171873
1772733526625820700,5.190820556640625,-0.0005102986469864845,0.0010160484816879034,0.00032115401700139046
1772733526635835600,5.200835693359375,0.00147189199924469,0.0011382875964045525,-0.0009840612765401602
1772733526645850600,5.2108505859375,-0.000445324694737792,0.0006348672322928905,-0.0012864143354818225
1772733526655866600,5.22086669921875,0.0010074297897517681,0.0009816107340157032,0.00001880084164440632
1772733526665881600,5.230881591796875,-0.0012397326063364744,-0.000017987564206123352,-0.00037169543793424964
1772733526675897600,5.240897705078125,-0.0013718253467231989,-0.0007319811265915632,0.0000618671765550971
1772733526685912600,5.25091259765625,-0.0002635815180838108,-0.0001317181158810854,-0.000025780987925827503
1772733526695927600,5.260927490234375,0.0010488242842257023,0.0008674997370690107,-0.0022263508290052414
1772733526705943600,5.270943603515625,0.0004529193975031376,0.0008979076519608498,0.00022531300783157349
1772733526715958500,5.28095849609375,0.0008997977711260319,-0.00009971251711249352,-0.00014380109496414661
1772733526725973500,5.290973388671875,-0.00007100822404026985,-0.0003578506875783205,-0.0016060417983680964
1772733526735989500,5.300989501953125,-0.0004118930082768202,0.0001044741366058588,0.0016422157641500235
1772733526746004500,5.31100439453125,-0.0013341186568140984,0.00039342395029962063,-0.0004011914134025574
1772733526756020500,5.3210205078125,-0.0003881638403981924,-0.000057981815189123154,-0.0009071920067071915
1772733526766035500,5.331035400390625,-0.0008004605770111084,-0.0002198594156652689,0.0000070194946601986885
1772733526776050700,5.34105078125,0.0005710674449801445,-0.00024675740860402584,0.0004211410414427519
1772733526786066400,5.35106640625,0.0005178763531148434,0.0002521015703678131,0.0004843279020860791
1772733526796081700,5.36108154296875,-0.00039425655268132687,0.0018223014194518328,-0.0006456513656303287
1772733526806096600,5.3710966796875,0.0008833105675876141,-0.000565788708627224,0.00029365753289312124
1772733526816112600,5.381112548828125,0.0005125985480844975,0.0009711217135190964,-0.00024536624550819397
1772733526826127600,5.391127685546875,-0.00018795253708958626,-0.000245572067797184,-0.0008702129125595093
1772733526836143600,5.4011435546875,-0.0006556035950779915,-0.00004903087392449379,-0.0008638213039375842
1772733526846158600,5.41115869140625,0.0007618991658091545,0.0003317731898277998,-0.0012264003744348884
1772733526856173600,5.421173583984375,-0.00025169970467686653,0.0002857004292309284,-0.0006737944786436856
1772733526866189800,5.43118994140625,0.001792720053344965,0.0008855422493070364,-0.0013100375654175878
1772733526876204800,5.441204833984375,-0.0003852131776511669,-0.0008146199397742748,-0.0009949856903403997
1772733526886220800,5.451220703125,-0.0007118394132703543,-0.000984749523922801,-0.0003707539872266352
1772733526896235800,5.46123583984375,0.000976072158664465,-0.00023826537653803825,0.0008745400700718164
1772733526906250800,5.471250732421875,-0.0016272538341581821,0.0012673335149884224,-0.0003418882261030376
1772733526916266800,5.481266845703125,-0.0006205788813531399,0.00017037754878401756,0.0000519932946190238
1772733526926281700,5.49128173828125,0.0002040257677435875,0.0006587945390492678,0.00011059234384447336
1772733526936296700,5.501296630859375,-0.0004758790601044893,-0.000598483718931675,-0.0002752996515482664
1772733526946312700,5.511312744140625,-0.000007416121661663055,-0.00022790348157286644,0.0005077343666926026
1772733526956327700,5.52132763671875,-0.002550468547269702,-0.0005112637300044298,0.00046752067282795906
1772733526966343700,5.53134375,-0.0009688001591712236,0.00036112661473453045,-0.00016441137995570898
1772733526976358700,5.541358642578125,-0.0011959678959101439,-0.0005637893918901682,0.00021269218996167183
1772733526986373600,5.55137353515625,-0.00006878655403852463,0.0009117680601775646,-0.0007008618558757007
1772733526996389600,5.5613896484375,-0.0011843848042190075,0.00044145388528704643,-0.002373060677200556
1772733527006404600,5.571404541015625,0.0009076492860913277,-0.0000574763398617506,0.0015186984091997147
1772733527016419600,5.581419677734375,0.0008365428075194359,-0.0003040849696844816,0.0001876505557447672
1772733527026435600,5.591435546875,-0.0003803749568760395,0.00003703520633280277,-0.00038877956103533506
1772733527036450600,5.601450439453125,-7.543712854385376e-8,0.0014181506121531129,0.0003406602190807462
1772733527046466600,5.611466552734375,-0.0008779366035014391,0.0016289835330098867,-0.0001807892695069313
1772733527056481500,5.6214814453125,-0.002183684380725026,-0.0005071379709988832,0.00007700477726757526
1772733527066496500,5.63149658203125,0.0006254171021282673,-0.0009096169378608465,0.0004543536342680454
1772733527076512500,5.641512451171875,-0.0010534394532442093,-0.0004752553068101406,0.00006127101369202137
1772733527086527500,5.651527587890625,0.0006887996569275856,-0.0008829978760331869,0.0007836909499019384
1772733527096543500,5.66154345703125,0.00045790383592247963,-0.00008751149289309978,0.00037276523653417826
1772733527106558500,5.671558349609375,0.0008492674678564072,0.0005535564851015806,-0.00037941389018669724
1772733527116573700,5.68157373046875,-0.00043810438364744186,0.000721069285646081,-0.0008622449822723866
1772733527126589400,5.69158935546875,-0.0009088150691241026,-0.0014762994833290577,0.0001366159413009882
1772733527136604700,5.701604736328125,0.00008587539196014404,-0.00022035278379917145,-0.0016239999094977975
1772733527146619600,5.71161962890625,0.0019388934597373009,-0.00016768090426921844,-0.0004990699817426503
1772733527156635600,5.7216357421875,0.001160718034952879,-0.00030083884485065937,-0.0005661816103383899
1772733527166650600,5.731650634765625,-0.00034108967520296574,-0.000637878431007266,0.00025567656848579645
1772733527176666600,5.74166650390625,0.00007676007226109505,0.00020900671370327473,-0.0005366138648241758
1772733527186681600,5.751681640625,0.001060393638908863,0.0007852513808757067,-0.00019365106709301472
1772733527196696600,5.761696533203125,0.00036770524457097054,-0.0007292882073670626,-0.00018779211677610874
1772733527206712800,5.771712890625,-0.0006572816055268049,0.0004042463842779398,-0.0003987555392086506
1772733527216727800,5.781727783203125,-0.0005339772906154394,-0.0005997652187943459,-0.00017265311907976866
1772733527226742500,5.791742431640625,-0.00037092692218720913,-0.0002842650283128023,-0.0009460950968787074
1772733527236758800,5.8017587890625,-0.00022498564794659615,0.00008884374983608723,-0.00009148672688752413
1772733527246773800,5.811773681640625,0.00037231622263789177,-0.0015301364473998547,-0.00008165824692696333
1772733527256789800,5.821789794921875,0.0006785797886550426,-0.0006219986826181412,-0.0010553098982200027
1772733527266804700,5.8318046875,0.000647369772195816,0.0007152969483286142,-0.001840374432504177
1772733527276819700,5.84181982421875,-0.0004253513179719448,-0.00040110014379024506,-0.0012432936346158385
1772733527286835700,5.851835693359375,0.00031028781086206436,0.001740701962262392,-0.000573620549403131
1772733527296850700,5.8618505859375,0.000912428367882967,0.00011058105155825615,0.0014439902734011412
1772733527306866700,5.87186669921875,-0.0015166143421083689,-0.0011872595641762018,0.0012582631316035986
1772733527316881700,5.881881591796875,0.0011886246502399445,-0.000053551746532320976,0.00035944627597928047
1772733527326896600,5.891896728515625,0.0003871968947350979,0.0006809828337281942,-0.00022166315466165543
1772733527336912600,5.90191259765625,0.0011014565825462341,-0.0010751052759587765,0.00010590569581836462
1772733527346927600,5.911927734375,0.0008926605805754662,-0.0006027778144925833,0.0005409602308645844
1772733527356942600,5.921942626953125,-0.000008819624781608582,-0.0004850660916417837,0.000328439986333251
1772733527366958800,5.931958740234375,-0.001108504831790924,-0.00005026743747293949,0.00008931488264352083
1772733527376973800,5.941973876953125,0.0014912732876837254,-0.001644435804337263,-0.000038516940549016
1772733527386989800,5.95198974609375,-0.00033820769749581814,0.00004984624683856964,0.0004365841159597039
1772733527397004800,5.9620048828125,0.0004487563855946064,-0.00029636453837156296,0.0007380539318546653
1772733527407019800,5.972019775390625,0.0017420100048184395,0.00014191912487149239,-0.00033267022809013724
1772733527417035800,5.982035888671875,0.0006772782653570175,-0.0003156119491904974,0.0003546916414052248
1772733527427050800,5.99205078125,0.0000619012862443924,0.00014490168541669846,0.00030376738868653774
1772733527437065700,6.002065673828125,-0.00007418636232614517,-0.0002420556265860796,-0.0010965227847918868
1772733527447081700,6.012081787109375,0.0007497877813875675,-0.0017761774361133575,0.0004795509157702327
1772733527457096700,6.0220966796875,0.0004616337828338146,0.0002885714638978243,-0.000876264413818717
1772733527467112700,6.03211279296875,0.0003048088401556015,-0.0014972696080803871,-0.00011855014599859715
1772733527477127700,6.042127685546875,-0.0004206362646073103,-0.00023999111726880074,0.0008412530878558755
1772733527487143000,6.052142822265625,0.001204869244247675,-0.0005948550533503294,0.0016818008152768016
1772733527497158700,6.06215869140625,-0.001467080321162939,-0.0011061818804591894,0.0014042992843315005
1772733527507174000,6.072173828125,-0.0000018808059394359589,-0.00039531663060188293,-0.00027511746156960726
1772733527517188900,6.08218896484375,0.0013320967555046082,-0.0008083728607743979,0.00018960412126034498
1772733527527204900,6.092204833984375,-0.0028949128463864326,0.00006546196527779102,0.0013332109665498137
1772733527537219800,6.1022197265625,0.0017102253623306751,-0.0012466777116060257,0.0009715537307783961
1772733527547235800,6.11223583984375,-0.0017190759535878897,-0.000029314309358596802,-0.0018648968543857336
1772733527557251000,6.1222509765625,-0.0006700567901134491,0.0008788236882537603,0.00039186584763228893
1772733527567266000,6.13226611328125,-0.0008266996592283249,0.0014412712771445513,0.00013621605467051268
1772733527577282000,6.142281982421875,-0.0007079227361828089,0.0000638843048363924,0.000919984420761466
1772733527587297000,6.152297119140625,-0.0008716399315744638,0.0003786291927099228,0.00018206960521638393
1772733527597313000,6.16231298828125,-0.0008450082968920469,-0.0005849024746567011,0.0009096452267840505
1772733527607328000,6.172327880859375,0.000007990747690200806,-0.00040104216895997524,0.0005684942007064819
1772733527617343000,6.182343017578125,0.0003387555480003357,-0.0004931874573230743,0.0009298851946368814
1772733527627359000,6.19235888671875,-0.0017027510330080986,0.0005977770779281855,0.0014536032686010003
1772733527637374000,6.2023740234375,0.00034122494980692863,-0.0005348653066903353,0.0017907595029100776
1772733527647389000,6.212388916015625,0.00029297079890966415,0.0008187254425138235,0.0003967509837821126
1772733527657405000,6.222405029296875,0.0009166831150650978,-0.0005117896944284439,0.00003669166471809149
1772733527667420000,6.232419921875,-0.00042602955363690853,-0.0007860548794269562,0.000018338439986109734
1772733527677436000,6.242435791015625,0.0007324456237256527,-0.000513346865773201,-0.0005624969489872456
1772733527687451000,6.252450927734375,0.0016189231537282467,0.0003033108077943325,-0.00033007474849000573
1772733527697465900,6.2624658203125,-0.000011197291314601898,-0.0027385519351810217,0.000374331371858716
1772733527707481900,6.27248193359375,0.0005256207659840584,-0.0011862616520375013,-0.0016308557242155075
1772733527717496800,6.282496826171875,-0.00028424663469195366,0.0004957907367497683,-0.0019341898150742054
1772733527727511800,6.29251171875,-0.0008065120782703161,0.001937509747222066,-0.00003662053495645523
1772733527737527800,6.30252783203125,-0.0008344752714037895,-0.0007940945215523243,0.0003247704589739442
1772733527747542800,6.312542724609375,-0.0006390842609107494,0.0003059802111238241,-0.00010619056411087513
1772733527757558800,6.322558837890625,-0.002154689282178879,-0.0005265239160507917,0.0004967490676790476
1772733527767573800,6.33257373046875,-0.0007026963867247105,-0.001996919745579362,0.0011163100134581327
1772733527777588700,6.342588623046875,0.0015434138476848602,0.00045798206701874733,-0.00038145179860293865
1772733527787604700,6.352604736328125,-0.00027630291879177094,0.0005669444799423218,-0.0024076025001704693
1772733527797619700,6.36261962890625,0.0007495465688407421,-0.00039019552059471607,0.0011445219861343503
1772733527807635000,6.372635009765625,0.0003415253013372421,-0.0001286054030060768,-0.0006575605366379023
1772733527817650700,6.382650634765625,0.000601982232183218,0.0005563595332205296,-0.000492977153044194
1772733527827666000,6.392666015625,-0.0011431823950260878,-0.0010826829820871353,0.0006015794351696968
1772733527837681700,6.402681640625,0.0013668467290699482,-0.00007947022095322609,-0.0012929934309795499
1772733527847697000,6.41269677734375,0.0007456475868821144,-0.0013497602194547653,-0.0004110004520043731
1772733527857711900,6.4227119140625,0.0020636464469134808,-0.001475461758673191,-0.0007361724274232984
1772733527867728000,6.432727783203125,0.0011956351809203625,-0.00021077506244182587,-0.00019972375594079494
1772733527877742800,6.442742919921875,-0.00020492123439908028,-0.0011884213890880346,0.0009068195940926671
1772733527887757800,6.4527578125,0.0003700545057654381,-0.0005499888211488724,0.0009434981038793921
1772733527897774000,6.462774169921875,0.00023742904886603355,-0.0006123068742454052,0.001260946854017675
1772733527907788800,6.472788818359375,0.0009667915292084217,0.00019678310491144657,-0.00011516455560922623
1772733527917805000,6.48280517578125,-0.001656155800446868,-0.0007672812789678574,-0.00046856608241796494
1772733527927820000,6.492820068359375,0.0002010236494243145,-0.0024784808047115803,-0.0015881360741332173
1772733527937835000,6.5028349609375,-0.00011216429993510246,-0.0007405015639960766,0.0002078997204080224
1772733527947851000,6.51285107421875,-0.00045341765508055687,-0.00025025871582329273,-0.00013139471411705017
1772733527957866000,6.522865966796875,-0.001757035031914711,0.000035232165828347206,-0.0003215444157831371
1772733527967882000,6.532882080078125,0.0013414793647825718,-0.0006196743343025446,0.000018576858565211296
1772733527977897000,6.54289697265625,0.0010530590079724789,-0.0001136737409979105,-0.0007401576731353998
1772733527987912000,6.552911865234375,0.00010776752606034279,-0.0008835038170218468,0.0006196746835485101
1772733527997928000,6.562927978515625,0.00013493187725543976,0.00009467522613704205,0.00003457826096564531
1772733528007943000,6.57294287109375,-0.0019189405720680952,0.0006422481965273619,-0.001823213417083025
1772733528017958000,6.5829580078125,-0.0003977429587393999,-0.0022741795983165503,0.00008201203308999538
1772733528027974000,6.592973876953125,-0.0009173867292702198,-0.0011528288014233112,0.00022446992807090282
1772733528037988900,6.60298876953125,-0.0005796977784484625,-0.000021517742425203323,0.0009105000644922256
1772733528048003800,6.61300390625,-0.0017639750149101019,0.0004283422604203224,0.00010275596287101507
1772733528058019800,6.623019775390625,0.00030796416103839874,0.0014770949492231011,0.0008343263762071729
1772733528068034800,6.633034912109375,0.0014910418540239334,0.0016731859650462866,-0.0003450821968726814
1772733528078050800,6.64305078125,-0.0005835606716573238,0.00010698102414608002,0.001188898691907525
1772733528088065800,6.653065673828125,0.001737204845994711,-0.0005712171550840139,-0.0006417255499400198
1772733528098080800,6.663080810546875,0.0007249373011291027,0.000009618233889341354,0.0005750727141276002
1772733528108096800,6.6730966796875,-0.0004484828095883131,-0.00013905088417232037,-0.001294915098696947
1772733528118111700,6.68311181640625,0.0008082627318799496,0.0010204894933849573,-0.0002453633351251483
1772733528128127700,6.693127685546875,0.00034966133534908295,-0.0008152523078024387,-0.0005547482869587839
1772733528138142700,6.703142822265625,0.001140886452049017,0.00006545498035848141,0.00020877993665635586
1772733528148158000,6.713157958984375,-0.00011539319530129433,-0.0007510695140808821,0.0025535603053867817
1772733528158173700,6.723173583984375,0.001126438844949007,-0.000836024759337306,-0.0007570151356048882
1772733528168189000,6.73318896484375,-0.0013176093343645334,-0.0005765953101217747,0.0008910410106182098
1772733528178204000,6.743203857421875,-0.0017666183412075043,-0.00178140914067626,-0.0005433374899439514
1772733528188220000,6.753219970703125,0.000723239965736866,0.0005644639022648335,0.0018954878905788064
1772733528198235000,6.76323486328125,-0.00141927320510149,-0.0012155927252024412,-0.0007586184656247497
1772733528208251000,6.7732509765625,-0.0011510145850479603,-0.0015288186259567738,-0.000507416611071676
1772733528218265900,6.783265869140625,-0.000017573125660419464,-0.0007178862579166889,-0.00037878594594076276
1772733528228280800,6.79328076171875,0.0013822903856635094,0.00038001849316060543,0.0005746815586462617
1772733528238297000,6.803297119140625,0.0012936070561408997,0.0005105133168399334,-0.0000855160178616643
1772733528248311800,6.813311767578125,-0.0033027520403265953,-0.00032207160256803036,0.0016614169580861926
1772733528258326800,6.823326904296875,-0.000008687842637300491,0.0001983102411031723,0.0012643396621569991
1772733528268343000,6.833343017578125,-0.0013872075360268354,-0.0009318315424025059,0.0007310421206057072
1772733528278358000,6.84335791015625,0.0014980612322688103,-0.0010215798392891884,0.0002926858142018318
1772733528288374000,6.8533740234375,0.001848598476499319,-0.0008056776132434607,0.0010403211927041411
1772733528298389000,6.863388916015625,0.0007790727540850639,0.00036078691482543945,-0.00036050158087164164
1772733528308404000,6.873404052734375,-0.0015608938410878181,-0.0008611406665295362,0.0009665314573794603
1772733528318420000,6.883419921875,-0.0012698103673756123,0.0003708377480506897,-0.00004706764593720436
1772733528328435000,6.89343505859375,-0.0014526266604661942,-0.001629935810342431,-0.0004040736239403486
1772733528338450000,6.903449951171875,-0.00017777131870388985,0.0006643773522228003,0.0004827589727938175
1772733528348466000,6.9134658203125,-0.0017133599612861872,-0.0009559234604239464,0.0006482016760855913
1772733528358481000,6.92348095703125,0.002101884689182043,0.0003327801823616028,-0.0019787405617535114
1772733528368496400,6.933496337890625,0.0002176547423005104,-0.0005421587266027927,0.00028530508279800415
1772733528378511400,6.943511474609375,0.0008328449912369251,0.0008394892793148756,-0.0011586608598008752
1772733528388526300,6.9535263671875,0.0003098505549132824,-0.00038347719237208366,-0.0023865264374762774
1772733528398542300,6.963542236328125,-0.0018031015060842037,-0.0007323513273149729,0.0020391144789755344
1772733528408557300,6.973557373046875,-0.0019450285471975803,0.001437966013327241,-0.0007653376669622958
1772733528418572500,6.983572509765625,-0.0002070495393127203,0.0006001356523483992,0.0008112536743283272
1772733528428588300,6.99358837890625,-0.00019631232134997845,-0.00020612822845578194,-0.0004203164717182517
1772733528438603500,7.003603515625,0.0003669462166726589,-0.000008255243301391602,0.0001932758605107665
1772733528448619300,7.013619384765625,0.000411186832934618,0.0003774224314838648,-0.00036983529571443796
1772733528458634500,7.023634521484375,0.0002085203304886818,-0.0003485551569610834,-0.0011477445950731635
1772733528468649500,7.0336494140625,0.0005450299941003323,-0.0002688311506062746,0.0008870151359587908
1772733528478665500,7.04366552734375,-0.0004480627831071615,-0.0013894892763346434,0.0009599856566637754
1772733528488680400,7.053680419921875,0.0002278401516377926,0.0006224769167602062,0.001004336983896792
1772733528498695400,7.0636953125,0.001679262612015009,0.000016874168068170547,0.0004908796399831772
1772733528508711400,7.07371142578125,-0.0007066265679895878,-0.0031459545716643333,0.0008334174053743482
1772733528518726400,7.083726318359375,-0.0013894611038267612,-0.00012672902084887028,-0.0002845774870365858
1772733528528742400,7.093742431640625,-0.000689860200509429,0.00035310909152030945,0.001394593738950789
1772733528538757400,7.10375732421875,0.0002022986300289631,0.0012170386034995317,-0.0004722820594906807
1772733528548772400,7.1137724609375,-0.0003903431352227926,-0.0009834002703428268,0.00039010820910334587
1772733528558788400,7.123788330078125,-0.000290474621579051,0.0016544607933610678,-0.0005744886584579945
1772733528568803300,7.13380322265625,-0.00010829279199242592,-0.00012520398013293743,0.0001881247153505683
1772733528578818300,7.143818359375,0.001567102037370205,-0.006643290631473064,0.00017800473142415285
1772733528588834300,7.153834228515625,-0.001786189852282405,-0.0008581180591136217,0.0022638351656496525
1772733528598849300,7.163849365234375,0.0013771126978099346,0.0028221041429787874,0.00022598437499254942
1772733528608865300,7.173865234375,0.0006643119268119335,-0.003944294061511755,-0.00019565329421311617
1772733528618880300,7.18388037109375,0.00042942119762301445,0.00004565366543829441,0.00005441752728074789
1772733528628895200,7.193895263671875,-0.00151081383228302,-0.0005901551339775324,0.00005575711838901043
1772733528638911200,7.2039111328125,-0.0005334338638931513,-0.003685813629999757,-0.0007613007328473032
1772733528648926200,7.21392626953125,-0.003026561578735709,0.003891720436513424,-0.00032128154998645186
1772733528658941200,7.223941162109375,-0.0009439694695174694,-0.00019569904543459415,0.0005250710528343916
1772733528668957200,7.233957275390625,0.0006157946772873402,-0.00008920766413211823,0.0013495569583028555
1772733528678972200,7.24397216796875,0.0008530821651220322,-0.0020831164438277483,0.00018841878045350313
1772733528688988200,7.25398828125,0.0004562782123684883,-0.0016925539821386337,0.0015745190903544426
1772733528699003100,7.264003173828125,0.000876525416970253,-0.0018574036657810211,0.000954002607613802
1772733528709018000,7.27401806640625,-0.0016683118883520365,0.0009642832446843386,0.00027791294269263744
1772733528719034400,7.284034423828125,0.0005061589181423187,-0.000029608607292175293,0.0002832392929121852
1772733528729049300,7.29404931640625,-0.000264554750174284,0.00013111275620758533,0.0009002421284094453
1772733528739065300,7.3040654296875,-0.0025929564144462347,-0.000028676819056272507,-0.0008111052447929978
1772733528749080300,7.314080322265625,-0.00043606176041066647,-0.0009295300114899874,0.0002270034747198224
1772733528759095600,7.324095458984375,0.000022800639271736145,-0.0009060937445610762,0.0010238211834803224
1772733528769111300,7.334111328125,0.002186535857617855,0.0005807932466268539,-0.00008178048301488161
1772733528779126500,7.34412646484375,-0.0015288402792066336,0.0002098148688673973,0.0007978614885360003
1772733528789141500,7.3541416015625,0.0010876478627324104,0.00029160548001527786,0.00033826008439064026
1772733528799157500,7.364157470703125,0.000691103283315897,0.00014912639744579792,0.0009313459740951657
1772733528809172500,7.37417236328125,-0.0001307378988713026,-0.0020334806758910418,-0.0004892112337984145
1772733528819187500,7.3841875,-0.00026362971402704716,0.000556976068764925,0.0006088101072236896
1772733528829203500,7.394203369140625,0.0013005738146603107,0.0010149762965738773,0.0003024480538442731
1772733528839218400,7.404218505859375,0.002280617132782936,0.00444432906806469,-0.0010001041227951646
1772733528849234400,7.414234375,0.0007864870131015778,-0.0005314808804541826,0.00019435235299170017
1772733528859249400,7.42424951171875,0.0009673158638179302,0.003013186389580369,0.00009954371489584446
1772733528869264400,7.434264404296875,-0.0004804106429219246,0.0019185359124094248,-0.0005486357258632779
1772733528879280400,7.4442802734375,-0.000028738286346197128,0.0009270410519093275,0.0012551231775432825
1772733528889295400,7.45429541015625,0.0003301454707980156,0.00020528864115476608,0.0009233789751306176
1772733528899311400,7.464311279296875,0.00025531090795993805,0.0022380794398486614,-0.0010936993639916182
1772733528909326300,7.474326416015625,-0.0010447411332279444,0.0007480259519070387,0.0008009257726371288
1772733528919341300,7.48434130859375,-0.00012382003478705883,-0.00012202886864542961,-0.0004531566519290209
1772733528929357300,7.494357421875,0.0014387289993464947,-0.0013313402887433767,0.0012230511056259274
1772733528939372300,7.504372314453125,-0.00128275528550148,-0.0017582450527697802,-0.0009247882408089936
1772733528949387300,7.51438720703125,0.001152710523456335,-0.00011940277181565762,-0.0005954849766567349
1772733528959403300,7.5244033203125,-0.00037913955748081207,-0.00036201649345457554,0.0006809680489823222
1772733528969418200,7.534418212890625,-0.00045558298006653786,0.0025075916200876236,0.00004801084287464619
