time,seconds_elapsed,z,y,x
1772619550624450800,0.068450927734375,0.2574801388412714,-0.1645090096771717,-0.09982589042969048
1772619550634482000,0.07848193359375,0.3805483001053333,-0.18685703508555887,-0.11282481700610368
1772619550644512800,0.0885126953125,0.4253811290442943,-0.17810031265616416,-0.06396748179141432
1772619550654543400,0.09854345703125,0.38581484233140945,-0.16451222454756498,0.042545192925818265
1772619550664574500,0.108574462890625,0.2565770525217056,-0.1591898604810238,0.15748225284554063
1772619550674605300,0.118605224609375,0.08068506356477737,-0.11767331648319959,0.17560261408891528
1772619550684636400,0.128636474609375,-0.12197685889601707,-0.08727467108815908,0.14718049293123184
1772619550694668300,0.138668212890625,-0.2808072384148836,-0.059982759536802766,0.1021423141459003
1772619550704699400,0.148699462890625,-0.3236433405786753,-0.014456103114783764,0.09685655576270073
1772619550714730200,0.158730224609375,-0.31455402519404885,0.013513561567664145,0.12846048529427498
1772619550724761300,0.16876123046875,-0.23782675934433936,0.037943069425225254,0.1706061392421834
1772619550734792200,0.178792236328125,-0.10105565142035483,0.04624737191200256,0.1774892132868059
1772619550744823300,0.1888232421875,0.0050029228538274765,0.04046703494489193,0.16245370284887029
1772619550754854400,0.1988544921875,0.004523614904284477,0.018817805455625055,0.16360563109666107
1772619550764885500,0.208885498046875,-0.02577273916006088,0.012563421235978603,0.16135807136557995
1772619550774916400,0.218916259765625,-0.03415770566761493,-0.006682546503841876,0.15404212232902645
1772619550784947500,0.228947509765625,-0.04582943876087665,-0.03666501231342554,0.14183423653244973
1772619550794979300,0.238979248046875,-0.030611995884776113,-0.08449585402458906,0.11957736000623553
1772619550805010400,0.249010498046875,0.04854746554791927,-0.12414514284580945,0.10098598371762782
1772619550815041300,0.259041259765625,0.22097733135223388,-0.1295312197983265,0.09796356715653091
1772619550825072400,0.269072265625,0.473187420836091,-0.13681611610949038,0.11414817456435411
1772619550835103200,0.279103271484375,0.6573153232187032,-0.20465368079990148,0.15237780584599822
1772619550845134300,0.28913427734375,0.7927268332272768,-0.21998335187882184,0.16057495816387235
1772619550855165200,0.299165283203125,0.828868406188488,-0.23241847056001425,0.14942637216188012
1772619550865196300,0.3091962890625,0.7579045261710882,-0.2612222479790449,0.13022811602130532
1772619550875227100,0.31922705078125,0.6999532724618911,-0.23496903182566165,0.10755480418130754
1772619550885259300,0.32925927734375,0.6956377473503351,-0.18172873228639363,0.07220434506516903
1772619550895290400,0.339290283203125,0.7601520128369331,-0.1427259246751666,0.09116214351337402
1772619550905321500,0.349321533203125,0.8994576076745986,-0.09358604619204998,0.15317403425760567
1772619550915352300,0.359352294921875,1.1002607505261897,-0.053583413888514037,0.1651454809498042
1772619550925383400,0.369383544921875,1.3725386455267667,0.003509761686623096,0.173885252244398
1772619550935414300,0.379414306640625,1.6073597933143375,0.04353080642968416,0.1938896371360868
1772619550945445400,0.3894453125,1.7226543979674576,0.06580255173146725,0.1728389945944771
1772619550955476200,0.399476318359375,1.7264853544324636,0.08736702554672957,0.114895339669846
1772619550965507300,0.40950732421875,1.636520421347022,0.15455372511297463,0.0008619140589609742
1772619550975539500,0.41953955078125,1.5780425134152174,0.2692895268395543,-0.1277748045850545
1772619550985570300,0.4295703125,1.6962638191699981,0.4022364003002643,-0.21355200365707278
1772619550995601400,0.439601318359375,1.928619453626871,0.531157379245758,-0.2982790360890329
1772619551005632500,0.449632568359375,2.2454379166215657,0.6557096415877341,-0.3970163275644183
1772619551015663400,0.459663330078125,2.558696056786179,0.7535530529633164,-0.4446376912433654
1772619551025694500,0.469694580078125,2.7929589861690998,0.8660252936720848,-0.4908605863012373
1772619551035725300,0.479725341796875,2.895313445228338,0.9596934651896357,-0.4874878949977457
1772619551045756400,0.48975634765625,2.855835421320796,0.9856652340531349,-0.43057000292427833
1772619551055787300,0.499787353515625,2.713278131210804,1.0136799069210887,-0.4070022995278239
1772619551065818400,0.509818359375,2.582591311636567,0.9613520460516214,-0.36517749329842625
1772619551075850200,0.519850341796875,2.3288731556773183,0.7352303375482558,-0.23610439253114163
1772619551085881300,0.52988134765625,1.7427292177468536,0.28900165078639983,0.0076331252269446846
1772619551095912200,0.539912109375,0.4061766623586416,-0.29998803196400403,0.3255137375604361
1772619551105943600,0.549943603515625,-1.9755320114493369,-0.7900959002017974,0.7526463864471763
1772619551115974400,0.559974365234375,-5.285249264633655,-0.9712328040748834,0.9912886999581009
1772619551126005500,0.570005615234375,-8.823421053183079,-0.6359963485971093,1.007913744609803
1772619551136036400,0.580036376953125,-12.047067458111046,-0.1724614299863577,0.9850748669445514
1772619551146067500,0.5900673828125,-14.130737188196182,0.22060849803984164,0.9478943063244223
1772619551156098300,0.600098388671875,-14.441632690882681,0.4322857938662171,1.0267338881529866
1772619551166130400,0.61013037109375,-13.180489304482936,0.2823120900198817,1.1579190126381813
1772619551176161300,0.620161376953125,-10.78059206303358,-0.30944091996401546,1.237610242860019
1772619551186192400,0.6301923828125,-7.777525514572859,-1.2920900210663675,1.3793063860960304
1772619551196223200,0.64022314453125,-4.8576703332841396,-2.4264354120239613,1.4590173439316452
1772619551206254300,0.65025439453125,-2.607487267962098,-3.5386543113693594,1.2019361412800849
1772619551216285200,0.66028515625,-1.2480226235419511,-4.344284757572412,0.7032889927558601
1772619551226316300,0.67031640625,-0.8957949935138225,-4.582050726640224,0.19260807289294898
1772619551236347400,0.680347412109375,-1.3193009763360022,-4.175236935421824,-0.17863069320581854
1772619551246378500,0.69037841796875,-1.8251158245325088,-3.2200892969682813,-0.3044968876905739
1772619551256409300,0.700409423828125,-1.9609516974329948,-2.0456170628055927,-0.21688903912529348
1772619551266441500,0.71044140625,-1.7723773370355367,-1.0737417230434716,-0.1379826756708324
1772619551276472300,0.720472412109375,-1.4190689260333775,-0.2904820986025035,-0.007680142706446349
1772619551286503400,0.73050341796875,-0.8466776191234588,0.3602443477451801,0.16683460308052597
1772619551296534300,0.7405341796875,0.012335165438055991,0.826632317699492,0.36259255483914166
1772619551306565400,0.7505654296875,0.9739794724345207,1.1741278046391903,0.5066530891189351
1772619551316596200,0.76059619140625,1.8660469698578117,1.3505777197398245,0.6324296690914779
1772619551326627300,0.77062744140625,2.540018244323134,1.463449627290666,0.6860827141501009
1772619551336658200,0.780658203125,3.013678543367982,1.5189882669001817,0.6851485751051455
1772619551346689300,0.790689208984375,3.391106665626168,1.5213260621979832,0.5735967006443068
1772619551356721400,0.800721435546875,3.804056183120608,1.401084064270556,0.4900650520093739
1772619551366752500,0.81075244140625,4.314936498013139,1.249912090550363,0.4534713513664901
1772619551376783400,0.820783447265625,4.984472420379519,1.1292949026349932,0.317660393711552
1772619551386814500,0.830814453125,5.818150272676348,1.0440447961769999,0.06297384937787429
1772619551396845300,0.84084521484375,6.671085783150792,0.8719576063305139,-0.19601868505403397
1772619551406876400,0.85087646484375,7.346065942397713,0.6428881539374589,-0.31155447805188596
1772619551416907300,0.8609072265625,7.694661937925219,0.4729153258964419,-0.4082849597495049
1772619551426938400,0.8709384765625,7.765303746381401,0.42289077353328464,-0.5735914764799177
1772619551436969200,0.88096923828125,7.606047250404954,0.470173625972867,-0.7247110624257475
1772619551447001300,0.89100146484375,7.2296806198984385,0.558310174587369,-0.7823560266647488
1772619551457032400,0.901032470703125,6.7362780940294265,0.6978368648298084,-0.791157318888232
1772619551467063600,0.9110634765625,6.2713353544473645,0.9377741865873336,-0.8145563146542757
1772619551477094400,0.921094482421875,5.944340949875116,1.2283875103540718,-0.879211376851052
1772619551487125500,0.93112548828125,5.807027990159392,1.5367841819621622,-0.892423032862693
1772619551497156400,0.94115625,5.855282610240578,1.8357348337024448,-0.832134860638529
1772619551507187500,0.9511875,5.816495491206646,2.069352597049624,-0.7591993882872163
1772619551517218300,0.96121826171875,5.544281893613934,2.190442005586624,-0.5921973927505314
1772619551527249400,0.97124951171875,5.053602655228972,2.113381269998848,-0.3071749477934092
1772619551537280300,0.9812802734375,4.217558658322692,1.8705584559328854,0.07579181163050235
1772619551547312400,0.9913125,3.0205735635787248,1.4719471142619847,0.6247906255804002
1772619551557343200,1.00134326171875,1.659723017758131,0.9956798475891351,1.0463701703846453
1772619551567374300,1.011374267578125,0.16442834565639494,0.48423663811683654,1.0187883359760046
1772619551577405200,1.0214052734375,-1.437854290524125,-0.23184593136906623,0.6745785196434706
1772619551587436500,1.0314365234375,-2.6479472886443136,-0.9807809691429138,0.4977992264579981
1772619551597467400,1.04146728515625,-3.249703806248307,-1.5955699867993591,0.4356854462418705
1772619551607498500,1.05149853515625,-3.184471163359284,-1.9599895744025706,0.15737565066590906
1772619551617529300,1.061529296875,-2.2702695755392313,-2.0751123296201226,-0.735671213183552
1772619551627560400,1.071560546875,-0.9432949958354234,-2.6098326620444654,-1.9397977041147647
1772619551637592300,1.08159228515625,-0.805108175894618,-3.4243814509794115,-2.7076313574954867
1772619551647624000,1.0916240234375,-3.0033529641866683,-3.2854455662369726,-2.9898604454070328
1772619551657655000,1.101655029296875,-7.2677470234423875,-1.7982440380893647,-2.5755311639919873
1772619551667686000,1.111685791015625,-11.868064643657206,0.1534308585628867,-1.6398749924719334
1772619551677717000,1.121717041015625,-14.963248334801197,1.8238421513348817,0.12529672403372824
1772619551687747800,1.131747802734375,-15.47684433839321,2.9268793808370828,2.1844860197916627
1772619551697779000,1.141779052734375,-13.721899197673796,3.3398803362578153,3.4177851214542985
1772619551707810000,1.15181005859375,-10.363813927161694,3.1942987298905847,3.3643715111747383
1772619551717841000,1.1618408203125,-6.293669351330399,2.1612131346233188,2.401972878679633
1772619551727872800,1.171872802734375,-2.6202175701975823,0.5854857662826776,1.0695338960900902
1772619551737904000,1.181904052734375,-0.10587795701026916,-0.7681707763805985,-0.45338608423583204
1772619551747935000,1.19193505859375,1.126808565711975,-1.5629405136123298,-1.77134507137835
1772619551757966000,1.201966064453125,1.7265391304463147,-1.8624751027204096,-2.471697572290897
1772619551767997000,1.211996826171875,1.9927058490902185,-1.7938240296900272,-2.4643624070972203
1772619551778028000,1.222028076171875,2.181613386964798,-1.517919176363945,-2.1164172766938805
1772619551788059000,1.232058837890625,2.49364403116107,-1.228909196140617,-1.7231074024319648
1772619551798090000,1.242090087890625,2.947658549493551,-0.9949508026622235,-1.3466466639012098
1772619551808121000,1.25212109375,3.440769983461499,-0.8460390289589762,-0.97197120135203
1772619551818152000,1.26215185546875,3.783345403525233,-0.7185754092149436,-0.5737474707592278
1772619551828183800,1.272183837890625,3.9095068546295164,-0.6304181100733578,-0.2316791234347969
1772619551838215000,1.28221484375,3.8761242249876258,-0.4658576624698937,-0.04146970918141305
1772619551848245800,1.292245849609375,3.6747862446069717,-0.3010086071833968,0.07787789718955755
1772619551858276900,1.30227685546875,3.530359068971872,-0.16923033911064267,0.11467713034190237
1772619551868308000,1.312307861328125,3.409221583509445,-0.06271817585006356,0.06331767611317336
1772619551878339000,1.322339111328125,3.244462982985377,-0.01255699149519205,-0.009361556454747915
1772619551888370000,1.332369873046875,3.1012539509683847,0.01298135438710451,-0.10515073871426284
1772619551898401000,1.342401123046875,2.998803045797348,0.04299202337786555,-0.24673231565989553
1772619551908432100,1.35243212890625,2.8312743960380553,0.028578444230556485,-0.5075082811761648
1772619551918464000,1.362464111328125,2.671892812377214,-0.0008798515744507312,-0.7982361712332815
1772619551928494800,1.372494873046875,2.4927070425719022,0.017952128536999224,-1.0502142785921693
1772619551938526000,1.38252587890625,2.246560198649764,0.07232420858517288,-1.2558400192946195
1772619551948556800,1.392556884765625,1.8382985467106103,0.24426409891545772,-1.3276008949086069
1772619551958588000,1.402587890625,1.3551941274940966,0.4772850654132664,-1.245881812120974
1772619551968618800,1.41261865234375,0.9100760323226451,0.8411600247457623,-1.044368255977705
1772619551978649900,1.42264990234375,0.7899591220796108,1.2178539875105023,-0.8698812384478747
1772619551988681000,1.432680908203125,1.1159060634255409,1.4253238947749136,-0.7664503092635423
1772619551998712000,1.442712158203125,1.8416688999265431,1.4839740905337035,-0.7150202009513974
1772619552008743200,1.4527431640625,2.7597639880537983,1.4528586751714347,-0.6951635539673269
1772619552018775000,1.462775146484375,3.598272329246998,1.2590800241291522,-0.6565346942350268
1772619552028806000,1.472805908203125,4.0928386381983755,0.9532217849574982,-0.674852441214025
1772619552038837000,1.4828369140625,4.16319753805995,0.5745901321284472,-0.7458736043766141
1772619552048867800,1.492867919921875,3.763699622812867,0.09358063936457037,-0.8562405433692037
1772619552058899000,1.50289892578125,3.017923341330886,-0.35246363074108955,-0.9166524881035089
1772619552068929800,1.5129296875,2.0418056878238917,-0.7079482167385518,-0.8550592246301472
1772619552078961000,1.5229609375,0.7271458152920007,-1.0211939358130098,-0.5184688703253865
1772619552088992000,1.532991943359375,-0.8495598965615033,-1.1837021270617842,-0.06562836420834064
1772619552099022800,1.54302294921875,-2.8042636395156384,-1.2885181539289652,0.44696386916860936
1772619552109055000,1.553054931640625,-5.082319631147384,-1.3796592911869288,0.8140943231657147
1772619552119086000,1.563086181640625,-7.328900872585177,-1.4548722069509326,1.0641048567786813
1772619552129117000,1.573116943359375,-9.131603205257653,-1.4642135974004864,1.331032330662012
1772619552139148000,1.58314794921875,-10.338031835651398,-1.446730986071378,1.5928703724518418
1772619552149179000,1.593178955078125,-10.811412733232974,-1.3741571866393087,1.785213437733054
1772619552159210000,1.6032099609375,-10.536736544919014,-1.4370933891542255,2.0029981105238197
1772619552169240800,1.61324072265625,-9.877250891923904,-1.784211128822714,1.9954843738928436
1772619552179272000,1.62327197265625,-9.168784642660617,-2.442733197482675,1.4724045026406645
1772619552189303000,1.633302978515625,-8.990014467918872,-3.308425167547166,0.7635205394219606
1772619552199334000,1.643333984375,-9.746228556784986,-3.875185190571844,0.33216150501184166
1772619552209365800,1.65336572265625,-11.338047082096338,-3.6632425218075513,0.32374533964842556
1772619552219397000,1.663397216796875,-12.68153557422757,-2.797833314207196,0.5163224694138393
1772619552229428000,1.673427978515625,-12.88221129130721,-1.692219950606674,0.6896794234678149
1772619552239459000,1.683458984375,-11.72833117879629,-0.6642243719547987,0.6823770645651966
1772619552249490000,1.693489990234375,-9.302925402081012,0.1352000592149794,0.4945822737054899
1772619552259521000,1.70352099609375,-6.026105040848255,0.5806245899870991,0.49015112285763024
1772619552269551900,1.7135517578125,-2.5918033766180275,0.779914551796764,0.6026232174359262
1772619552279583000,1.7235830078125,0.36679274647533894,0.7979299548283219,0.8216513874817639
1772619552289614000,1.733614013671875,2.674110488426685,0.7956989809058607,1.0621395480550826
1772619552299646000,1.74364599609375,4.269842387789487,0.947692500142008,1.0505749285981059
1772619552309676800,1.7536767578125,5.232198057925701,1.189788168977201,0.9059216891221702
1772619552319708000,1.7637080078125,5.732699602144956,1.4747157021924853,0.6033891603071242
1772619552329738800,1.77373876953125,6.004096038135886,1.8934530093081294,0.29239341211654246
1772619552339769900,1.783769775390625,6.1548588465332985,2.241824986821413,0.08532671535816043
1772619552349801000,1.793801025390625,6.317146673029661,2.4365493942812084,-0.10321626352034509
1772619552359832000,1.80383203125,6.533154399275779,2.6086019512057304,-0.29519887972502035
1772619552369863000,1.81386279296875,6.922615489155054,2.7784888545289634,-0.4604986196547746
1772619552379894000,1.82389404296875,7.424779413628578,2.8131220687538385,-0.6084174367979168
1772619552389925000,1.833925048828125,7.90242206030786,2.7525723229840398,-0.6615653818786144
1772619552399957000,1.84395703125,8.119276758772134,2.5072724512800573,-0.7585079719569534
1772619552409987800,1.85398779296875,8.154793477833271,2.152140331982076,-0.9663725045621394
1772619552420019000,1.86401904296875,8.262869237148761,1.7499655987411737,-0.99749135399051
1772619552430049800,1.8740498046875,8.33547562367618,1.3511471901908516,-0.8034564631648361
1772619552440081000,1.884080810546875,8.224195515361428,1.0269409550324082,-0.5802400476489216
1772619552450111700,1.89411181640625,7.881558135977387,0.9082207598447799,-0.44511137316972016
1772619552460142800,1.904142822265625,7.388378312948346,1.019828200417757,-0.3839777630973607
1772619552470174000,1.914174072265625,6.756818777754902,1.2480758150339126,-0.3385459453519434
1772619552480205000,1.924205078125,6.135640351322293,1.4653396788209676,-0.3702966629430651
1772619552490236200,1.934236083984375,5.608765179440379,1.6653353046819566,-0.40059455137737093
1772619552500268000,1.94426806640625,5.20355356272161,1.798026157554984,-0.3665764733761549
1772619552510299000,1.954298828125,4.8322401239514345,1.799057546429336,-0.24266141295917332
1772619552520330000,1.964330078125,4.370853615546226,1.6511466203317045,-0.18590441053584217
1772619552530360800,1.97436083984375,3.6224651057392356,1.4184706678792833,-0.1811005904506892
1772619552540392000,1.984391845703125,2.472432316306233,1.3237892276659606,-0.03569624034650624
1772619552550422800,1.9944228515625,1.0959019707947968,1.3727081568747759,0.20361505846716463
1772619552560454000,2.004453857421875,-0.03706745563447475,1.4505430917054414,0.5764622826758772
1772619552570485000,2.014485107421875,-0.7458078456640244,1.4688237215444444,1.1740379343986511
1772619552580515800,2.024515869140625,-0.9343564870983362,1.2321911404207349,1.8523527910262345
1772619552590548000,2.0345478515625,-0.7154132919222116,0.569828470684588,2.4360288775384427
1772619552600579000,2.0445791015625,-0.4472773190319538,-0.33861353069543837,2.456434536707401
1772619552610610000,2.05460986328125,-0.17889760051369666,-1.0618804587274788,1.4842711737841368
1772619552620641000,2.06464111328125,0.019809446841478347,-1.4434873279750347,-0.16030637035556136
1772619552630672000,2.074671875,-0.19023440256416796,-1.9944705206751823,-1.4661623933807015
1772619552640703000,2.084702880859375,-1.2260761646717786,-2.7039687433347104,-1.9556899775125085
1772619552650733000,2.094733154296875,-2.9432752198427914,-3.1376497909516092,-1.86669856563434
1772619552660764000,2.104763916015625,-4.865509356346726,-2.7751126560941337,-1.3313602474421262
1772619552670795000,2.114794921875,-6.252639421805739,-1.7830895774468778,-0.6173823220852762
1772619552680825900,2.124825927734375,-6.87808602707684,-0.6761195385403931,0.17284012710563837
1772619552690858000,2.13485791015625,-6.828837719783187,0.2098249459579587,0.867658082505688
1772619552700888800,2.144888916015625,-6.342728273531794,0.8032156401462852,1.2762592685975134
1772619552710920000,2.154919921875,-5.842353570562601,1.1300827650770544,1.335147803156823
1772619552720950800,2.16495068359375,-5.728529038462042,1.0689894139498473,1.2533467411741614
1772619552730982100,2.174982177734375,-5.79559824912846,0.8254029220350086,1.0786517069168389
1772619552741013000,2.185012939453125,-5.672770910882949,0.5887875843070447,0.7590782461255788
1772619552751044000,2.195044189453125,-5.150353302931785,0.29410891079753637,0.3942333457823842
1772619552761075000,2.205074951171875,-4.274497520118952,-0.025926614547520873,0.07052578086107969
1772619552771106000,2.21510595703125,-3.281429316332936,-0.2980290068507194,-0.026532325355708597
1772619552781138000,2.225137939453125,-2.4071213474839923,-0.4953317403659224,-0.08036744898296892
1772619552791169000,2.2351689453125,-1.6934481772273777,-0.6350421166121959,-0.11334953499995172
1772619552801199900,2.245199951171875,-1.199178220874071,-0.6605076895192266,-0.14183913190327585
1772619552811231000,2.25523095703125,-0.8791144923478365,-0.6373394337691366,-0.2213865697402507
1772619552821261800,2.26526171875,-0.5429243894070387,-0.591246229505539,-0.2679226954657584
1772619552831293000,2.27529296875,-0.13726619796454906,-0.5013054079480469,-0.2648569512195885
1772619552841323800,2.28532373046875,0.35998657359182834,-0.45696328513547774,-0.34227716776952144
1772619552851355000,2.29535498046875,0.9581284078299999,-0.46498131802678105,-0.3341400385431945
1772619552861386000,2.305385986328125,1.448732827413082,-0.4493343976922333,-0.23460034464374183
1772619552871418000,2.315418212890625,1.8118518538117407,-0.4199015285894274,-0.18157609900794922
1772619552881449000,2.325448974609375,2.017940243589878,-0.4071102899469435,-0.07743826366327702
1772619552891480000,2.33547998046875,2.005229815098643,-0.37494463487938046,-0.008723477746918796
1772619552901511000,2.345510986328125,1.7565677734851837,-0.3265181653626263,-0.012827113673463463
1772619552911542000,2.3555419921875,1.4697674321353436,-0.2929702621564269,-0.07165120469443499
1772619552921572900,2.36557275390625,1.3133283316671847,-0.3275774651572108,-0.19285919810980556
1772619552931604000,2.37560400390625,1.3362252231299876,-0.42990167520865796,-0.3544576541025191
1772619552941634800,2.385634765625,1.436789291641116,-0.5488824210286141,-0.6009061113197356
1772619552951666000,2.395666015625,1.6829185999065637,-0.6117161860823631,-0.9061744217742234
1772619552961696800,2.40569677734375,2.023479757538438,-0.6498433799028396,-1.1194202820915728
1772619552971729200,2.415729248046875,2.2797043433606623,-0.6633049190223217,-1.1773295963551849
1772619552981760000,2.425760009765625,2.406355623808503,-0.5710857772693038,-1.1666650675430894
1772619552991791000,2.435791015625,2.4637539198100566,-0.4162153874225914,-1.1403742227930576
1772619553001822000,2.445822021484375,2.492777769720554,-0.24334669180959462,-1.0915183488830924
1772619553011853000,2.45585302734375,2.485143329319358,-0.06361819342970848,-1.0745100770674645
1772619553021884000,2.4658837890625,2.473243632689118,0.14662746215835212,-1.0549021441474555
1772619553031915000,2.4759150390625,2.3704554583877324,0.3072862261481583,-1.0803504736587404
1772619553041945900,2.48594580078125,2.130726664814353,0.4478139101266861,-1.118921319593489
1772619553051977000,2.49597705078125,1.7756418917894363,0.6008562077634036,-1.132889127734676
1772619553062008800,2.5060087890625,1.268866089606285,0.7946459647215902,-1.1130318962287158
1772619553072040000,2.5160400390625,0.5864917284548282,0.8902429123446345,-0.9882030819676816
1772619553082071000,2.526071044921875,-0.13067045296132565,0.9459306050360202,-0.8336458497233689
1772619553092102100,2.53610205078125,-0.8314344572842121,0.9565117664135993,-0.7038142587389796
1772619553102133000,2.546133056640625,-1.464531285047531,0.7004252738878131,-0.5001608410228043
1772619553112164000,2.5561640625,-1.9518606284826994,0.12804521902427077,-0.27649507430419323
1772619553122195000,2.56619482421875,-2.423280455124378,-0.46176995476484295,-0.07727686255648732
1772619553132226000,2.57622607421875,-3.1004730297237635,-0.9787982708930969,-0.003955167366564274
1772619553142257000,2.5862568359375,-3.90662808432281,-1.4226825864858925,0.02265110000818968
1772619553152288000,2.5962880859375,-4.757531212186813,-1.7203313618473708,-0.06584244535043836
1772619553162320000,2.60631982421875,-5.42658958016932,-1.9423320448979735,-0.23787045235559343
1772619553172351000,2.61635107421875,-5.814653662732243,-1.964805304121226,-0.5180746103107929
1772619553182381800,2.6263818359375,-5.679255596727132,-1.7528357473500071,-0.9745786073714494
1772619553192413000,2.636412841796875,-5.118016967472434,-1.6158724778547882,-1.1386170769274233
1772619553202443800,2.64644384765625,-4.949678170374035,-1.8576722324833272,-0.7319318805247544
1772619553212475100,2.65647509765625,-5.756296750831604,-2.3515910373114046,0.02387209317050874
1772619553222506000,2.666506103515625,-7.220676644709706,-2.3135690574310717,0.6343518693257123
1772619553232537000,2.676537109375,-8.476829383215307,-1.635566627753526,1.093156471478939
1772619553242568000,2.68656787109375,-8.962745352721214,-0.7090949025556444,1.359173844780028
1772619553252600000,2.69660009765625,-8.405030221417546,0.23787615144401789,1.4111802186101674
1772619553262631000,2.706630859375,-6.89500092152059,0.9332578782066703,1.2327008435085416
1772619553272662000,2.716662109375,-4.725419917654991,1.244612961228937,0.840095610384643
1772619553282692900,2.72669287109375,-2.468270520451665,1.2119526545122266,0.37988450243435795
1772619553292724000,2.736723876953125,-0.5339093083024025,0.8884726878017186,0.12518150015622376
1772619553302754800,2.7467548828125,0.8621335469305514,0.5391325959086418,0.021865539121069012
1772619553312786000,2.756785888671875,1.6400100170284508,0.33735812380686403,-0.007917422061040997
1772619553322816800,2.766816650390625,2.024461754313111,0.32249417054355145,0.034201910135522484
1772619553332848000,2.77684814453125,2.2573633322149513,0.45700025614500045,0.22131993424482643
1772619553342879000,2.78687890625,2.6135265481263397,0.6279948284491896,0.516856466692686
1772619553352911000,2.7969111328125,3.10978563247025,0.852907307293266,0.8435961658515035
1772619553362942000,2.80694189453125,3.738527772155404,1.0841032503210009,1.1054993818320333
1772619553372973000,2.81697314453125,4.5053532714068885,1.328120388738066,1.2000866409558801
1772619553383004000,2.82700390625,5.3998985571205615,1.5389875372253357,1.1635500042624771
1772619553393035000,2.837034912109375,6.317406200748682,1.6386029267095028,1.0710260343439877
1772619553403065900,2.84706591796875,6.975340532648563,1.5189961579456925,1.0274391868781299
1772619553413097000,2.857096923828125,7.415229494994878,1.2168722829967737,0.987681615376845
1772619553423127800,2.8671279296875,7.598697472164035,0.9940364642962812,0.9850542625479399
1772619553433159000,2.877158935546875,7.508000133150816,0.8308766772709787,0.9487005812060088
1772619553443191000,2.88719091796875,7.2981667116254565,0.8367157586880027,0.8188779041804373
1772619553453222100,2.89722216796875,6.94532065743804,0.9419495725758373,0.73408043686077
1772619553463253000,2.9072529296875,6.426445836660266,1.0071934675112366,0.6324317879833281
1772619553473284000,2.9172841796875,5.807744029474258,1.0823040919445455,0.4811418869718909
1772619553483315000,2.92731494140625,5.198026908254623,1.1944433013066649,0.361789677491039
1772619553493346000,2.937345947265625,4.768879120153189,1.2836613615475594,0.16719284193366765
1772619553503377000,2.947376953125,4.5836599154025315,1.356080408809334,-0.057220309086143964
1772619553513408000,2.957407958984375,4.5538452073752875,1.454505273334682,-0.2538420745998621
1772619553523438800,2.96743896484375,4.747686109998822,1.6208391603514551,-0.40115795741379257
1772619553533470000,2.977469970703125,5.040331670245528,1.717728339742124,-0.3833081202074885
1772619553543501800,2.987501708984375,5.271917489373684,1.7304016510933637,-0.4742231936246156
1772619553553533000,2.997532958984375,5.361348169451952,1.6708349250115453,-0.5637171481974422
1772619553563564000,3.00756396484375,5.247693148699402,1.5649027535960078,-0.548427370737493
1772619553573595100,3.01759521484375,4.852601943978667,1.443033154466748,-0.5606849408946931
1772619553583626000,3.0276259765625,4.140578294494748,1.2034703651100396,-0.5372833147801459
1772619553593657000,3.037656982421875,2.914879146441817,0.8331731176450848,-0.21577026422843334
1772619553603688000,3.04768798828125,0.9640110361278057,0.5185793449625372,0.14392258711382747
1772619553613719000,3.057718994140625,-1.0320482150435446,0.24696546682864426,0.4279828359752893
1772619553623750000,3.06775,-2.8168910658985373,-0.16243804862201214,1.0476313494268805
1772619553633782000,3.077781982421875,-4.304064390864968,-0.10670271739661694,1.7994278410464524
1772619553643812900,3.087812744140625,-5.48729451650083,0.5544201814115047,1.929856009684503
1772619553653844000,3.097843994140625,-6.274882233273982,1.1817045235037802,1.5673745505370198
1772619553663875000,3.107875,-5.802193994131684,1.1548673699826002,1.1152049294188617
1772619553673906200,3.11790625,-4.223055502173304,-0.02041618056297302,0.5065267227929086
1772619553683937000,3.12793701171875,-3.3291315632283687,-1.8327634166762232,0.0038181700486689804
1772619553693968100,3.137968017578125,-4.397034935507178,-2.940978633338213,-0.44234212765209374
1772619553703999000,3.1479990234375,-7.265785367980599,-2.450828679524362,-0.5708538316769525
1772619553714030000,3.158030029296875,-10.334515351963043,-1.0418807500109075,-0.1535908348975703
1772619553724062000,3.16806201171875,-11.82251402183771,0.26828078818842765,0.5859498401304707
1772619553734093000,3.178093017578125,-11.299813505291938,1.0606365961462259,1.3896931939452886
1772619553744124000,3.1881240234375,-9.172387051066755,1.1651856426402927,1.5721924722127616
1772619553754155000,3.198155029296875,-6.188192960858345,0.7050760223031044,1.0218846945561468
1772619553764185900,3.208185791015625,-3.2416181149482726,-0.1544090559452772,0.1565619231302291
1772619553774217000,3.218217041015625,-0.9261685044676065,-1.0394332107283175,-0.657087871138379
1772619553784248000,3.228248046875,0.5932961477726697,-1.769509234253317,-1.2122205847334115
1772619553794279200,3.238279052734375,1.3975538443177937,-2.1547380933903155,-1.4760986809834837
1772619553804310000,3.24831005859375,1.6644307570576666,-2.170119056265056,-1.418661514276266
1772619553814341000,3.258341064453125,1.6175789895117283,-1.8568368045724928,-1.1169392789307981
1772619553824373000,3.268373046875,1.5395909099459648,-1.4400599838748573,-0.7343726978056132
1772619553834404000,3.278404052734375,1.509097572004795,-1.0651423831328748,-0.334715865669772
1772619553844435000,3.28843505859375,1.4885288312286138,-0.7848512775465846,-0.09945808003060519
1772619553854466000,3.298466064453125,1.4046370805770159,-0.694338793580979,0.07103373038321734
1772619553864497000,3.308496826171875,1.3019056048989295,-0.670919924070686,0.16964023508578538
1772619553874528000,3.318528076171875,1.2003928573608398,-0.7191464871011674,0.19714630084447562
1772619553884558800,3.328558837890625,1.2476859389334916,-0.7782293751887976,0.2008482241023332
1772619553894590000,3.33858984375,1.4682728096634148,-0.853541513543576,0.0854020821493119
1772619553904620800,3.348620849609375,1.8645798199146986,-0.981801690492779,-0.0883246185325086
1772619553914652200,3.358652099609375,2.259777407619357,-1.17656686835438,-0.2751633873090148
1772619553924684000,3.36868408203125,2.591128838357329,-1.2976933940313755,-0.5805121425885706
1772619553934715100,3.378715087890625,2.780298242038488,-1.3888658032104373,-0.9385066655803471
1772619553944746000,3.38874609375,2.824624290499091,-1.4345917815968394,-1.2706095722727477
1772619553954777000,3.398777099609375,2.7036493021219967,-1.3729331978023052,-1.471471021182835
1772619553964808000,3.408807861328125,2.4079794256180524,-1.2745748226419091,-1.5167612385004758
1772619553974839000,3.418839111328125,1.988387401369214,-1.0118462617531419,-1.34624538962394
1772619553984870000,3.428869873046875,1.456523335158825,-0.6491526211597025,-1.0894046446647494
1772619553994901000,3.43890087890625,1.0497814401328562,-0.2898100445598364,-0.8691837577030063
1772619554004931800,3.448931884765625,0.8865876047074794,0.07466317292675376,-0.584038270888105
1772619554014964200,3.458964111328125,0.9858353299230337,0.358262964669615,-0.4073896914102137
1772619554024995000,3.4689951171875,1.4004361217558383,0.5676910202644765,-0.37445071388259527
1772619554035026200,3.479026123046875,2.041523363751173,0.6576283346906304,-0.5209896940398961
1772619554045057000,3.48905712890625,2.836424033886194,0.6160818339459597,-0.7497119404304772
1772619554055088000,3.499088134765625,3.4485382793754336,0.4870337214894592,-0.9142923348434269
1772619554065119000,3.509118896484375,3.6779730579495427,0.30430545677170157,-1.0489401670031249
1772619554075150000,3.519150146484375,3.515119998785853,0.13954247233346104,-1.1773048272401094
1772619554085181000,3.529180908203125,3.032911651626229,0.028652824641019103,-1.2478192099243401
1772619554095212000,3.5392119140625,2.2752988018780944,-0.07707344893887638,-1.1799724390141666
1772619554105244000,3.549243896484375,1.0760890168219803,-0.22675474570989607,-1.0015488857530057
1772619554115275000,3.55927490234375,-0.6696808837950229,-0.3827896492913365,-0.6725467946201562
1772619554125305900,3.569305908203125,-2.76244694352746,-0.3970117975197732,-0.10885887251719832
1772619554135337000,3.5793369140625,-4.749136893329024,-0.20962036329656838,0.5945772005591541
1772619554145368000,3.5893681640625,-6.461711795830726,0.17100290174111724,1.254219286224991
1772619554155399200,3.599399169921875,-7.74669315393567,0.5136453956916928,1.5736980544701218
1772619554165430000,3.609429931640625,-8.709904564118386,0.524963785302639,1.4746984587967396
1772619554175461000,3.619461181640625,-9.490323119914532,0.3906543913170695,1.0229564885061233
1772619554185492000,3.629491943359375,-10.06157636270523,0.21175898276045918,0.5076351224262267
1772619554195523000,3.639523193359375,-10.060807131898402,-0.07288783381730318,0.11762874668911098
1772619554205555000,3.649554931640625,-9.377160266593098,-0.43043037525787947,0.012116554251313208
1772619554215586000,3.6595859375,-8.21827898479402,-0.9075542587600648,-0.1625573641527444
1772619554225617000,3.669616943359375,-6.911518925601244,-1.6335453510589897,-0.4935696991294622
1772619554235648000,3.67964794921875,-5.6228270225405685,-2.5378397312402723,-0.8832581680238246
1772619554245678800,3.689678955078125,-4.579903193217516,-3.381735026168823,-1.2269552855938672
1772619554255710000,3.6997099609375,-4.103621313497424,-3.7810634300678965,-1.0289075058650226
1772619554265741000,3.709740966796875,-4.404167856127024,-3.3802883344918486,-0.16797917000576854
1772619554275772200,3.719772216796875,-5.213609092789888,-2.1667203537374733,0.5733192354097962
1772619554285803000,3.729802978515625,-5.795223570597171,-0.9349823639117181,0.8066320244610309
1772619554295835100,3.739835205078125,-5.512427788713574,-0.05719254429638385,0.9455879290781914
1772619554305866000,3.749865966796875,-4.4368484749794,0.5675033887378871,1.0648878238499164
1772619554315897000,3.75989697265625,-2.9954204176217316,0.9712060621984302,1.263942661729455
1772619554325928000,3.769927978515625,-1.651526267299056,1.0969025992047041,1.5434925935596226
1772619554335959000,3.779958984375,-0.5990332301199436,0.9759566177263855,1.7608394594550132
1772619554345990000,3.789989990234375,0.06856149505078792,0.6688087771356105,1.8271476226210592
1772619554356021000,3.80002099609375,0.6082639998018742,0.2988445427509956,1.6656316572800278
1772619554366051800,3.8100517578125,1.0835527768313884,0.0007244646499166265,1.2849261207863687
1772619554376083000,3.8200830078125,1.7061545140653849,-0.25133644845448433,0.7670798393387347
1772619554386113800,3.83011376953125,2.5590900245398283,-0.4413331698052585,0.475765893021971
1772619554396146200,3.840146240234375,3.6229800695240497,-0.5308843709906563,0.34361455385312434
1772619554406177000,3.850177001953125,4.835583004638552,-0.442955985234119,0.4250488283500075
1772619554416208100,3.8602080078125,5.936347613033652,-0.33192681947313246,0.7384667621862143
1772619554426239000,3.870239013671875,6.922834684863687,-0.23301577886603772,1.0324471512332558
1772619554436270000,3.88027001953125,7.798516864675283,-0.146051415836066,1.1431255673278122
1772619554446301000,3.890301025390625,8.482299339058995,-0.07801284868083894,1.1208538950912654
1772619554456332000,3.90033203125,8.846172983217238,-0.11031674317531287,1.0706514288779347
1772619554466363000,3.91036279296875,8.820891242444514,-0.2123378055617213,1.0024963957361877
1772619554476394000,3.92039404296875,8.51013544048965,-0.3456292546764016,0.9120702018145471
1772619554486425900,3.93042578125,7.733625582569837,-0.36753961931988594,0.7097413107004016
1772619554496457200,3.940457275390625,6.765286746370792,-0.1834654198858887,0.4031216587021947
1772619554506488000,3.950488037109375,5.8907391235470765,0.044416503223031756,0.3320780645120889
1772619554516519200,3.960519287109375,5.322340101143717,0.3250897399947047,0.4224228272279724
1772619554526550000,3.970550048828125,5.172336002159119,0.693564886599034,0.4557484294530004
1772619554536581000,3.9805810546875,5.434691053560376,1.119478222823888,0.47520822260659185
1772619554546612000,3.990612060546875,5.96936199388504,1.4570987969592213,0.4749149752810597
1772619554556643000,4.00064306640625,6.614141660657524,1.63837043312788,0.48251273693367835
1772619554566674000,4.010673828125,7.134009584125876,1.6446717252291738,0.45114816911593075
1772619554576705000,4.020705078125,7.531581499746442,1.6292472154736517,0.2345095610877499
1772619554586737000,4.03073681640625,7.76508221258521,1.6083403287842868,-0.019691556082852182
1772619554596768000,4.04076806640625,7.303873983356357,1.4199484853468836,-0.14168722927719354
1772619554606798800,4.050798828125,6.028883273389935,1.0486819544583559,-0.12642854107525198
1772619554616830200,4.060830322265625,4.417109755286574,0.7892993429966271,-0.029530447725765404
1772619554626861000,4.070861083984375,2.7766251064836975,0.5987621580936014,-0.06899583134744317
1772619554636892200,4.08089208984375,1.3710720801055432,0.04239186552762985,-0.15578871026802807
1772619554646923000,4.090923095703125,0.14617080443203448,-0.9299407164826988,-0.6657780311375856
1772619554656955000,4.100954833984375,-1.0867039343386888,-2.200499435351044,-1.4023118524998426
1772619554666985700,4.11098583984375,-2.113099822708964,-3.275561885604262,-1.8124946817599237
1772619554677016800,4.121016845703125,-3.1068016482233998,-3.5795740585178133,-1.9875226012334226
1772619554687049000,4.131049072265625,-4.353550014045834,-2.646954185953736,-1.7901956100597975
1772619554697079800,4.141079833984375,-5.6547530236333605,-1.2646484719112514,-1.0877930447496473
1772619554707111000,4.15111083984375,-5.788973862552642,-0.44112098835930225,-0.5777390246134251
1772619554717141800,4.161141845703125,-4.901708212453126,-0.4588989293731749,-0.1919399643730372
1772619554727172900,4.1711728515625,-4.536582522407174,-0.7007876774594187,0.4472009658601135
1772619554737203700,4.18120361328125,-5.540825615680218,-0.2465142159298062,1.104393758677691
1772619554747234800,4.19123486328125,-7.49626176456213,0.7186602379541843,1.7697142553061245
1772619554757266000,4.201265869140625,-8.717817821460962,1.5870672391310334,2.453498190994561
1772619554767296800,4.211296875,-8.360684883734583,2.1069468530371784,2.9292072392627597
1772619554777328600,4.22132861328125,-6.502480444070696,2.3402941288799046,2.6106919092223047
1772619554787359700,4.23135986328125,-3.6020138538628816,2.308463697116077,1.591203169891983
1772619554797390800,4.241390869140625,-0.6085889939725398,1.7618636879362164,0.8637281226456165
1772619554807422000,4.251421875,1.3610919533610344,0.8433765317514538,0.2508569213092327
1772619554817452800,4.261452880859375,2.042923293676972,0.10954919286891818,-0.6365523750446737
1772619554827484000,4.27148388671875,1.6795996846169232,-0.3207164933465421,-1.2493310757920146
1772619554837514800,4.2815146484375,0.7359919695705175,-0.5638432587951422,-1.6207248863220214
1772619554847545900,4.2915458984375,-0.2539449504524469,-0.5996024083100259,-1.918566115515679
1772619554857577000,4.301576904296875,-1.0397598123341798,-0.5178460622519254,-1.9093711477994917
1772619554867607800,4.31160791015625,-1.4878747512340544,-0.3445093107357621,-1.5656408586122095
1772619554877639700,4.3216396484375,-1.4449474636554718,0.001095101760327816,-1.1465260964863002
1772619554887670800,4.3316708984375,-1.0750549975991248,0.3948287543922662,-0.7636737572222948
1772619554897701600,4.34170166015625,-0.4029956942349672,0.7372168351903557,-0.34618254117760805
1772619554907732700,4.351732666015625,0.30616438251137734,0.9135795103989541,0.013727058187872171
1772619554917763600,4.361763671875,0.8254355091303587,0.9550484889280051,0.20006145763881503
1772619554927795000,4.371794921875,1.2551701572090386,0.9236164088319987,0.2273814993061125
1772619554937825800,4.38182568359375,1.5920242770165205,0.7639481902495027,0.15240962575636804
1772619554947857000,4.39185693359375,1.8860978242397308,0.5527238988876343,0.05602664232216775
1772619554957888000,4.401887939453125,2.118603680822253,0.27579861647263165,0.007166092237085104
1772619554967919900,4.411919921875,2.3323645049244166,0.004315671242028475,-0.09152436442188919
1772619554977950700,4.42195068359375,2.535544898301363,-0.2849199344307184,-0.17159158834926783
1772619554987981800,4.43198193359375,2.751859498539567,-0.5510951286420226,-0.26653642873913047
1772619554998012700,4.4420126953125,2.8716058219045397,-0.7723388558454811,-0.5009575443584472
1772619555008043800,4.452043701171875,2.9577649329662323,-0.9524011162243783,-0.7624715418256819
1772619555018074600,4.46207470703125,3.0084973413378,-1.0269348175525665,-1.0076377041473985
1772619555028105700,4.472105712890625,2.8233512018233538,-1.0601752622447906,-1.1280199142631142
1772619555038136800,4.48213671875,2.235316335579753,-0.8808259724408387,-1.0196211335383356
1772619555048168000,4.49216796875,1.288808807438612,-0.47531084273084995,-0.7490981193810701
1772619555058199000,4.502198974609375,0.20793372538387775,0.006072305651009083,-0.34965303029976785
1772619555068231000,4.51223095703125,-0.6413678125023842,0.5630035931006073,0.16597557509839533
1772619555078261800,4.52226171875,-1.0664578496456145,1.0728702009059488,0.6833619108840823
1772619555088292900,4.53229296875,-0.8586901284784078,1.4975063568018376,0.9678519294649361
1772619555098323700,4.54232373046875,-0.05767360581159591,1.7446248222351073,1.0172724515203386
1772619555108354800,4.552354736328125,1.0836235039800406,1.6958453014969825,0.7900134826153516
1772619555118385700,4.5623857421875,2.27853354601562,1.2725740042135119,0.4295756581246853
1772619555128416800,4.572416748046875,3.1301556358039377,0.6214325473241508,0.1316512076269835
1772619555138448000,4.58244775390625,3.431681837120652,0.028980595290660858,-0.16378420253396034
1772619555148478700,4.592478759765625,3.049821869894862,-0.40684608605280514,-0.3816964472271502
1772619555158510800,4.6025107421875,2.0713439169973134,-0.6744144881881773,-0.5062703368790448
1772619555168542000,4.6125419921875,0.7243395256996155,-0.7885425332799554,-0.49165407476648687
1772619555178572800,4.62257275390625,-1.2072680038273333,-0.8049326731972396,-0.15343180841095744
1772619555188604000,4.63260400390625,-3.8121050495415925,-0.6801398800976574,0.39183198372907935
1772619555198634800,4.642634765625,-6.575989332395792,-0.27550153322219845,0.9458816513277589
1772619555208665900,4.652665771484375,-8.919013763022422,0.2892873358599841,1.23147276301831
1772619555218697000,4.662697021484375,-10.593054059946537,0.516481788161397,1.3742524637073277
1772619555228727800,4.672727783203125,-11.328608222621678,0.16469298794195056,1.6811488137550652
1772619555238759000,4.682759033203125,-11.430557023489474,-0.36703663823381066,1.4219900741770863
1772619555248789800,4.692789794921875,-11.064102715188264,-0.8544459150373935,0.6316225904922932
1772619555258821600,4.702821533203125,-10.325466953110695,-1.434554226065427,-0.023029194339271634
1772619555268852700,4.712852783203125,-9.377613855579495,-2.11888410519883,-0.4118107227228582
1772619555278883800,4.7228837890625,-8.252235030409693,-2.837642177504301,-0.6542723022609949
1772619555288915000,4.7329150390625,-7.055324754467606,-3.4709950258553026,-0.7308204121515154
1772619555298945800,4.74294580078125,-6.112869132065772,-3.898054024983942,-0.7861785075623542
1772619555308977000,4.752976806640625,-5.548408618155121,-3.9550644907116888,-0.8861180874995886
1772619555319008000,4.763008056640625,-5.443496291306615,-3.583072129766643,-0.622200609087199
1772619555329038800,4.773038818359375,-5.46957882706821,-2.708712722991407,-0.18311056029992176
1772619555339070000,4.783070068359375,-5.162389777684211,-1.572475819198787,0.12369359968602657
1772619555349100800,4.793100830078125,-4.3048382978469135,-0.6775241446413099,0.528809318282269
1772619555359132700,4.803132568359375,-3.0529356180012224,-0.21435396768972276,1.018782198496163
1772619555369163800,4.813163818359375,-1.6910814480960368,-0.032117432011663914,1.265037909620255
1772619555379194600,4.823194580078125,-0.3231429898411035,0.07285115506872535,1.4118119406424463
1772619555389225700,4.833225830078125,0.7120832707166671,0.1307958329066634,1.5995529189556836
1772619555399256800,4.8432568359375,1.3711866463959217,0.20172237658835945,1.7583362444624304
1772619555409288000,4.853287841796875,1.8426275158256291,0.29032508140988644,1.7993964229948818
1772619555419319000,4.863319091796875,2.2662311138033866,0.31073285947069523,1.8054260585479438
1772619555429350000,4.873349853515625,2.769750544539094,0.34649712355211376,1.8302841670811176
1772619555439381000,4.883381103515625,3.4631115791291,0.42880321244746444,1.777761806552857
1772619555449411800,4.893411865234375,4.314655927506089,0.5853809907339513,1.76981596211493
1772619555459443700,4.903443603515625,5.358235005867481,0.7401321381151675,1.663932890538126
1772619555469474800,4.913474853515625,6.593221037703752,0.8167458605878055,1.4925428891755639
1772619555479505700,4.923505615234375,7.834087359750271,0.7546596990309655,1.2848559781596063
1772619555489536800,4.933536865234375,8.92791486235857,0.5559641959831119,0.9823864315781742
1772619555499567900,4.94356787109375,9.6137875870198,0.3784770467892289,0.6680130236480385
1772619555509598700,4.9535986328125,9.842069688427447,0.31636925792247056,0.3563042318172753
1772619555519629800,4.9636298828125,9.587126959109305,0.4660894253991544,0.05875727286245674
1772619555529661000,4.973660888671875,8.9244276047647,0.8609884685486554,0.19949783240668476
1772619555539692000,4.983692138671875,8.408999709570407,0.46098567251935596,0.21236980813518166
1772619555549724000,4.993723876953125,7.897675742563605,0.1933636405006051,-0.05146247621178627
1772619555559754800,5.003754638671875,7.148070258182287,0.4036849916733801,-0.012437347170896828
1772619555569785900,5.013785888671875,5.841190956524014,0.787003633274883,0.3624874870294705
1772619555579816700,5.023816650390625,5.521878923147916,1.1652196910403667,0.2966859947439283
1772619555589847800,5.033847900390625,5.075257437676191,1.406933520951122,0.13090198756172322
1772619555599879000,5.04387890625,4.956888832405209,1.5376801078885793,0.06598260730637703
1772619555609909800,5.05390966796875,4.977038470986485,1.5851238499782978,0.055607795855589205
1772619555619940900,5.06394091796875,5.0417695940941565,1.523329803235829,0.057366329960711296
1772619555629971700,5.0739716796875,5.116430575063824,1.3698586126625536,0.04675776911955327
1772619555640002800,5.0840029296875,4.985511115777492,1.152727289213985,0.07594674646388738
1772619555650035000,5.094034912109375,4.674217553684115,0.8419982291355729,0.2722963439727202
1772619555660065500,5.1040654296875,4.207523586520552,0.4508486016474664,0.6125850413387641
1772619555670096600,5.1140966796875,3.646239364558458,0.11400178836360574,0.9138866766519844
1772619555680127700,5.124127685546875,2.8733693244457243,-0.18691300305649636,1.099091852877289
1772619555690158600,5.13415869140625,1.770724309131503,-0.42801206206977366,0.872922505839914
1772619555700189700,5.144189697265625,0.2504676297307014,-0.937359468306601,0.15928535674475133
1772619555710220500,5.154220458984375,-1.5420494090139865,-1.6121940816029905,-0.6720135645262897
1772619555720251600,5.164251708984375,-3.219125712633133,-1.8835279737517236,-1.6598250168278812
1772619555730282500,5.174282470703125,-4.471320068901777,-1.5689938223019242,-2.5315078978702426
1772619555740313600,5.184313720703125,-5.289739561790228,-1.130612926431,-2.730819925381243
1772619555750345700,5.194345703125,-5.496531715923547,-1.1016107038304208,-2.2408180017359554
1772619555760376600,5.20437646484375,-4.901100894209742,-1.3888707716464996,-1.4073060075253248
1772619555770407700,5.21440771484375,-3.8083337143093345,-1.5691697633907198,-0.8227407170884311
1772619555780438800,5.224438720703125,-3.2804899896562096,-1.4586983411103487,-0.7255376494430005
1772619555790469600,5.2344697265625,-3.6781133432030675,-1.0036869206950068,-0.835993581893295
1772619555800500700,5.244500732421875,-5.0120782201856375,-0.5005427530124783,-0.6749030023574829
1772619555810531600,5.254531494140625,-6.463710860693454,0.08626432500183581,-0.4093852126089856
1772619555820562700,5.264562744140625,-7.162083585965633,0.6388014691457152,-0.04304842974022031
1772619555830593500,5.274593505859375,-7.072540677684545,0.9975332203708589,0.38649537194147704
1772619555840624600,5.284624755859375,-6.572625408920645,1.2438044213250279,0.5346505551237613
1772619555850656500,5.294656494140625,-5.892536528357863,1.2989666288375854,0.430266636063531
1772619555860687600,5.3046875,-5.086346986967325,1.1690516704186797,0.21737441148944198
1772619555870718700,5.31471875,-4.086718694013357,0.8724076881855726,0.006803542535007
1772619555880749800,5.324749755859375,-2.904219220739603,0.509755548646301,-0.2530049661885947
1772619555890780700,5.33478076171875,-1.7465087362855671,0.08637479963898659,-0.48212709861695763
1772619555900811800,5.344811767578125,-0.861768805271387,-0.31972719004824757,-0.5702072408691048
1772619555910842600,5.354842529296875,-0.2825789242625236,-0.5595410315565764,-0.6609409663699567
1772619555920873700,5.364873779296875,-0.0012000234395265579,-0.5563162242911756,-0.6032557431858032
1772619555930905600,5.374905517578125,0.1278314301431179,-0.4210172347463667,-0.3707380500350147
1772619555940936400,5.3849365234375,0.17456395522356033,-0.15337445220053195,-0.06964030326344073
1772619555950967600,5.394967529296875,0.28627310260534283,0.13485519130006432,0.14070362506732345
1772619555960998700,5.40499853515625,0.4528945743918419,0.31940570300891996,0.24357670117318628
1772619555971029500,5.415029541015625,0.6163257257044314,0.39460137537717815,0.26518472186923026
1772619555981060600,5.425060546875,0.8078934226989746,0.41698184175044295,0.244923731867969
1772619555991091700,5.435091796875,0.9147042766451835,0.3619577275343239,0.17997180561646817
1772619556001122800,5.445122802734375,1.0260551121085881,0.2866284919142723,0.05794073231518268
1772619556011153700,5.455153564453125,1.2731617409735918,0.18778116419315338,-0.0031662089459598064
1772619556021184800,5.465184814453125,1.6226123075038195,0.0026478841602802275,-0.016694383560866118
1772619556031216600,5.475216552734375,2.0216993038624524,-0.2367731586381793,0.010112374822050333
1772619556041247500,5.48524755859375,2.4718624074637887,-0.49685354310572144,-0.04618088254705071
1772619556051278600,5.495278564453125,2.8862644618541,-0.8086502324156463,-0.18748714968264102
1772619556061309700,5.505309814453125,3.059935267630219,-1.0989641348443924,-0.34006825954839587
1772619556071340500,5.515340576171875,3.0167244869351384,-1.2779201875470578,-0.6787335204310715
1772619556081371600,5.52537158203125,2.769252531889081,-1.2886749519258738,-0.9870723974373191
1772619556091402500,5.535402587890625,2.1124603557616473,-1.1213616984829307,-1.2082142717014996
1772619556101433600,5.54543359375,1.1612936036378145,-0.7281929862573743,-1.256830345506221
1772619556111464700,5.555464599609375,0.15296470235586165,-0.14531725634261966,-1.0841451167013496
1772619556121495800,5.565495849609375,-0.7748042230457067,0.3870972833573818,-0.705138639210537
1772619556131527700,5.575527587890625,-1.3552666082084177,0.884803643900156,-0.11929989477172494
1772619556141558500,5.58555859375,-1.459023919802904,1.3279976391412316,0.39280272845737635
1772619556151589600,5.595589599609375,-1.0533189666092395,1.567525064923614,0.7246048255722969
1772619556161620700,5.605620849609375,-0.3038181116461754,1.6080834314137695,0.8576658999972044
1772619556171651600,5.615651611328125,0.5116209041267633,1.4238522147871553,0.7762698386188596
1772619556181682700,5.6256826171875,1.3065356027871369,1.0789759704351425,0.47182585015930234
1772619556191713500,5.635713623046875,1.9242092359691858,0.5489791594013571,0.018976795409619808
1772619556201744600,5.64574462890625,2.24666073641479,0.05826718779057264,-0.42546077015176414
1772619556211775500,5.655775390625,2.057818080469966,-0.25616949463412164,-0.9725577690683305
1772619556221806600,5.665806640625,1.727249324542284,-0.14062676043882966,-1.1390465543858705
1772619556231837400,5.67583740234375,1.3902987586230038,0.0476072620883584,-1.1438934098951519
1772619556241868800,5.685868896484375,1.0382570065557957,0.2899127742819488,-1.0062818325590341
1772619556251900700,5.695900634765625,0.7047942827522754,0.5403605302684009,-0.8082659092731773
1772619556261931800,5.705931884765625,0.3079588647127151,0.7457873873978853,-0.6767192579992115
1772619556271962600,5.715962646484375,-0.05916238306462764,0.8899810465380549,-0.584457592278719
1772619556281993700,5.72599365234375,-0.2892833903372288,0.8313440025217831,-0.5107224939823151
1772619556292024600,5.736024658203125,-0.4872311437577009,0.5604957019329071,-0.4860374039284885
1772619556302055700,5.7460556640625,-0.8582353704482316,0.22159560938104986,-0.3639588382236659
1772619556312086500,5.75608642578125,-1.5423966150164603,-0.11380626579150557,0.02971621608883142
1772619556322117600,5.76611767578125,-2.3762124144792556,-0.4841984980635345,0.7129604919426142
1772619556332148500,5.7761484375,-3.2472078977793455,-0.8548049576081335,1.3906281367078424
1772619556342179600,5.7861796875,-4.360625066998601,-1.305353115004301,1.9035323586434125
1772619556352211700,5.796211669921875,-5.407251842492818,-1.8446067069441079,2.1995397965386507
1772619556362242800,5.806242919921875,-6.071814068099856,-2.3261913692474363,2.216298185246438
1772619556372273700,5.816273681640625,-6.299936010509729,-2.6852216650277376,1.8708651837944983
1772619556382304800,5.8263046875,-5.795484267359972,-2.8779189505740996,1.0768602203901856
1772619556392335600,5.836335693359375,-4.851843819087743,-3.196366476075351,0.18994462583735583
1772619556402366700,5.84636669921875,-4.196835603767633,-3.5247543808326123,-0.3466523506464436
1772619556412397600,5.8563974609375,-4.700186107677221,-3.756376148056984,-0.3058490694845095
1772619556422428700,5.8664287109375,-6.220491886916756,-3.516241111770272,-0.2785764654218219
1772619556432459500,5.87645947265625,-7.4891984020471565,-2.728542335838079,-0.5512601464780047
1772619556442491600,5.88649169921875,-7.679732079818844,-1.864918258088827,-0.642702422107011
1772619556452522500,5.8965224609375,-6.707388099631666,-0.9206704915732145,-0.6784158327840268
1772619556462553600,5.9065537109375,-4.855548518824577,-0.19568039301037787,-0.4960897556589916
1772619556472584700,5.916584716796875,-2.612688928258419,0.2648819395303726,-0.3623180852793157
1772619556482615800,5.92661572265625,-0.5809036991894245,0.5039964005976915,-0.3490211621370166
1772619556492646700,5.936646728515625,0.9321066623449324,0.5528010557770728,-0.225596479052864
1772619556502677800,5.946677734375,1.786051057600975,0.5439901189424097,-0.0013954729463905096
1772619556512708600,5.95670849609375,2.063267578047514,0.6222798118032514,0.21885020139673725
1772619556522739700,5.96673974609375,1.9414467864960432,0.813662946011126,0.32883805967755614
1772619556532770600,5.9767705078125,1.6897680274099112,1.0208244449134916,0.42133017315305765
1772619556542801700,5.9868017578125,1.7872101645082235,1.1463741938602179,0.5704639190439135
1772619556552833500,5.99683349609375,2.390816109371185,1.1275031238473952,0.7704397442258893
1772619556562864600,6.00686474609375,3.5109313149243593,1.1289811605107039,0.8380923808034509
1772619556572895500,6.0168955078125,4.956003866264224,1.1769375282976775,0.6803250274062156
1772619556582926600,6.026926513671875,6.486921640411019,1.1003172299537807,0.4618200409842655
1772619556592957700,6.036957763671875,7.785584317865967,0.7249287237644195,0.3323978710509837
1772619556602988800,6.04698876953125,8.685182795315981,0.27898835242465136,0.35259982434138654
1772619556613019600,6.05701953125,9.026205140718817,-0.056561699046939605,0.22936375916451215
1772619556623050800,6.06705078125,8.839275624918937,-0.24808584916070103,-0.0759772146673873
1772619556633081600,6.07708154296875,8.194493035537004,-0.33588264442682264,-0.42436508386954663
1772619556643113700,6.08711376953125,7.381075296458602,-0.2500407826207578,-0.6885604293752461
1772619556653144800,6.097144775390625,6.462153694379329,-0.0633294396162033,-0.7925135558027774
1772619556663176000,6.107176025390625,5.6086143727928395,0.217481159799546,-0.7319827339291572
1772619556673206800,6.117206787109375,4.729105912691354,0.5697498524904251,-0.5954706057349219
1772619556683238000,6.12723779296875,4.045651355087757,0.9432064407691358,-0.6163490335147828
1772619556693268700,6.137268798828125,3.798946877282858,1.293535689830035,-0.6238827900204807
1772619556703299800,6.1472998046875,3.9338866781264543,1.610848804473877,-0.5722856180457397
1772619556713331000,6.1573310546875,4.332770845389366,1.8647925858825445,-0.4418144870487973
1772619556723362000,6.167362060546875,4.908929980400204,2.0637671981327235,-0.19720442423988133
1772619556733393000,6.177392822265625,5.089343830695748,2.009561268431693,-0.039034554456360636
1772619556743424800,6.1874248046875,4.4892532004773615,1.7931410158619283,-0.037457623995840544
1772619556753455900,6.197455810546875,3.7886744895935056,1.545293505501747,0.0303655103104189
1772619556763487000,6.207487060546875,3.2678263229161497,1.230517654250562,0.3014757497711107
1772619556773517800,6.217517822265625,2.6693033804059025,0.6850812820225953,0.7336126732185483
1772619556783549000,6.227548828125,1.8994699315100907,0.06736614778637885,1.099352111248672
1772619556793579800,6.237579833984375,1.0499100349485873,-0.6448121077373623,1.0708801961325107
1772619556803611000,6.24761083984375,0.3828548234820366,-1.7756576738804577,1.1765769513569773
1772619556813641700,6.257641845703125,-0.05806991165280342,-2.7142171656265854,1.1308088143292814
1772619556823672800,6.2676728515625,-0.24706103615760802,-2.571809805381298,-0.09504331406196578
1772619556833703700,6.27770361328125,-0.6813987941175699,-2.048455793362856,-1.6858578682288528
1772619556843735000,6.287735107421875,-1.660983831474185,-2.0004212457731363,-2.4932059320047495
1772619556853767000,6.297766845703125,-3.5307203034996983,-1.9305178345941005,-2.218283806105703
1772619556863798000,6.307798095703125,-6.376873119717836,-1.0242353493355214,-1.6604190371982752
1772619556873828900,6.317828857421875,-9.695682026374339,0.6102038818232715,-1.082833522646129
1772619556883860000,6.32785986328125,-12.863475026655196,2.387310147076845,-0.3180558958351612
1772619556893890800,6.337890869140625,-14.856799884426593,3.3629233581930396,0.891040565528348
1772619556903922000,6.347921875,-14.838679705846308,3.488538281330466,1.800946428915858
1772619556913952800,6.357952880859375,-12.989556398260593,3.096355657532811,1.6992846282958984
1772619556923984000,6.36798388671875,-9.963921459639073,2.2413921483621,0.9378918216176331
1772619556934014700,6.3780146484375,-6.592693214437365,1.0702697360839695,0.3043145899262279
1772619556944046800,6.388046875,-3.6315579282552,-0.023646979177743194,-0.37263460437133905
1772619556954078000,6.398077880859375,-1.5171084445029497,-0.8270906559262424,-0.7490080299448222
1772619556964109000,6.408109130859375,-0.17417057199180125,-1.21104167714715,-0.9009370325773954
1772619556974140000,6.418139892578125,0.6855331174433231,-1.2537629207596181,-0.8688833134517073
1772619556984171000,6.4281708984375,1.2229542332589625,-1.1342654575891793,-0.777562654908374
1772619556994201900,6.438201904296875,1.6692653376072644,-1.0241054393455387,-0.553678605796583
1772619557004233000,6.44823291015625,2.1138129394143816,-0.936252529978007,-0.250314631126076
1772619557014263800,6.458263916015625,2.594191733059287,-0.9129263071872293,-0.0831021346438676
1772619557024295000,6.468294921875,2.935449640783667,-0.8650450504630803,-0.046082609804347155
1772619557034325800,6.47832568359375,2.9808687451779843,-0.7822168373897671,-0.09585534283090383
1772619557044358000,6.48835791015625,2.7757079916387797,-0.6491128736712038,-0.11279471412878483
1772619557054388700,6.498388671875,2.587227154743671,-0.4507055399149656,-0.22613902496434746
1772619557064420000,6.508420166015625,2.5029092876344916,-0.2785897084958851,-0.4725197872402146
1772619557074451000,6.518450927734375,2.3644424817085263,-0.12915449544042348,-0.5975893149219453
1772619557084482000,6.52848193359375,2.2881787417173385,0.10115852727293968,-0.5814094202218577
1772619557094513000,6.538512939453125,2.3848586622714993,0.3534035419397056,-0.39010322370771316
1772619557104544000,6.5485439453125,2.66583891916573,0.49839171245843167,-0.14492971832975746
1772619557114574800,6.558574951171875,3.141537446039915,0.49755789198279377,0.03608746815379709
1772619557124606000,6.56860595703125,3.9134044465899467,0.32632059696391225,0.1575771645873785
1772619557134636800,6.57863671875,4.88083259768486,0.03168050189912319,0.1383913295369595
1772619557144669000,6.5886689453125,5.779669443112612,-0.37225641870871184,-0.11595080353952944
1772619557154699800,6.59869970703125,6.268408068823814,-0.8354876781977713,-0.6091883481051773
1772619557164731000,6.60873095703125,6.039826692208647,-1.3177354805849493,-1.264052551844716
1772619557174761700,6.61876171875,4.925340432453155,-1.4659822145082055,-1.762641248179972
1772619557184792800,6.628792724609375,2.9510043527901173,-1.009532285722345,-1.8845523483633995
1772619557194824000,6.638823974609375,0.5036562088578939,-0.07597484004721045,-1.664953904148936
1772619557204855000,6.64885498046875,-1.9165853169620035,0.9582103870250284,-1.2966799792051316
1772619557214886000,6.658885986328125,-3.807120831388235,1.7827971703715622,-1.0244007690303027
1772619557224917000,6.6689169921875,-4.748185291692614,2.237183736886829,-1.1709184872038663
1772619557234947800,6.67894775390625,-4.64586122777164,2.285564029174298,-1.3770609452567995
1772619557244979000,6.68897900390625,-4.051338753074408,2.007854026122391,-1.1370111761007458
1772619557255010800,6.6990107421875,-3.6232308294147253,1.776136689569056,-0.7166886456202716
1772619557265042000,6.7090419921875,-3.5076720208674668,1.6845720662020145,-0.04086144108995795
1772619557275072800,6.71907275390625,-3.7689357699006796,1.5139140323758125,0.712429453805834
1772619557285103900,6.729103759765625,-4.3885634597599505,1.2125186178319156,1.1214673508144914
1772619557295134700,6.739134765625,-5.192939814248681,0.9118616005651652,1.3606503470733762
1772619557305165800,6.749165771484375,-5.8445098718136546,0.6333027255989611,1.3390652688615023
1772619557315196700,6.75919677734375,-6.389032344067096,0.3536487488724291,1.2956423067204654
1772619557325228000,6.76922802734375,-6.838721984937787,-0.04375482444390654,1.2177546187892556
1772619557335259000,6.7792587890625,-6.731446436089277,-0.5374857054844498,1.1029650410488248
1772619557345290000,6.7892900390625,-6.260774212944507,-1.0986556534171104,1.2082033849813043
1772619557355321900,6.79932177734375,-5.702531258374452,-1.702587615364045,1.3638178711935878
1772619557365353000,6.80935302734375,-5.225120082363486,-2.323478603157401,1.3283873691111803
1772619557375383800,6.8193837890625,-4.969386494928598,-2.90354439021796,1.0592714452728629
1772619557385415000,6.829414794921875,-4.622525944891572,-3.363619816024601,0.8013863788925111
1772619557395445800,6.83944580078125,-3.855568343693018,-3.5526793295904993,0.80970164116472
1772619557405476900,6.849476806640625,-2.634583949202299,-3.3993712206244466,0.8060073166914283
1772619557415507700,6.8595078125,-1.0731418574541807,-3.0276939169779418,0.6083731592647731
1772619557425538800,6.869538818359375,0.27398119178712366,-2.629714589600265,0.5006529353886843
1772619557435569700,6.879569580078125,0.7792728928923607,-2.1851281170874834,0.5986316635817289
1772619557445601000,6.88960107421875,0.4422130213797092,-1.4552286191731691,0.5255076829209924
1772619557455633000,6.8996328125,-0.5071995805531739,-0.6280622676622122,0.23543898742496966
1772619557465664000,6.9096640625,-1.3909452398329973,0.11431772244498133,0.043335429988056416
1772619557475694800,6.91969482421875,-1.8448586358785628,0.5585089850950986,0.18999343341514466
1772619557485726000,6.929725830078125,-1.7901286823034286,0.8001699888400733,0.3728649059958756
1772619557495756800,6.9397568359375,-1.2091536714434623,0.9965488124433904,0.41951194474995135
1772619557505788000,6.949787841796875,-0.33833880540728567,1.1274544624000786,0.24321532051488756
1772619557515818800,6.95981884765625,0.7084229946434497,1.007782373315096,0.14160466556027532
1772619557525849900,6.969849853515625,1.8551748627096414,0.6805429079405964,0.2194721874862909
1772619557535880700,6.979880615234375,3.2701176487237213,0.5215826914969831,0.0509611025609076
1772619557545911800,6.989911865234375,5.035104290986061,0.5637275234609842,-0.5315140837289393
1772619557555944000,6.99994384765625,6.695805798387527,0.3686329675145447,-0.8979625468112528
1772619557565975000,7.00997509765625,8.035833336409926,-0.11104494785200804,-0.825821731968969
1772619557576006000,7.020005859375,9.070108579853176,-0.5481059202307835,-0.5521192109927535
1772619557586037000,7.030037109375,9.617272506526112,-0.7758581160128116,-0.4375122963428497
1772619557596067800,7.04006787109375,9.382239177292584,-0.8607730722323059,-0.7052199608184396
1772619557606099000,7.050098876953125,8.321015721169113,-0.9804515910580753,-1.114397850819677
1772619557616129800,7.0601298828125,6.838328017184138,-1.0713532204717398,-1.3783197131462395
1772619557626161000,7.070160888671875,5.264411643788218,-0.8415529695861041,-1.5341075100988149
1772619557636191700,7.080191650390625,3.6932904540687796,-0.40092400252744553,-1.6809648354902862
1772619557646222800,7.090222900390625,2.1737696877270936,0.053397261932957914,-1.8401226933978496
1772619557656255000,7.1002548828125,1.3077695284962654,0.5626093330860138,-1.9038938854321836
1772619557666286000,7.1102861328125,1.4392401919245719,0.9995375459305942,-1.9073035477451978
1772619557676317000,7.12031689453125,2.260366605684161,1.4997157034143804,-1.9621289245188236
1772619557686348000,7.13034814453125,3.4183798724770544,1.970384419427812,-2.172296838695556
1772619557696379000,7.14037890625,4.699859359940886,2.2009522936850785,-2.142062443951517
1772619557706410000,7.150409912109375,5.670049376964569,2.189207495355606,-1.7816195048943162
1772619557716440800,7.16044091796875,6.3932058303594586,1.7920941371574997,-1.247974400486052
1772619557726472000,7.170471923828125,7.1345111039072275,0.8604226513594389,-0.11036094764322042
1772619557736502800,7.180502685546875,6.218983235919475,-0.3569431142427027,0.7502779768154024
1772619557746534000,7.190533935546875,4.518335502576828,-0.7147020749129355,0.22711159632354974
1772619557756564700,7.200564697265625,2.8300802178174256,-1.0084477053560317,0.31109219430238005
1772619557766597000,7.21059716796875,1.514349501183629,-1.6438462341904638,0.8114400092646479
1772619557776628000,7.2206279296875,0.681157971099019,-2.099347776210308,0.799768568432331
1772619557786659000,7.2306591796875,0.06057108081877231,-2.2634917519673703,0.2171624492391944
1772619557796690000,7.24068994140625,-0.5062146611690521,-1.9456483298391103,-0.4995448280163109
1772619557806721000,7.250720947265625,-1.3104653434515,-1.2256693374365568,-1.163770076753944
1772619557816751900,7.260751953125,-2.3938480244129896,-0.5350093784987926,-1.1652576118979603
1772619557826783000,7.270782958984375,-3.499724861255288,-0.054394145749509334,-0.658781596378982
1772619557836813800,7.280813720703125,-4.061246399104595,0.3345933352686465,-0.07677600036226212
1772619557846845000,7.290844970703125,-4.033366458532214,0.5346703558027744,0.5182931484322995
1772619557856875800,7.300875732421875,-4.068013993543386,0.5602702226139604,1.1535348792698235
1772619557866908000,7.310907958984375,-4.746788868898153,0.6347945715919137,1.5954289708934724
1772619557876939000,7.32093896484375,-6.289784034329652,0.7514351840265094,1.7181565020263194
1772619557886970000,7.33097021484375,-7.986362910798191,0.8546065124265849,1.5887679055690764
1772619557897001000,7.3410009765625,-8.933920824775099,0.9553566050291061,1.5041060473278165
1772619557907032000,7.351031982421875,-8.80409792855382,0.9480079958319664,1.3997827724136411
1772619557917063000,7.36106298828125,-7.632756393632293,0.8240284188114106,1.0399828074350952
1772619557927094000,7.371093994140625,-5.971254091241955,0.573847350937128,0.6172570152051746
1772619557937124900,7.381124755859375,-4.409668791630864,0.32162294066697356,0.22885462233228607
1772619557947156000,7.391156005859375,-3.148341280835867,0.26529548876732584,-0.1724446980472654
1772619557957186800,7.401186767578125,-2.27819803045094,0.1409862414009869,-0.2917303450979292
1772619557967219000,7.411218994140625,-1.675762298411131,0.06690773649439215,-0.16078841825146228
1772619557977249800,7.421249755859375,-1.2792922065526247,0.004595949488133192,0.050597456880286336
1772619557987281000,7.431281005859375,-1.2963520624250173,-0.2452441959939897,0.04678918717112392
1772619557997312000,7.44131201171875,-1.2753443457096814,-0.5868517939388752,-0.2034806184325367
1772619558007343000,7.451343017578125,-1.0152800355941056,-0.709194563537836,-0.36171778129860754
1772619558017374000,7.4613740234375,-0.8626935189008712,-0.4661136830575764,-0.9643949208788574
1772619558027405000,7.471405029296875,-0.826766465473175,-0.3353955915622413,-1.2821395588077604
1772619558037436000,7.481435791015625,-0.43880876589417456,-0.05731134837046265,-1.2182485397860408
1772619558047467000,7.491467041015625,0.20063070889413356,0.3352944692753255,-0.9267382671795785
