time,seconds_elapsed,z,y,x
1772619550624450800,0.068450927734375,0.166698157787323,0.05121931433677673,-0.24268420040607452
1772619550634482000,0.07848193359375,0.1619967818260193,0.04848238825798035,-0.2757602035999298
1772619550644512800,0.0885126953125,0.16251477599143982,-0.0009874291718006134,-0.2731897234916687
1772619550654543400,0.09854345703125,0.16403649747371674,-0.08201847225427628,-0.2389044314622879
1772619550664574500,0.108574462890625,0.16020607948303223,-0.16606703400611877,-0.18654242157936096
1772619550674605300,0.118605224609375,0.1539423167705536,-0.21222898364067078,-0.11835650354623795
1772619550684636400,0.128636474609375,0.1464013159275055,-0.2022669017314911,-0.04243456944823265
1772619550694668300,0.138668212890625,0.13993746042251587,-0.17765285074710846,0.00919756293296814
1772619550704699400,0.148699462890625,0.13968153297901154,-0.14286264777183533,0.03550666198134422
1772619550714730200,0.158730224609375,0.15082676708698273,-0.08862391114234924,0.04046738147735596
1772619550724761300,0.16876123046875,0.16087940335273743,-0.022567929700016975,0.017773782834410667
1772619550734792200,0.178792236328125,0.17577828466892242,0.027896417304873466,-0.019652754068374634
1772619550744823300,0.1888232421875,0.18457603454589844,0.05985487997531891,-0.04406648501753807
1772619550754854400,0.1988544921875,0.19555039703845978,0.09126435965299606,-0.04496927186846733
1772619550764885500,0.208885498046875,0.20637135207653046,0.11825763434171677,-0.03676779940724373
1772619550774916400,0.218916259765625,0.2035493701696396,0.1456257700920105,-0.014347905293107033
1772619550784947500,0.228947509765625,0.2007589191198349,0.1912776678800583,0.013976410031318665
1772619550794979300,0.238979248046875,0.197443887591362,0.23213934898376465,0.03281975910067558
1772619550805010400,0.249010498046875,0.1995408684015274,0.26762011647224426,0.04109100624918938
1772619550815041300,0.259041259765625,0.20021483302116394,0.27198904752731323,0.03171439468860626
1772619550825072400,0.269072265625,0.19832637906074524,0.2534808814525604,0.009696178138256073
1772619550835103200,0.279103271484375,0.19277742505073547,0.22171862423419952,-0.02349352464079857
1772619550845134300,0.28913427734375,0.18649926781654358,0.18254831433296204,-0.045558080077171326
1772619550855165200,0.299165283203125,0.17478811740875244,0.1690947264432907,-0.06395974010229111
1772619550865196300,0.3091962890625,0.16671554744243622,0.18075031042099,-0.07338280230760574
1772619550875227100,0.31922705078125,0.16388806700706482,0.22216197848320007,-0.08533614873886108
1772619550885259300,0.32925927734375,0.16538263857364655,0.26415762305259705,-0.09504203498363495
1772619550895290400,0.339290283203125,0.17433342337608337,0.30786004662513733,-0.11810389161109924
1772619550905321500,0.349321533203125,0.18546144664287567,0.33814898133277893,-0.14045606553554535
1772619550915352300,0.359352294921875,0.201181560754776,0.3508245348930359,-0.17761000990867615
1772619550925383400,0.369383544921875,0.22003833949565887,0.3264898955821991,-0.21047447621822357
1772619550935414300,0.379414306640625,0.23129364848136902,0.2895956337451935,-0.2391512393951416
1772619550945445400,0.3894453125,0.23832359910011292,0.23816384375095367,-0.2346736639738083
1772619550955476200,0.399476318359375,0.23206809163093567,0.21726389229297638,-0.19974550604820251
1772619550965507300,0.40950732421875,0.23083025217056274,0.22236624360084534,-0.1283528208732605
1772619550975539500,0.41953955078125,0.2199942171573639,0.23517583310604095,-0.04594001919031143
1772619550985570300,0.4295703125,0.2147829383611679,0.24734754860401154,0.027947787195444107
1772619550995601400,0.439601318359375,0.20212209224700928,0.26176539063453674,0.0792718455195427
1772619551005632500,0.449632568359375,0.18705898523330688,0.28183043003082275,0.1157371774315834
1772619551015663400,0.459663330078125,0.18246415257453918,0.3012784719467163,0.13428406417369843
1772619551025694500,0.469694580078125,0.175214484333992,0.3427465558052063,0.15280023217201233
1772619551035725300,0.479725341796875,0.1719314455986023,0.39790499210357666,0.1869111806154251
1772619551045756400,0.48975634765625,0.16697290539741516,0.4382593333721161,0.21831516921520233
1772619551055787300,0.499787353515625,0.14793138206005096,0.4199514389038086,0.21247322857379913
1772619551065818400,0.509818359375,0.11410337686538696,0.28091180324554443,0.1315685212612152
1772619551075850200,0.519850341796875,0.05529341101646423,-0.012640571221709251,-0.04957684502005577
1772619551085881300,0.52988134765625,-0.04059822857379913,-0.47688600420951843,-0.2708447575569153
1772619551095912200,0.539912109375,-0.14436829090118408,-0.989931583404541,-0.4222308099269867
1772619551105943600,0.549943603515625,-0.21576204895973206,-1.384524941444397,-0.43084269762039185
1772619551115974400,0.559974365234375,-0.21019436419010162,-1.5103275775909424,-0.25335797667503357
1772619551126005500,0.570005615234375,-0.11064354330301285,-1.285696268081665,0.12234747409820557
1772619551136036400,0.580036376953125,0.07507821172475815,-0.8430512547492981,0.5852392911911011
1772619551146067500,0.5900673828125,0.29978933930397034,-0.3620593547821045,0.9519131779670715
1772619551156098300,0.600098388671875,0.5161880850791931,0.09461855888366699,1.1058651208877563
1772619551166130400,0.61013037109375,0.7048695683479309,0.538141131401062,0.9810236096382141
1772619551176161300,0.620161376953125,0.8748393058776855,0.9317278265953064,0.5795719027519226
1772619551186192400,0.6301923828125,0.9945734739303589,1.2124857902526855,-0.030386541038751602
1772619551196223200,0.64022314453125,1.0012820959091187,1.279515027999878,-0.7276058197021484
1772619551206254300,0.65025439453125,0.8817829489707947,1.094118356704712,-1.3952304124832153
1772619551216285200,0.66028515625,0.6680479645729065,0.7021418809890747,-1.8880259990692139
1772619551226316300,0.67031640625,0.42653441429138184,0.26928630471229553,-2.126990556716919
1772619551236347400,0.680347412109375,0.2343454658985138,-0.09404147416353226,-2.1367149353027344
1772619551246378500,0.69037841796875,0.1066327691078186,-0.3381391167640686,-2.0139858722686768
1772619551256409300,0.700409423828125,0.034727685153484344,-0.4847199022769928,-1.8213672637939453
1772619551266441500,0.71044140625,0.005971669219434261,-0.52060467004776,-1.5971426963806152
1772619551276472300,0.720472412109375,0.024145878851413727,-0.4612918198108673,-1.3762508630752563
1772619551286503400,0.73050341796875,0.08969612419605255,-0.34514176845550537,-1.1857072114944458
1772619551296534300,0.7405341796875,0.18391823768615723,-0.2199385166168213,-1.0164906978607178
1772619551306565400,0.7505654296875,0.29778727889060974,-0.14330579340457916,-0.8540717363357544
1772619551316596200,0.76059619140625,0.4216035008430481,-0.15243639051914215,-0.664625346660614
1772619551326627300,0.77062744140625,0.5400435924530029,-0.17474062740802765,-0.4290706217288971
1772619551336658200,0.780658203125,0.6372190117835999,-0.1395050436258316,-0.1484721601009369
1772619551346689300,0.790689208984375,0.7186456918716431,-0.06687318533658981,0.14060892164707184
1772619551356721400,0.800721435546875,0.7951681613922119,0.021254440769553185,0.4032523036003113
1772619551366752500,0.81075244140625,0.8454995155334473,0.12043482065200806,0.620255172252655
1772619551376783400,0.820783447265625,0.8648268580436707,0.20718605816364288,0.7715898156166077
1772619551386814500,0.830814453125,0.8511051535606384,0.25039318203926086,0.8356963396072388
1772619551396845300,0.84084521484375,0.8163731694221497,0.23108628392219543,0.8260260820388794
1772619551406876400,0.85087646484375,0.7659533619880676,0.17316864430904388,0.7655275464057922
1772619551416907300,0.8609072265625,0.691551685333252,0.1185021623969078,0.6939669847488403
1772619551426938400,0.8709384765625,0.5991511940956116,0.10472642630338669,0.633389949798584
1772619551436969200,0.88096923828125,0.5007959008216858,0.11363821476697922,0.5983381867408752
1772619551447001300,0.89100146484375,0.412619948387146,0.15463145077228546,0.6093549132347107
1772619551457032400,0.901032470703125,0.33830389380455017,0.26114341616630554,0.6660965085029602
1772619551467063600,0.9110634765625,0.2642112970352173,0.4385826289653778,0.7581915259361267
1772619551477094400,0.921094482421875,0.19824790954589844,0.6221989989280701,0.8466250896453857
1772619551487125500,0.93112548828125,0.1607588529586792,0.7357615232467651,0.8917981386184692
1772619551497156400,0.94115625,0.15023759007453918,0.754866361618042,0.8725253343582153
1772619551507187500,0.9511875,0.17456211149692535,0.7221603989601135,0.818915843963623
1772619551517218300,0.96121826171875,0.23079538345336914,0.6911788582801819,0.755232572555542
1772619551527249400,0.97124951171875,0.3171539604663849,0.6389724016189575,0.7040333151817322
1772619551537280300,0.9812802734375,0.44614097476005554,0.5454351305961609,0.6959291100502014
1772619551547312400,0.9913125,0.5861236453056335,0.3591882586479187,0.7357492446899414
1772619551557343200,1.00134326171875,0.6586471199989319,0.08424272388219833,0.8232535123825073
1772619551567374300,1.011374267578125,0.6551786065101624,-0.19376333057880402,0.9700797200202942
1772619551577405200,1.0214052734375,0.6334429979324341,-0.33393287658691406,1.0958369970321655
1772619551587436500,1.0314365234375,0.6070069074630737,-0.3323507010936737,1.1172423362731934
1772619551597467400,1.04146728515625,0.5674463510513306,-0.3001444935798645,0.930500864982605
1772619551607498500,1.05149853515625,0.38172975182533264,-0.4218882620334625,0.38143324851989746
1772619551617529300,1.061529296875,-0.03656167909502983,-0.7721188068389893,-0.5958950519561768
1772619551627560400,1.071560546875,-0.5917268991470337,-1.1890068054199219,-1.739578127861023
1772619551637592300,1.08159228515625,-1.1254963874816895,-1.4367107152938843,-2.657227039337158
1772619551647624000,1.0916240234375,-1.4756118059158325,-1.3872309923171997,-3.0194947719573975
1772619551657655000,1.101655029296875,-1.5933101177215576,-1.048999547958374,-2.7433114051818848
1772619551667686000,1.111685791015625,-1.3547886610031128,-0.4345484673976898,-2.00423002243042
1772619551677717000,1.121717041015625,-0.7928979992866516,0.3991297781467438,-1.0871154069900513
1772619551687747800,1.131747802734375,-0.12015555053949356,1.225380301475525,-0.22536498308181763
1772619551697779000,1.141779052734375,0.4908260703086853,1.6851729154586792,0.35514819622039795
1772619551707810000,1.15181005859375,0.931320071220398,1.6475272178649902,0.5777458548545837
1772619551717841000,1.1618408203125,1.1473485231399536,1.2851346731185913,0.5084646344184875
1772619551727872800,1.171872802734375,1.150411605834961,0.8842964768409729,0.33188533782958984
1772619551737904000,1.181904052734375,0.9955039620399475,0.5662763118743896,0.17913900315761566
1772619551747935000,1.19193505859375,0.7891480922698975,0.33322498202323914,0.0829237848520279
1772619551757966000,1.201966064453125,0.601761519908905,0.19829291105270386,0.06247194483876228
1772619551767997000,1.211996826171875,0.4692476987838745,0.17301125824451447,0.1018369272351265
1772619551778028000,1.222028076171875,0.37688547372817993,0.2269597202539444,0.1449328362941742
1772619551788059000,1.232058837890625,0.31377601623535156,0.31527015566825867,0.13926777243614197
1772619551798090000,1.242090087890625,0.27119410037994385,0.420297771692276,0.06838537752628326
1772619551808121000,1.25212109375,0.2567773461341858,0.5074760317802429,-0.025486521422863007
1772619551818152000,1.26215185546875,0.2569279968738556,0.5483940839767456,-0.11601076275110245
1772619551828183800,1.272183837890625,0.2591077983379364,0.529695987701416,-0.18277673423290253
1772619551838215000,1.28221484375,0.266654908657074,0.4522036015987396,-0.21033139526844025
1772619551848245800,1.292245849609375,0.2767256796360016,0.34278789162635803,-0.21383744478225708
1772619551858276900,1.30227685546875,0.2730030119419098,0.21087662875652313,-0.19913806021213531
1772619551868308000,1.312307861328125,0.2612888216972351,0.06361925601959229,-0.17305532097816467
1772619551878339000,1.322339111328125,0.2424236238002777,-0.07899978011846542,-0.15202967822551727
1772619551888370000,1.332369873046875,0.21495337784290314,-0.19360704720020294,-0.1476125568151474
1772619551898401000,1.342401123046875,0.15984663367271423,-0.29307353496551514,-0.16372674703598022
1772619551908432100,1.35243212890625,0.07461029291152954,-0.36705881357192993,-0.20665210485458374
1772619551918464000,1.362464111328125,-0.03788900002837181,-0.42475494742393494,-0.2732738256454468
1772619551928494800,1.372494873046875,-0.16466771066188812,-0.44084709882736206,-0.34279486536979675
1772619551938526000,1.38252587890625,-0.2750966548919678,-0.4016406238079071,-0.38291075825691223
1772619551948556800,1.392556884765625,-0.3603138029575348,-0.29812490940093994,-0.34125518798828125
1772619551958588000,1.402587890625,-0.39652812480926514,-0.11845025420188904,-0.21988815069198608
1772619551968618800,1.41261865234375,-0.3933064937591553,0.14124710857868195,-0.03658091276884079
1772619551978649900,1.42264990234375,-0.3646417260169983,0.4559788703918457,0.14713403582572937
1772619551988681000,1.432680908203125,-0.3327666223049164,0.7477601170539856,0.27468690276145935
1772619551998712000,1.442712158203125,-0.2908426821231842,0.954136312007904,0.32105955481529236
1772619552008743200,1.4527431640625,-0.24816900491714478,1.0774973630905151,0.30005335807800293
1772619552018775000,1.462775146484375,-0.21677042543888092,1.1100035905838013,0.24632227420806885
1772619552028806000,1.472805908203125,-0.21747057139873505,1.0647748708724976,0.18416303396224976
1772619552038837000,1.4828369140625,-0.2443910390138626,0.9308107495307922,0.13331124186515808
1772619552048867800,1.492867919921875,-0.2884109616279602,0.7374969720840454,0.09238617867231369
1772619552058899000,1.50289892578125,-0.34331637620925903,0.49116986989974976,0.07070573419332504
1772619552068929800,1.5129296875,-0.3995133340358734,0.21709275245666504,0.09717355668544769
1772619552078961000,1.5229609375,-0.4403943717479706,-0.15465176105499268,0.1524931639432907
1772619552088992000,1.532991943359375,-0.46725741028785706,-0.5892428755760193,0.2656053602695465
1772619552099022800,1.54302294921875,-0.49839791655540466,-1.006947636604309,0.4559713900089264
1772619552109055000,1.553054931640625,-0.5220071077346802,-1.3226020336151123,0.6950689554214478
1772619552119086000,1.563086181640625,-0.504334032535553,-1.4581923484802246,0.8936784267425537
1772619552129117000,1.573116943359375,-0.4439479112625122,-1.4124703407287598,0.9931693077087402
1772619552139148000,1.58314794921875,-0.3175507187843323,-1.2007839679718018,0.9496358633041382
1772619552149179000,1.593178955078125,-0.13416598737239838,-0.9304328560829163,0.7398142218589783
1772619552159210000,1.6032099609375,0.042291413992643356,-0.739258348941803,0.3464287519454956
1772619552169240800,1.61324072265625,0.11178979277610779,-0.6999341249465942,-0.22667047381401062
1772619552179272000,1.62327197265625,0.043163612484931946,-0.805543065071106,-0.8750823736190796
1772619552189303000,1.633302978515625,-0.10644026100635529,-0.9575006365776062,-1.4045324325561523
1772619552199334000,1.643333984375,-0.183689147233963,-0.9853194952011108,-1.6156926155090332
1772619552209365800,1.65336572265625,-0.1502598226070404,-0.8587732315063477,-1.5113345384597778
1772619552219397000,1.663397216796875,-0.023894794285297394,-0.6006036400794983,-1.1494123935699463
1772619552229428000,1.673427978515625,0.15687231719493866,-0.2610964775085449,-0.6262876987457275
1772619552239459000,1.683458984375,0.3287707567214966,0.08781679719686508,-0.07122115790843964
1772619552249490000,1.693489990234375,0.47733306884765625,0.3609793484210968,0.4053792357444763
1772619552259521000,1.70352099609375,0.5862844586372375,0.4355948567390442,0.7330040335655212
1772619552269551900,1.7135517578125,0.6833401918411255,0.32722923159599304,0.9222621321678162
1772619552279583000,1.7235830078125,0.7648588418960571,0.1085791140794754,1.0289136171340942
1772619552289614000,1.733614013671875,0.8165177702903748,-0.15785284340381622,1.094603419303894
1772619552299646000,1.74364599609375,0.8456547856330872,-0.3820298910140991,1.1475378274917603
1772619552309676800,1.7536767578125,0.8602182865142822,-0.49624887108802795,1.1936815977096558
1772619552319708000,1.7637080078125,0.8724842667579651,-0.46620362997055054,1.2331068515777588
1772619552329738800,1.77373876953125,0.886371374130249,-0.29535624384880066,1.2617027759552002
1772619552339769900,1.783769775390625,0.8918901681900024,-0.03693754971027374,1.2797796726226807
1772619552349801000,1.793801025390625,0.8729516267776489,0.2712807357311249,1.2902473211288452
1772619552359832000,1.80383203125,0.8411940932273865,0.6086831092834473,1.2632168531417847
1772619552369863000,1.81386279296875,0.8028634786605835,0.9107419848442078,1.1803630590438843
1772619552379894000,1.82389404296875,0.7616177201271057,1.12123441696167,1.0293190479278564
1772619552389925000,1.833925048828125,0.6945539712905884,1.20833158493042,0.8482275605201721
1772619552399957000,1.84395703125,0.5767545104026794,1.205583930015564,0.6570183038711548
1772619552409987800,1.85398779296875,0.4306250512599945,1.0860737562179565,0.4400273859500885
1772619552420019000,1.86401904296875,0.27192336320877075,0.8596562147140503,0.20437292754650116
1772619552430049800,1.8740498046875,0.11959641426801682,0.584053099155426,-0.025146016851067543
1772619552440081000,1.884080810546875,-0.027485717087984085,0.33335673809051514,-0.2059447467327118
1772619552450111700,1.89411181640625,-0.161607027053833,0.1633189618587494,-0.32927921414375305
1772619552460142800,1.904142822265625,-0.2716387212276459,0.05223722383379936,-0.39573022723197937
1772619552470174000,1.914174072265625,-0.3646927773952484,-0.005495046265423298,-0.41484373807907104
1772619552480205000,1.924205078125,-0.428398072719574,-0.03815775364637375,-0.39451220631599426
1772619552490236200,1.934236083984375,-0.46512386202812195,-0.07619009166955948,-0.3656643033027649
1772619552500268000,1.94426806640625,-0.4835270941257477,-0.17644043266773224,-0.3443737030029297
1772619552510299000,1.954298828125,-0.5028320550918579,-0.3870978057384491,-0.3537869155406952
1772619552520330000,1.964330078125,-0.5469582080841064,-0.6552177667617798,-0.3819983899593353
1772619552530360800,1.97436083984375,-0.5775704383850098,-0.8469765186309814,-0.3464675843715668
1772619552540392000,1.984391845703125,-0.5458207130432129,-0.860380232334137,-0.22516995668411255
1772619552550422800,1.9944228515625,-0.4280093312263489,-0.5798010230064392,-0.0194436963647604
1772619552560454000,2.004453857421875,-0.2115366905927658,-0.08419380336999893,0.19287945330142975
1772619552570485000,2.014485107421875,0.12226392328739166,0.4103530943393707,0.29158473014831543
1772619552580515800,2.024515869140625,0.5163858532905579,0.7265732288360596,0.22438551485538483
1772619552590548000,2.0345478515625,0.8345401287078857,0.8848081827163696,0.06911230832338333
1772619552600579000,2.0445791015625,0.9578929543495178,0.8554186820983887,-0.12168849259614944
1772619552610610000,2.05460986328125,0.8592678308486938,0.5831043720245361,-0.3714706301689148
1772619552620641000,2.06464111328125,0.5921041369438171,0.07071802020072937,-0.656848132610321
1772619552630672000,2.074671875,0.20810826122760773,-0.5328405499458313,-0.8953225016593933
1772619552640703000,2.084702880859375,-0.1986275315284729,-1.0034430027008057,-0.9966467618942261
1772619552650733000,2.094733154296875,-0.5161730051040649,-1.1673060655593872,-0.9304214119911194
1772619552660764000,2.104763916015625,-0.7078399062156677,-1.0191304683685303,-0.7775559425354004
1772619552670795000,2.114794921875,-0.7484909296035767,-0.6495029926300049,-0.6655476689338684
1772619552680825900,2.124825927734375,-0.6309314966201782,-0.23130415380001068,-0.6812058091163635
1772619552690858000,2.13485791015625,-0.4278910160064697,0.17344918847084045,-0.8036862015724182
1772619552700888800,2.144888916015625,-0.23038095235824585,0.44685623049736023,-0.9509527087211609
1772619552710920000,2.154919921875,-0.07116252928972244,0.5255297422409058,-1.0039904117584229
1772619552720950800,2.16495068359375,0.05159250646829605,0.4580062925815582,-0.9048572778701782
1772619552730982100,2.174982177734375,0.12631042301654816,0.30498823523521423,-0.6985733509063721
1772619552741013000,2.185012939453125,0.14864422380924225,0.12251229584217072,-0.4592999815940857
1772619552751044000,2.195044189453125,0.1355590522289276,-0.061733707785606384,-0.27351492643356323
1772619552761075000,2.205074951171875,0.11403200030326843,-0.19913311302661896,-0.1612982302904129
1772619552771106000,2.21510595703125,0.08191321790218353,-0.25348716974258423,-0.11740214377641678
1772619552781138000,2.225137939453125,0.05188838392496109,-0.22518980503082275,-0.12757590413093567
1772619552791169000,2.2351689453125,0.01874587871134281,-0.10842003673315048,-0.1518910974264145
1772619552801199900,2.245199951171875,-0.016200557351112366,0.06056791543960571,-0.17474432289600372
1772619552811231000,2.25523095703125,-0.05315830931067467,0.24515213072299957,-0.19174620509147644
1772619552821261800,2.26526171875,-0.09182991087436676,0.4041098952293396,-0.2084941267967224
1772619552831293000,2.27529296875,-0.13922324776649475,0.5096219778060913,-0.24157990515232086
1772619552841323800,2.28532373046875,-0.1791837215423584,0.5513603687286377,-0.28750506043434143
1772619552851355000,2.29535498046875,-0.19895023107528687,0.5356432199478149,-0.33192819356918335
1772619552861386000,2.305385986328125,-0.20860517024993896,0.463959276676178,-0.36699411273002625
1772619552871418000,2.315418212890625,-0.194370299577713,0.3395611643791199,-0.3757372796535492
1772619552881449000,2.325448974609375,-0.15567313134670258,0.1807912141084671,-0.3510049283504486
1772619552891480000,2.33547998046875,-0.10837460309267044,0.0802329033613205,-0.27014070749282837
1772619552901511000,2.345510986328125,-0.0653357058763504,0.01724046654999256,-0.15356731414794922
1772619552911542000,2.3555419921875,-0.03721591830253601,-0.03692610189318657,-0.03801194578409195
1772619552921572900,2.36557275390625,-0.04216567799448967,-0.08949220925569534,0.04405346140265465
1772619552931604000,2.37560400390625,-0.07838147133588791,-0.10728079080581665,0.09546072781085968
1772619552941634800,2.385634765625,-0.1502528190612793,-0.1103578582406044,0.08995310217142105
1772619552951666000,2.395666015625,-0.24343496561050415,-0.10951337218284607,0.040806595236063004
1772619552961696800,2.40569677734375,-0.33615514636039734,-0.08659692853689194,-0.03816086798906326
1772619552971729200,2.415729248046875,-0.41802895069122314,-0.039714373648166656,-0.12249332666397095
1772619552981760000,2.425760009765625,-0.4852035641670227,0.04479587823152542,-0.2007344514131546
1772619552991791000,2.435791015625,-0.5374678373336792,0.13749545812606812,-0.26369771361351013
1772619553001822000,2.445822021484375,-0.573706328868866,0.21532559394836426,-0.3117179274559021
1772619553011853000,2.45585302734375,-0.6001395583152771,0.26062968373298645,-0.35353514552116394
1772619553021884000,2.4658837890625,-0.6147995591163635,0.26348239183425903,-0.36302441358566284
1772619553031915000,2.4759150390625,-0.6219679713249207,0.23564866185188293,-0.3380966782569885
1772619553041945900,2.48594580078125,-0.6159484386444092,0.1655692607164383,-0.2640363574028015
1772619553051977000,2.49597705078125,-0.5927157998085022,0.08952457457780838,-0.1345803588628769
1772619553062008800,2.5060087890625,-0.5336900353431702,0.052015118300914764,0.061441585421562195
1772619553072040000,2.5160400390625,-0.4411100447177887,0.06635277718305588,0.3176962733268738
1772619553082071000,2.526071044921875,-0.32393956184387207,0.13199299573898315,0.6104332208633423
1772619553092102100,2.53610205078125,-0.1913335919380188,0.25597381591796875,0.8764380216598511
1772619553102133000,2.546133056640625,-0.05371314659714699,0.35873672366142273,1.063844919204712
1772619553112164000,2.5561640625,0.0854247659444809,0.4084502160549164,1.1729024648666382
1772619553122195000,2.56619482421875,0.20522662997245789,0.3882337212562561,1.2333132028579712
1772619553132226000,2.57622607421875,0.31427934765815735,0.347932368516922,1.2695661783218384
1772619553142257000,2.5862568359375,0.3969111144542694,0.27471283078193665,1.3002556562423706
1772619553152288000,2.5962880859375,0.4379485547542572,0.14924362301826477,1.3251290321350098
1772619553162320000,2.60631982421875,0.4190479516983032,0.02573472447693348,1.3013973236083984
1772619553172351000,2.61635107421875,0.33938106894493103,-0.11637607216835022,1.1204038858413696
1772619553182381800,2.6263818359375,0.23991402983665466,-0.2921176552772522,0.7050027847290039
1772619553192413000,2.636412841796875,0.13811896741390228,-0.4573691785335541,0.12780627608299255
1772619553202443800,2.64644384765625,0.06136222556233406,-0.5571437478065491,-0.40802475810050964
1772619553212475100,2.65647509765625,0.03844013437628746,-0.5637017488479614,-0.7377177476882935
1772619553222506000,2.666506103515625,0.10515967756509781,-0.5360897779464722,-0.8111401200294495
1772619553232537000,2.676537109375,0.2611103951931,-0.5528085827827454,-0.682805597782135
1772619553242568000,2.68656787109375,0.46943536400794983,-0.624652087688446,-0.41357338428497314
1772619553252600000,2.69660009765625,0.6542484164237976,-0.687420129776001,-0.12540312111377716
1772619553262631000,2.706630859375,0.7542611956596375,-0.7303791642189026,0.05330704525113106
1772619553272662000,2.716662109375,0.7676388025283813,-0.7488258481025696,0.10931998491287231
1772619553282692900,2.72669287109375,0.7114502191543579,-0.742853581905365,0.06479395925998688
1772619553292724000,2.736723876953125,0.6067280173301697,-0.7206750512123108,-0.02607230469584465
1772619553302754800,2.7467548828125,0.46307244896888733,-0.659055233001709,-0.10293766856193542
1772619553312786000,2.756785888671875,0.3147610127925873,-0.5396769046783447,-0.1205611377954483
1772619553322816800,2.766816650390625,0.18094366788864136,-0.3591509163379669,-0.0839451476931572
1772619553332848000,2.77684814453125,0.07277005165815353,-0.1632802039384842,-0.004072955343872309
1772619553342879000,2.78687890625,-0.012864071875810623,0.025323428213596344,0.09321097284555435
1772619553352911000,2.7969111328125,-0.07688885927200317,0.21660444140434265,0.19299481809139252
1772619553362942000,2.80694189453125,-0.12780387699604034,0.40962016582489014,0.257674902677536
1772619553372973000,2.81697314453125,-0.1803389936685562,0.5824236273765564,0.23735207319259644
1772619553383004000,2.82700390625,-0.23240512609481812,0.7113659977912903,0.13514180481433868
1772619553393035000,2.837034912109375,-0.2854401171207428,0.8193832635879517,-0.013420775532722473
1772619553403065900,2.84706591796875,-0.33369889855384827,0.8908423185348511,-0.18345068395137787
1772619553413097000,2.857096923828125,-0.35944873094558716,0.941206693649292,-0.34338682889938354
1772619553423127800,2.8671279296875,-0.3700084388256073,0.9602540135383606,-0.473705917596817
1772619553433159000,2.877158935546875,-0.3677668571472168,0.9147909283638,-0.5573086738586426
1772619553443191000,2.88719091796875,-0.3449755311012268,0.7961479425430298,-0.5831932425498962
1772619553453222100,2.89722216796875,-0.32218366861343384,0.6168306469917297,-0.5306499004364014
1772619553463253000,2.9072529296875,-0.29149284958839417,0.3950180411338806,-0.3970862329006195
1772619553473284000,2.9172841796875,-0.26056531071662903,0.1785709261894226,-0.19203481078147888
1772619553483315000,2.92731494140625,-0.2530257999897003,0.0828532949090004,0.06745573878288269
1772619553493346000,2.937345947265625,-0.26941171288490295,0.10046238452196121,0.34182098507881165
1772619553503377000,2.947376953125,-0.2933461666107178,0.17879097163677216,0.5861762762069702
1772619553513408000,2.957407958984375,-0.29625192284584045,0.24901266396045685,0.7581318020820618
1772619553523438800,2.96743896484375,-0.2753101587295532,0.2830314040184021,0.8590466976165771
1772619553533470000,2.977469970703125,-0.254146546125412,0.26270508766174316,0.8980819582939148
1772619553543501800,2.987501708984375,-0.24738016724586487,0.17407183349132538,0.8870382905006409
1772619553553533000,2.997532958984375,-0.24847951531410217,0.04455965384840965,0.8437755107879639
1772619553563564000,3.00756396484375,-0.26572418212890625,-0.08371742069721222,0.7502434253692627
1772619553573595100,3.01759521484375,-0.2963119149208069,-0.22763517498970032,0.5810272693634033
1772619553583626000,3.0276259765625,-0.3089991509914398,-0.43943700194358826,0.41502365469932556
1772619553593657000,3.037656982421875,-0.32902586460113525,-0.5512964129447937,0.3481881618499756
1772619553603688000,3.04768798828125,-0.35929614305496216,-0.6215925216674805,0.3804987072944641
1772619553613719000,3.057718994140625,-0.3555469512939453,-0.8805518746376038,0.4507664740085602
1772619553623750000,3.06775,-0.2773255407810211,-1.239978313446045,0.5095407962799072
1772619553633782000,3.077781982421875,-0.16813674569129944,-1.4102494716644287,0.5449253916740417
1772619553643812900,3.087812744140625,-0.05144626274704933,-1.1731009483337402,0.48424413800239563
1772619553653844000,3.097843994140625,0.03914835304021835,-0.7274520397186279,0.14486819505691528
1772619553663875000,3.107875,0.019710028544068336,-0.47645121812820435,-0.5910040736198425
1772619553673906200,3.11790625,-0.13714270293712616,-0.5119367837905884,-1.5269083976745605
1772619553683937000,3.12793701171875,-0.3638897240161896,-0.624943733215332,-2.275197744369507
1772619553693968100,3.137968017578125,-0.531848132610321,-0.6909464597702026,-2.5088961124420166
1772619553703999000,3.1479990234375,-0.5437654256820679,-0.6624600887298584,-2.1859805583953857
1772619553714030000,3.158030029296875,-0.3659037947654724,-0.5221538543701172,-1.4922362565994263
1772619553724062000,3.16806201171875,-0.028733760118484497,-0.26067355275154114,-0.7269464135169983
1772619553734093000,3.178093017578125,0.3374583423137665,0.042930010706186295,-0.14181341230869293
1772619553744124000,3.1881240234375,0.5885775685310364,0.3242317736148834,0.11306372284889221
1772619553754155000,3.198155029296875,0.6995163559913635,0.5356606841087341,0.0686725527048111
1772619553764185900,3.208185791015625,0.6916714906692505,0.6924753189086914,-0.16006502509117126
1772619553774217000,3.218217041015625,0.589194655418396,0.7998864650726318,-0.454062819480896
1772619553784248000,3.228248046875,0.4411531388759613,0.8621790409088135,-0.7084977030754089
1772619553794279200,3.238279052734375,0.3082355558872223,0.8897789716720581,-0.8567143678665161
1772619553804310000,3.24831005859375,0.22043932974338531,0.8889526724815369,-0.8889917731285095
1772619553814341000,3.258341064453125,0.18834397196769714,0.8509480357170105,-0.8210625052452087
1772619553824373000,3.268373046875,0.2204681783914566,0.775999903678894,-0.6841188073158264
1772619553834404000,3.278404052734375,0.2910161018371582,0.6467569470405579,-0.4958319365978241
1772619553844435000,3.28843505859375,0.3795362114906311,0.45888751745224,-0.2701142728328705
1772619553854466000,3.298466064453125,0.4471842348575592,0.21716998517513275,-0.022457342594861984
1772619553864497000,3.308496826171875,0.5052770972251892,-0.03296395018696785,0.2216232270002365
1772619553874528000,3.318528076171875,0.5443917512893677,-0.22996249794960022,0.43799975514411926
1772619553884558800,3.328558837890625,0.5578924417495728,-0.3445730209350586,0.5777730345726013
1772619553894590000,3.33858984375,0.5537530779838562,-0.3982045352458954,0.6068451404571533
1772619553904620800,3.348620849609375,0.5172197818756104,-0.39240148663520813,0.532731831073761
1772619553914652200,3.358652099609375,0.43978196382522583,-0.34035372734069824,0.37792789936065674
1772619553924684000,3.36868408203125,0.3212621510028839,-0.24481964111328125,0.16423805058002472
1772619553934715100,3.378715087890625,0.1802016943693161,-0.11406402289867401,-0.06711340695619583
1772619553944746000,3.38874609375,0.026837358251214027,0.020478500053286552,-0.2813284397125244
1772619553954777000,3.398777099609375,-0.12555910646915436,0.10980651527643204,-0.438636839389801
1772619553964808000,3.408807861328125,-0.24413740634918213,0.1426190584897995,-0.508133053779602
1772619553974839000,3.418839111328125,-0.3272927403450012,0.14895232021808624,-0.47156113386154175
1772619553984870000,3.428869873046875,-0.3673212230205536,0.13892072439193726,-0.34980508685112
1772619553994901000,3.43890087890625,-0.3652801811695099,0.12742891907691956,-0.17862404882907867
1772619554004931800,3.448931884765625,-0.3278336524963379,0.16153128445148468,-0.0005843971157446504
1772619554014964200,3.458964111328125,-0.27748098969459534,0.2519610524177551,0.1457030326128006
1772619554024995000,3.4689951171875,-0.23097465932369232,0.38282716274261475,0.222042515873909
1772619554035026200,3.479026123046875,-0.20648156106472015,0.49957162141799927,0.21319922804832458
1772619554045057000,3.48905712890625,-0.2045884132385254,0.5585400462150574,0.1538187861442566
1772619554055088000,3.499088134765625,-0.22106219828128815,0.5518072843551636,0.09327368438243866
1772619554065119000,3.509118896484375,-0.25504711270332336,0.4813547134399414,0.0631464421749115
1772619554075150000,3.519150146484375,-0.30425116419792175,0.3581981658935547,0.059531472623348236
1772619554085181000,3.529180908203125,-0.35211414098739624,0.20406973361968994,0.07801555097103119
1772619554095212000,3.5392119140625,-0.4021061956882477,0.012205498293042183,0.13355177640914917
1772619554105244000,3.549243896484375,-0.46801844239234924,-0.27637824416160583,0.2670324146747589
1772619554115275000,3.55927490234375,-0.5104538202285767,-0.5559630393981934,0.4585781395435333
1772619554125305900,3.569305908203125,-0.4963562488555908,-0.7039753198623657,0.6779849529266357
1772619554135337000,3.5793369140625,-0.39392176270484924,-0.7113770246505737,0.8951649069786072
1772619554145368000,3.5893681640625,-0.2382022887468338,-0.6164659261703491,1.043022871017456
1772619554155399200,3.599399169921875,-0.08539436757564545,-0.4946627616882324,1.1311227083206177
1772619554165430000,3.609429931640625,0.016318142414093018,-0.3525930345058441,1.1865708827972412
1772619554175461000,3.619461181640625,0.051439907401800156,-0.20122960209846497,1.1933815479278564
1772619554185492000,3.629491943359375,0.037275176495313644,-0.039227817207574844,1.1099846363067627
1772619554195523000,3.639523193359375,0.015744848176836967,0.07885488867759705,0.9163251519203186
1772619554205555000,3.649554931640625,-0.0447622649371624,0.15519481897354126,0.6197255253791809
1772619554215586000,3.6595859375,-0.164045512676239,0.19740167260169983,0.2205970585346222
1772619554225617000,3.669616943359375,-0.3884027302265167,0.14205756783485413,-0.3092963695526123
1772619554235648000,3.67964794921875,-0.7178323268890381,-0.02035905048251152,-0.9747042059898376
1772619554245678800,3.689678955078125,-1.0789767503738403,-0.2334909737110138,-1.7034498453140259
1772619554255710000,3.6997099609375,-1.3434382677078247,-0.40425369143486023,-2.341538190841675
1772619554265741000,3.709740966796875,-1.4771772623062134,-0.4088851809501648,-2.7223260402679443
1772619554275772200,3.719772216796875,-1.5226722955703735,-0.3435943126678467,-2.8123762607574463
1772619554285803000,3.729802978515625,-1.4983144998550415,-0.3262326121330261,-2.686286687850952
1772619554295835100,3.739835205078125,-1.40677011013031,-0.3947645425796509,-2.4491093158721924
1772619554305866000,3.749865966796875,-1.2144941091537476,-0.5392414927482605,-2.151367425918579
1772619554315897000,3.75989697265625,-0.9286181330680847,-0.7328383922576904,-1.8413130044937134
1772619554325928000,3.769927978515625,-0.5830140709877014,-0.9804831743240356,-1.49222993850708
1772619554335959000,3.779958984375,-0.2375544309616089,-1.2901737689971924,-1.1037425994873047
1772619554345990000,3.789989990234375,0.05682437866926193,-1.536987066268921,-0.6741368174552917
1772619554356021000,3.80002099609375,0.26176074147224426,-1.6029703617095947,-0.22151421010494232
1772619554366051800,3.8100517578125,0.3816938102245331,-1.4801950454711914,0.20811524987220764
1772619554376083000,3.8200830078125,0.4310704171657562,-1.2055022716522217,0.5780144929885864
1772619554386113800,3.83011376953125,0.4464825689792633,-0.8327118158340454,0.8736427426338196
1772619554396146200,3.840146240234375,0.45722496509552,-0.41288840770721436,1.0933852195739746
1772619554406177000,3.850177001953125,0.5041723251342773,0.003424678463488817,1.2565913200378418
1772619554416208100,3.8602080078125,0.5879777073860168,0.3298477828502655,1.366016149520874
1772619554426239000,3.870239013671875,0.6703158617019653,0.5136032700538635,1.406545639038086
1772619554436270000,3.88027001953125,0.7239939570426941,0.5233637690544128,1.366498351097107
1772619554446301000,3.890301025390625,0.7439808249473572,0.33848145604133606,1.2455613613128662
1772619554456332000,3.90033203125,0.7285068035125732,0.0057112122885882854,1.0395262241363525
1772619554466363000,3.91036279296875,0.6907541751861572,-0.33302760124206543,0.8167287707328796
1772619554476394000,3.92039404296875,0.6023534536361694,-0.48695722222328186,0.6841741800308228
1772619554486425900,3.93042578125,0.4875137209892273,-0.4914190471172333,0.6499805450439453
1772619554496457200,3.940457275390625,0.38551172614097595,-0.3725733458995819,0.7261903285980225
1772619554506488000,3.950488037109375,0.3065825402736664,-0.1303708255290985,0.8950137495994568
1772619554516519200,3.960519287109375,0.2394527792930603,0.189139261841774,1.109836459159851
1772619554526550000,3.970550048828125,0.19121049344539642,0.5100114941596985,1.321880578994751
1772619554536581000,3.9805810546875,0.17320913076400757,0.7771888375282288,1.4825536012649536
1772619554546612000,3.990612060546875,0.17943231761455536,0.9355928897857666,1.5458101034164429
1772619554556643000,4.00064306640625,0.19858418405056,0.9537614583969116,1.50102961063385
1772619554566674000,4.010673828125,0.20514735579490662,0.8174492120742798,1.3093231916427612
1772619554576705000,4.020705078125,0.19481880962848663,0.5621628761291504,0.9815695285797119
1772619554586737000,4.03073681640625,0.1608366221189499,0.3071328401565552,0.6342999339103699
1772619554596768000,4.04076806640625,0.12280375510454178,0.11169011145830154,0.37147659063339233
1772619554606798800,4.050798828125,0.09720464050769806,-0.07463480532169342,0.20883949100971222
1772619554616830200,4.060830322265625,0.09155980497598648,-0.1631937026977539,0.1147950142621994
1772619554626861000,4.070861083984375,0.10247495025396347,-0.032983604818582535,0.058038130402565
1772619554636892200,4.08089208984375,0.04963916167616844,0.3266792297363281,-0.0312105230987072
1772619554646923000,4.090923095703125,-0.12105818837881088,0.7095133066177368,-0.19782622158527374
1772619554656955000,4.100954833984375,-0.37635332345962524,0.7301054000854492,-0.4617244303226471
1772619554666985700,4.11098583984375,-0.6504116058349609,0.469900518655777,-0.7558642029762268
1772619554677016800,4.121016845703125,-0.8383780717849731,0.42920634150505066,-0.9087620973587036
1772619554687049000,4.131049072265625,-0.8720955848693848,0.7209187150001526,-0.9391785264015198
1772619554697079800,4.141079833984375,-0.8944754600524902,1.0048325061798096,-1.0454530715942383
1772619554707111000,4.15111083984375,-0.9756366014480591,0.9382371306419373,-1.3496350049972534
1772619554717141800,4.161141845703125,-1.0405396223068237,0.6086355447769165,-1.7161622047424316
1772619554727172900,4.1711728515625,-1.004665732383728,0.32249587774276733,-1.8544659614562988
1772619554737203700,4.18120361328125,-0.8004714846611023,0.2884220480918884,-1.5878545045852661
1772619554747234800,4.19123486328125,-0.4451041519641876,0.4012272357940674,-0.9833722710609436
1772619554757266000,4.201265869140625,0.004301619715988636,0.4847583472728729,-0.22490589320659637
1772619554767296800,4.211296875,0.39377665519714355,0.4555584490299225,0.4643154740333557
1772619554777328600,4.22132861328125,0.6403696537017822,0.1761305183172226,0.8406400680541992
1772619554787359700,4.23135986328125,0.808792233467102,-0.3696308135986328,0.82100909948349
1772619554797390800,4.241390869140625,0.8829942941665649,-0.9393894076347351,0.5615777969360352
1772619554807422000,4.251421875,0.836416482925415,-1.3722186088562012,0.2001921385526657
1772619554817452800,4.261452880859375,0.7360156178474426,-1.5994850397109985,-0.12271108478307724
1772619554827484000,4.27148388671875,0.5847271084785461,-1.603893756866455,-0.3236570656299591
1772619554837514800,4.2815146484375,0.3907850384712219,-1.4357528686523438,-0.412617564201355
1772619554847545900,4.2915458984375,0.1987314522266388,-1.1293727159500122,-0.4150450527667999
1772619554857577000,4.301576904296875,0.05482381209731102,-0.676813006401062,-0.3708975613117218
1772619554867607800,4.31160791015625,-0.024156052619218826,-0.12060682475566864,-0.3043935000896454
1772619554877639700,4.3216396484375,-0.04540648311376572,0.3868585228919983,-0.23741474747657776
1772619554887670800,4.3316708984375,-0.020177463069558144,0.7470665574073792,-0.191878542304039
1772619554897701600,4.34170166015625,0.04808254912495613,0.9412919282913208,-0.1389697939157486
1772619554907732700,4.351732666015625,0.12827743589878082,1.0162360668182373,-0.0633004903793335
1772619554917763600,4.361763671875,0.20606836676597595,0.9754148721694946,0.03771906718611717
1772619554927795000,4.371794921875,0.27070510387420654,0.8596686124801636,0.1549423485994339
1772619554937825800,4.38182568359375,0.32285645604133606,0.6929656863212585,0.2842497229576111
1772619554947857000,4.39185693359375,0.3578845262527466,0.493316113948822,0.40498948097229004
1772619554957888000,4.401887939453125,0.365217000246048,0.3014329969882965,0.49709996581077576
1772619554967919900,4.411919921875,0.3420974910259247,0.12975913286209106,0.5346152782440186
1772619554977950700,4.42195068359375,0.29098156094551086,-0.022765163332223892,0.4949762225151062
1772619554987981800,4.43198193359375,0.1954556703567505,-0.1489185243844986,0.39574378728866577
1772619554998012700,4.4420126953125,0.06100864335894585,-0.2660946846008301,0.22382022440433502
1772619555008043800,4.452043701171875,-0.11189034581184387,-0.3743378818035126,-0.03352084383368492
1772619555018074600,4.46207470703125,-0.3017830550670624,-0.47857508063316345,-0.32378089427948
1772619555028105700,4.472105712890625,-0.4796033799648285,-0.5407128930091858,-0.5775987505912781
1772619555038136800,4.48213671875,-0.608929455280304,-0.5122977495193481,-0.7143749594688416
1772619555048168000,4.49216796875,-0.6624561548233032,-0.3873394727706909,-0.7034891843795776
1772619555058199000,4.502198974609375,-0.6396488547325134,-0.18143635988235474,-0.5534437894821167
1772619555068231000,4.51223095703125,-0.5248627662658691,0.10408683866262436,-0.2983357608318329
1772619555078261800,4.52226171875,-0.34908053278923035,0.4718123972415924,-0.014376208186149597
1772619555088292900,4.53229296875,-0.1489524096250534,0.845304012298584,0.21865777671337128
1772619555098323700,4.54232373046875,0.014192313887178898,1.1071276664733887,0.34526526927948
1772619555108354800,4.552354736328125,0.11858130246400833,1.1893173456192017,0.3571527600288391
1772619555118385700,4.5623857421875,0.1626342535018921,1.1279810667037964,0.2746720016002655
1772619555128416800,4.572416748046875,0.15307866036891937,0.9375492334365845,0.15980501472949982
1772619555138448000,4.58244775390625,0.10098295658826828,0.6477914452552795,0.07283415645360947
1772619555148478700,4.592478759765625,0.02552255429327488,0.2887921929359436,0.0507400706410408
1772619555158510800,4.6025107421875,-0.06839488446712494,-0.1385338455438614,0.08831673860549927
1772619555168542000,4.6125419921875,-0.1368941366672516,-0.6539093255996704,0.21439030766487122
1772619555178572800,4.62257275390625,-0.16158083081245422,-1.1748477220535278,0.46887797117233276
1772619555188604000,4.63260400390625,-0.11695868521928787,-1.5167350769042969,0.8226370215415955
1772619555198634800,4.642634765625,-0.027036525309085846,-1.6144949197769165,1.1844205856323242
1772619555208665900,4.652665771484375,0.11229562014341354,-1.5696396827697754,1.4161722660064697
1772619555218697000,4.662697021484375,0.30634552240371704,-1.4383221864700317,1.4505044221878052
1772619555228727800,4.672727783203125,0.4503746032714844,-1.173917293548584,1.3252828121185303
1772619555238759000,4.682759033203125,0.5143258571624756,-0.854727566242218,1.0643560886383057
1772619555248789800,4.692789794921875,0.5355072617530823,-0.5168600082397461,0.7124434113502502
1772619555258821600,4.702821533203125,0.5319340825080872,-0.1744190901517868,0.3090762794017792
1772619555268852700,4.712852783203125,0.4884202480316162,0.07593552768230438,-0.1118827611207962
1772619555278883800,4.7228837890625,0.4205024540424347,0.16551360487937927,-0.5224041938781738
1772619555288915000,4.7329150390625,0.3079753816127777,0.05191253498196602,-0.9070497155189514
1772619555298945800,4.74294580078125,0.14281490445137024,-0.2636853754520416,-1.2431411743164062
1772619555308977000,4.752976806640625,-0.007539698854088783,-0.6151694059371948,-1.4487701654434204
1772619555319008000,4.763008056640625,-0.08643584698438644,-0.8305040597915649,-1.4972813129425049
1772619555329038800,4.773038818359375,-0.11104567348957062,-0.9183046221733093,-1.4134125709533691
1772619555339070000,4.783070068359375,-0.07693297415971756,-0.9980401992797852,-1.243807315826416
1772619555349100800,4.793100830078125,-0.017763309180736542,-1.1640892028808594,-1.0276542901992798
1772619555359132700,4.803132568359375,0.032463107258081436,-1.3820972442626953,-0.7930136322975159
1772619555369163800,4.813163818359375,0.07333233207464218,-1.6028834581375122,-0.5506788492202759
1772619555379194600,4.823194580078125,0.10117674618959427,-1.7468361854553223,-0.31345778703689575
1772619555389225700,4.833225830078125,0.10854988545179367,-1.7162554264068604,-0.08880647271871567
1772619555399256800,4.8432568359375,0.11522004008293152,-1.5473167896270752,0.10671615600585938
1772619555409288000,4.853287841796875,0.11767511814832687,-1.2471214532852173,0.26305365562438965
1772619555419319000,4.863319091796875,0.12432796508073807,-0.8127933740615845,0.38339418172836304
1772619555429350000,4.873349853515625,0.1429147869348526,-0.287480890750885,0.48095718026161194
1772619555439381000,4.883381103515625,0.19456785917282104,0.24665604531764984,0.5432759523391724
1772619555449411800,4.893411865234375,0.25556543469429016,0.7308558821678162,0.5704398155212402
1772619555459443700,4.903443603515625,0.3208581507205963,1.1159095764160156,0.5656884908676147
1772619555469474800,4.913474853515625,0.36805620789527893,1.3385812044143677,0.5279340744018555
1772619555479505700,4.923505615234375,0.3726285696029663,1.385835886001587,0.42938563227653503
1772619555489536800,4.933536865234375,0.3548697531223297,1.2907017469406128,0.2894946336746216
1772619555499567900,4.94356787109375,0.31153586506843567,1.1088190078735352,0.12525880336761475
1772619555509598700,4.9535986328125,0.2668588161468506,0.9303513765335083,-0.037331294268369675
1772619555519629800,4.9636298828125,0.23759815096855164,0.7937812805175781,-0.15696501731872559
1772619555529661000,4.973660888671875,0.21262498199939728,0.5588798522949219,-0.22062961757183075
1772619555539692000,4.983692138671875,0.14787901937961578,0.3160083591938019,-0.21876193583011627
1772619555549724000,4.993723876953125,0.06314690411090851,0.2638348340988159,-0.14241452515125275
1772619555559754800,5.003754638671875,0.05079277232289314,0.4224013090133667,0.0344419963657856
1772619555569785900,5.013785888671875,0.09096547961235046,0.6454618573188782,0.2790723145008087
1772619555579816700,5.023816650390625,0.1285429447889328,0.9109966158866882,0.5570738315582275
1772619555589847800,5.033847900390625,0.17190490663051605,1.1669292449951172,0.8157204389572144
1772619555599879000,5.04387890625,0.21796880662441254,1.344922661781311,1.0239710807800293
1772619555609909800,5.05390966796875,0.2631186842918396,1.3689093589782715,1.1413915157318115
1772619555619940900,5.06394091796875,0.30355265736579895,1.226309895515442,1.1711190938949585
1772619555629971700,5.0739716796875,0.3417174816131592,0.9912406206130981,1.1244819164276123
1772619555640002800,5.0840029296875,0.38248565793037415,0.7538893222808838,1.0504350662231445
1772619555650035000,5.094034912109375,0.4328062832355499,0.5498020648956299,0.9662833213806152
1772619555660065500,5.1040654296875,0.4736216068267822,0.3401780128479004,0.8668222427368164
1772619555670096600,5.1140966796875,0.5354872345924377,0.06276576220989227,0.7483596801757812
1772619555680127700,5.124127685546875,0.59136563539505,-0.23521852493286133,0.63547283411026
1772619555690158600,5.13415869140625,0.5635490417480469,-0.4933551549911499,0.6025003790855408
1772619555700189700,5.144189697265625,0.42128267884254456,-0.7134395837783813,0.6627706289291382
1772619555710220500,5.154220458984375,0.18124106526374817,-0.9178386926651001,0.7710717916488647
1772619555720251600,5.164251708984375,-0.0974225252866745,-1.0557681322097778,0.8612626791000366
1772619555730282500,5.174282470703125,-0.32457026839256287,-0.9482176303863525,0.8675254583358765
1772619555740313600,5.184313720703125,-0.48709580302238464,-0.5919191241264343,0.6882489323616028
1772619555750345700,5.194345703125,-0.5775438547134399,-0.21349714696407318,0.23859673738479614
1772619555760376600,5.20437646484375,-0.6300795078277588,0.11429697275161743,-0.4483635127544403
1772619555770407700,5.21440771484375,-0.7015787959098816,0.491610586643219,-1.199346661567688
1772619555780438800,5.224438720703125,-0.7565944194793701,0.8105291724205017,-1.8395673036575317
1772619555790469600,5.2344697265625,-0.7580206990242004,1.072145938873291,-2.188952922821045
1772619555800500700,5.244500732421875,-0.7162026762962341,1.1807307004928589,-2.1987686157226562
1772619555810531600,5.254531494140625,-0.6140202879905701,1.1193164587020874,-1.9688889980316162
1772619555820562700,5.264562744140625,-0.457975834608078,0.9104397296905518,-1.5964884757995605
1772619555830593500,5.274593505859375,-0.2994130253791809,0.6477605700492859,-1.1628689765930176
1772619555840624600,5.284624755859375,-0.14912337064743042,0.38672205805778503,-0.7088820338249207
1772619555850656500,5.294656494140625,-0.01756570301949978,0.14390605688095093,-0.2949063777923584
1772619555860687600,5.3046875,0.07566357403993607,-0.06682508438825607,0.025298530235886574
1772619555870718700,5.31471875,0.1122179627418518,-0.2165776789188385,0.19969652593135834
1772619555880749800,5.324749755859375,0.1074727475643158,-0.2892928719520569,0.230820894241333
1772619555890780700,5.33478076171875,0.05624593421816826,-0.2362690269947052,0.15702594816684723
1772619555900811800,5.344811767578125,-0.021053114905953407,-0.06836231797933578,0.030567875131964684
1772619555910842600,5.354842529296875,-0.09475165605545044,0.18189620971679688,-0.09362006932497025
1772619555920873700,5.364873779296875,-0.129921093583107,0.4421813189983368,-0.17083655297756195
1772619555930905600,5.374905517578125,-0.12537427246570587,0.6551990509033203,-0.17861272394657135
1772619555940936400,5.3849365234375,-0.08483537286520004,0.7831543684005737,-0.11627637594938278
1772619555950967600,5.394967529296875,-0.01896626316010952,0.8159093856811523,0.004842552822083235
1772619555960998700,5.40499853515625,0.0485595166683197,0.7413759827613831,0.16769832372665405
1772619555971029500,5.415029541015625,0.11222007870674133,0.5802707076072693,0.3453984558582306
1772619555981060600,5.425060546875,0.16387447714805603,0.39249998331069946,0.5334413051605225
1772619555991091700,5.435091796875,0.20021899044513702,0.2360357642173767,0.7077895998954773
1772619556001122800,5.445122802734375,0.23369945585727692,0.14460891485214233,0.8295831680297852
1772619556011153700,5.455153564453125,0.2592945694923401,0.09757674485445023,0.8840100765228271
1772619556021184800,5.465184814453125,0.2682630121707916,0.07706428319215775,0.8556378483772278
1772619556031216600,5.475216552734375,0.25311657786369324,0.07338549196720123,0.7382976412773132
1772619556041247500,5.48524755859375,0.20055562257766724,0.04534001275897026,0.5458781123161316
1772619556051278600,5.495278564453125,0.11050304770469666,-0.047579966485500336,0.3205570578575134
1772619556061309700,5.505309814453125,-0.029869239777326584,-0.19768930971622467,0.070014588534832
1772619556071340500,5.515340576171875,-0.20564408600330353,-0.3911202549934387,-0.1685725897550583
1772619556081371600,5.52537158203125,-0.39206430315971375,-0.5867379307746887,-0.37546852231025696
1772619556091402500,5.535402587890625,-0.5450462102890015,-0.6888893842697144,-0.5147845149040222
1772619556101433600,5.54543359375,-0.6495593190193176,-0.6784799098968506,-0.5536789298057556
1772619556111464700,5.555464599609375,-0.678999662399292,-0.5629850029945374,-0.49576321244239807
1772619556121495800,5.565495849609375,-0.6250043511390686,-0.33852124214172363,-0.36836397647857666
1772619556131527700,5.575527587890625,-0.4907463788986206,-0.04612663388252258,-0.2086697518825531
1772619556141558500,5.58555859375,-0.3113292157649994,0.24578110873699188,-0.06979575753211975
1772619556151589600,5.595589599609375,-0.10727640241384506,0.49450016021728516,0.01999053917825222
1772619556161620700,5.605620849609375,0.08233214169740677,0.6687572002410889,0.07042521983385086
1772619556171651600,5.615651611328125,0.20599006116390228,0.7058254480361938,0.08097758889198303
1772619556181682700,5.6256826171875,0.23721136152744293,0.5868122577667236,0.06700558215379715
1772619556191713500,5.635713623046875,0.20543710887432098,0.3765697181224823,0.04042808338999748
1772619556201744600,5.64574462890625,0.12769092619419098,0.13544949889183044,0.028279278427362442
1772619556211775500,5.655775390625,0.026619603857398033,-0.08841341733932495,0.0422588586807251
1772619556221806600,5.665806640625,-0.08070472627878189,-0.23889799416065216,0.07871460169553757
1772619556231837400,5.67583740234375,-0.16946274042129517,-0.30318015813827515,0.12449745088815689
1772619556241868800,5.685868896484375,-0.22473078966140747,-0.29193761944770813,0.17801421880722046
1772619556251900700,5.695900634765625,-0.2385910153388977,-0.20754028856754303,0.24285613000392914
1772619556261931800,5.705931884765625,-0.21708066761493683,-0.06717332452535629,0.34003326296806335
1772619556271962600,5.715962646484375,-0.18494625389575958,0.09393343329429626,0.45091086626052856
1772619556281993700,5.72599365234375,-0.16066941618919373,0.19903269410133362,0.545258641242981
1772619556292024600,5.736024658203125,-0.15561534464359283,0.2205711156129837,0.6233503818511963
1772619556302055700,5.7460556640625,-0.1880398690700531,0.09933415800333023,0.6811758279800415
1772619556312086500,5.75608642578125,-0.2129913717508316,-0.13757969439029694,0.7359081506729126
1772619556322117600,5.76611767578125,-0.19272790849208832,-0.3948133587837219,0.7731836438179016
1772619556332148500,5.7761484375,-0.117152638733387,-0.6473569869995117,0.8015331029891968
1772619556342179600,5.7861796875,-0.013730105012655258,-0.8527634143829346,0.8399409055709839
1772619556352211700,5.796211669921875,0.10168861597776413,-0.9797334671020508,0.8809707164764404
1772619556362242800,5.806242919921875,0.20919270813465118,-1.0170291662216187,0.8813499808311462
1772619556372273700,5.816273681640625,0.29953068494796753,-0.951534628868103,0.8224082589149475
1772619556382304800,5.8263046875,0.33028459548950195,-0.9319499731063843,0.6109077334403992
1772619556392335600,5.836335693359375,0.29142826795578003,-1.085334300994873,0.20095562934875488
1772619556402366700,5.84636669921875,0.1975044459104538,-1.40690279006958,-0.3646092414855957
1772619556412397600,5.8563974609375,0.11352628469467163,-1.774314522743225,-0.8948662877082825
1772619556422428700,5.8664287109375,0.0832248330116272,-1.9569400548934937,-1.2181628942489624
1772619556432459500,5.87645947265625,0.07642701268196106,-1.831235408782959,-1.3280348777770996
1772619556442491600,5.88649169921875,0.10917244851589203,-1.4610048532485962,-1.3104639053344727
1772619556452522500,5.8965224609375,0.12949921190738678,-0.9842289090156555,-1.2554905414581299
1772619556462553600,5.9065537109375,0.15678516030311584,-0.5075329542160034,-1.2543402910232544
1772619556472584700,5.916584716796875,0.16178293526172638,-0.1248975470662117,-1.334886908531189
1772619556482615800,5.92661572265625,0.13567890226840973,0.16831542551517487,-1.476823329925537
1772619556492646700,5.936646728515625,0.09417413920164108,0.3411552309989929,-1.610416054725647
1772619556502677800,5.946677734375,0.06009260565042496,0.39246875047683716,-1.6736106872558594
1772619556512708600,5.95670849609375,0.05062801390886307,0.35523900389671326,-1.6142431497573853
1772619556522739700,5.96673974609375,0.05859512463212013,0.2861565947532654,-1.3920494318008423
1772619556532770600,5.9767705078125,0.08764682710170746,0.26189523935317993,-1.0204633474349976
1772619556542801700,5.9868017578125,0.14954426884651184,0.31771400570869446,-0.5697961449623108
1772619556552833500,5.99683349609375,0.22827531397342682,0.42502087354660034,-0.1231675073504448
1772619556562864600,6.00686474609375,0.3098335862159729,0.5559168457984924,0.26928362250328064
1772619556572895500,6.0168955078125,0.363731324672699,0.6995454430580139,0.5436645150184631
1772619556582926600,6.026926513671875,0.3885791301727295,0.7957828044891357,0.6733894348144531
1772619556592957700,6.036957763671875,0.39307403564453125,0.7331309914588928,0.6191799640655518
1772619556602988800,6.04698876953125,0.3876313269138336,0.5468754172325134,0.4427655339241028
1772619556613019600,6.05701953125,0.3324168920516968,0.40203043818473816,0.2338673621416092
1772619556623050800,6.06705078125,0.23361361026763916,0.26696157455444336,0.04762585833668709
1772619556633081600,6.07708154296875,0.10609693825244904,0.12465326488018036,-0.07432777434587479
1772619556643113700,6.08711376953125,-0.038245320320129395,0.009688593447208405,-0.1141526848077774
1772619556653144800,6.097144775390625,-0.17487579584121704,-0.058637622743844986,-0.07151341438293457
1772619556663176000,6.107176025390625,-0.27912870049476624,-0.07626402378082275,0.059264037758111954
1772619556673206800,6.117206787109375,-0.34766852855682373,-0.019427426159381866,0.27701759338378906
1772619556683238000,6.12723779296875,-0.3935103118419647,0.13939231634140015,0.5609968304634094
1772619556693268700,6.137268798828125,-0.420838326215744,0.3561157286167145,0.859209418296814
1772619556703299800,6.1472998046875,-0.4264999330043793,0.5374974608421326,1.1164251565933228
1772619556713331000,6.1573310546875,-0.39055588841438293,0.5288078188896179,1.2388103008270264
1772619556723362000,6.167362060546875,-0.2942892611026764,0.37288448214530945,1.2151286602020264
1772619556733393000,6.177392822265625,-0.2020917683839798,0.2530180513858795,1.145970106124878
1772619556743424800,6.1874248046875,-0.12492960691452026,0.21804514527320862,1.1192151308059692
1772619556753455900,6.197455810546875,-0.04419748857617378,0.2210010588169098,1.1174818277359009
1772619556763487000,6.207487060546875,0.03618443384766579,0.17870447039604187,1.1024481058120728
1772619556773517800,6.217517822265625,0.12643763422966003,0.03666619956493378,1.065171241760254
1772619556783549000,6.227548828125,0.20415879786014557,-0.1884702444076538,1.0173275470733643
1772619556793579800,6.237579833984375,0.21904222667217255,-0.34090912342071533,0.9397332668304443
1772619556803611000,6.24761083984375,0.21136273443698883,-0.431906133890152,0.7668365836143494
1772619556813641700,6.257641845703125,0.16489049792289734,-0.6167756915092468,0.4424135684967041
1772619556823672800,6.2676728515625,0.02191922999918461,-0.9337775707244873,-0.06038377806544304
1772619556833703700,6.27770361328125,-0.26581236720085144,-1.2069846391677856,-0.7227354049682617
1772619556843735000,6.287735107421875,-0.6596869826316833,-1.4788873195648193,-1.5223606824874878
1772619556853767000,6.297766845703125,-0.9920732378959656,-1.7029790878295898,-2.3065097332000732
1772619556863798000,6.307798095703125,-1.152001976966858,-1.7178936004638672,-2.8505301475524902
1772619556873828900,6.317828857421875,-1.1468130350112915,-1.4561936855316162,-2.983490467071533
1772619556883860000,6.32785986328125,-0.9625023007392883,-0.956996500492096,-2.632643699645996
1772619556893890800,6.337890869140625,-0.5578447580337524,-0.37378689646720886,-1.9226573705673218
1772619556903922000,6.347921875,-0.05497094243764877,0.21010877192020416,-1.0732882022857666
1772619556913952800,6.357952880859375,0.3816758692264557,0.742202639579773,-0.3152512311935425
1772619556923984000,6.36798388671875,0.6919621229171753,1.0960490703582764,0.17587293684482574
1772619556934014700,6.3780146484375,0.8649457097053528,1.1927740573883057,0.36375564336776733
1772619556944046800,6.388046875,0.8952111601829529,1.1739779710769653,0.35495948791503906
1772619556954078000,6.398077880859375,0.8482616543769836,1.1213765144348145,0.252194344997406
1772619556964109000,6.408109130859375,0.7689244747161865,1.0836118459701538,0.1550808548927307
1772619556974140000,6.418139892578125,0.6885225772857666,1.05479097366333,0.1118042841553688
1772619556984171000,6.4281708984375,0.6082703471183777,1.0177158117294312,0.13663506507873535
1772619556994201900,6.438201904296875,0.5462766885757446,0.970261812210083,0.21185842156410217
1772619557004233000,6.44823291015625,0.5106188654899597,0.8948948979377747,0.30598998069763184
1772619557014263800,6.458263916015625,0.4760355055332184,0.7658005356788635,0.39570873975753784
1772619557024295000,6.468294921875,0.440054327249527,0.5589323043823242,0.4871443808078766
1772619557034325800,6.47832568359375,0.3874123990535736,0.28654178977012634,0.5941340327262878
1772619557044358000,6.48835791015625,0.3269096612930298,0.021111957728862762,0.7292572259902954
1772619557054388700,6.498388671875,0.25552132725715637,-0.18177160620689392,0.8615218997001648
1772619557064420000,6.508420166015625,0.16105394065380096,-0.33157894015312195,0.9657527208328247
1772619557074451000,6.518450927734375,0.07068266719579697,-0.422396183013916,1.0441453456878662
1772619557084482000,6.52848193359375,-0.002502596005797386,-0.40244540572166443,1.0934460163116455
1772619557094513000,6.538512939453125,-0.026732392609119415,-0.2587084174156189,1.1222517490386963
1772619557104544000,6.5485439453125,-0.02165267989039421,-0.019703008234500885,1.1085593700408936
1772619557114574800,6.558574951171875,-0.01132592000067234,0.2744447886943817,1.029043197631836
1772619557124606000,6.56860595703125,-0.012727808207273483,0.5670936703681946,0.848458468914032
1772619557134636800,6.57863671875,-0.03433917090296745,0.77177894115448,0.5562492609024048
1772619557144669000,6.5886689453125,-0.10689033567905426,0.8371097445487976,0.16334672272205353
1772619557154699800,6.59869970703125,-0.25643277168273926,0.7149389982223511,-0.282723069190979
1772619557164731000,6.60873095703125,-0.5022611618041992,0.3702969551086426,-0.7173182368278503
1772619557174761700,6.61876171875,-0.8148223757743835,-0.15207885205745697,-1.0535811185836792
1772619557184792800,6.628792724609375,-1.0977129936218262,-0.6546077132225037,-1.1906803846359253
1772619557194824000,6.638823974609375,-1.2731142044067383,-0.9760225415229797,-1.0909347534179688
1772619557204855000,6.64885498046875,-1.337828516960144,-1.0574053525924683,-0.7743445038795471
1772619557214886000,6.658885986328125,-1.3292242288589478,-0.8122833371162415,-0.33071333169937134
1772619557224917000,6.6689169921875,-1.3101078271865845,-0.25843319296836853,0.08926957845687866
1772619557234947800,6.67894775390625,-1.295793056488037,0.337899774312973,0.33276820182800293
1772619557244979000,6.68897900390625,-1.2740240097045898,0.8161488771438599,0.3511408269405365
1772619557255010800,6.6990107421875,-1.241300344467163,1.2119786739349365,0.22217465937137604
1772619557265042000,6.7090419921875,-1.1416085958480835,1.5382670164108276,0.03489771485328674
1772619557275072800,6.71907275390625,-0.9740027189254761,1.7267963886260986,-0.14118847250938416
1772619557285103900,6.729103759765625,-0.778182327747345,1.7224085330963135,-0.23182569444179535
1772619557295134700,6.739134765625,-0.5865216255187988,1.5620136260986328,-0.20858848094940186
1772619557305165800,6.749165771484375,-0.41468626260757446,1.3186241388320923,-0.09788592904806137
1772619557315196700,6.75919677734375,-0.25849097967147827,1.0547654628753662,0.0799359381198883
1772619557325228000,6.76922802734375,-0.12987680733203888,0.8298167586326599,0.3064151406288147
1772619557335259000,6.7792587890625,-0.026497581973671913,0.6053000688552856,0.5017994046211243
1772619557345290000,6.7892900390625,0.06375588476657867,0.31013423204421997,0.6000983119010925
1772619557355321900,6.79932177734375,0.14752143621444702,-0.013362716883420944,0.5928949117660522
1772619557365353000,6.80935302734375,0.1916007548570633,-0.2860874533653259,0.5033794045448303
1772619557375383800,6.8193837890625,0.17156881093978882,-0.46813997626304626,0.36643001437187195
1772619557385415000,6.829414794921875,0.10528991371393204,-0.5178183317184448,0.1873188316822052
1772619557395445800,6.83944580078125,0.040215231478214264,-0.43304750323295593,-0.057022687047719955
1772619557405476900,6.849476806640625,-0.021495535969734192,-0.3043920695781708,-0.40757033228874207
1772619557415507700,6.8595078125,-0.11007654666900635,-0.27495256066322327,-0.9023534059524536
1772619557425538800,6.869538818359375,-0.24606899917125702,-0.38100123405456543,-1.4981600046157837
1772619557435569700,6.879569580078125,-0.3838450014591217,-0.5517441630363464,-2.029139995574951
1772619557445601000,6.88960107421875,-0.5042116045951843,-0.7016745805740356,-2.3772871494293213
1772619557455633000,6.8996328125,-0.6115236878395081,-0.798101007938385,-2.4836230278015137
1772619557465664000,6.9096640625,-0.6571779847145081,-0.7821952700614929,-2.379913330078125
1772619557475694800,6.91969482421875,-0.6121854782104492,-0.6255759596824646,-2.125856637954712
1772619557485726000,6.929725830078125,-0.49206623435020447,-0.3537841737270355,-1.7878659963607788
1772619557495756800,6.9397568359375,-0.3427976667881012,0.034787606447935104,-1.401056170463562
1772619557505788000,6.949787841796875,-0.19684764742851257,0.4679829776287079,-0.9896560907363892
1772619557515818800,6.95981884765625,-0.05173396319150925,0.8936245441436768,-0.5815262794494629
1772619557525849900,6.969849853515625,0.10143215209245682,1.2824503183364868,-0.19071805477142334
1772619557535880700,6.979880615234375,0.2390461266040802,1.5969346761703491,0.13298310339450836
1772619557545911800,6.989911865234375,0.30380409955978394,1.7957683801651,0.32760292291641235
1772619557555944000,6.99994384765625,0.30852940678596497,1.8046329021453857,0.4181087613105774
1772619557565975000,7.00997509765625,0.3083922564983368,1.5825492143630981,0.3816559314727783
1772619557576006000,7.020005859375,0.3389456868171692,1.1284255981445312,0.2353258579969406
1772619557586037000,7.030037109375,0.37951335310935974,0.568804144859314,0.030442211776971817
1772619557596067800,7.04006787109375,0.36807164549827576,0.002966188360005617,-0.16050031781196594
1772619557606099000,7.050098876953125,0.2902338206768036,-0.5469750165939331,-0.2686978876590729
1772619557616129800,7.0601298828125,0.18870909512043,-1.1190067529678345,-0.2913486063480377
1772619557626161000,7.070160888671875,0.10008841007947922,-1.6416692733764648,-0.20037555694580078
1772619557636191700,7.080191650390625,0.018935762345790863,-1.942693829536438,0.04062109813094139
1772619557646222800,7.090222900390625,-0.035141054540872574,-1.9268416166305542,0.45454904437065125
1772619557656255000,7.1002548828125,-0.052835870534181595,-1.6140168905258179,0.9712285399436951
1772619557666286000,7.1102861328125,-0.04808585345745087,-1.1026971340179443,1.460096836090088
1772619557676317000,7.12031689453125,-0.0707654282450676,-0.39619478583335876,1.8416043519973755
1772619557686348000,7.13034814453125,-0.10330180078744888,0.40599513053894043,2.086242198944092
1772619557696379000,7.14037890625,-0.11133001744747162,1.1030763387680054,2.1851420402526855
1772619557706410000,7.150409912109375,-0.11556896567344666,1.4790000915527344,2.1095433235168457
1772619557716440800,7.16044091796875,-0.06885498017072678,1.1193445920944214,1.7035852670669556
1772619557726472000,7.170471923828125,0.09213577210903168,0.40694716572761536,1.1134109497070312
1772619557736502800,7.180502685546875,0.1594182401895523,0.2316165715456009,0.7822343111038208
1772619557746534000,7.190533935546875,0.12146898359060287,0.12554046511650085,0.6176615953445435
1772619557756564700,7.200564697265625,0.09217154234647751,-0.030369291082024574,0.6137033104896545
1772619557766597000,7.21059716796875,0.04841607064008713,-0.2846604287624359,0.7086394429206848
1772619557776628000,7.2206279296875,-0.08499392867088318,-0.7371473908424377,0.8165981769561768
1772619557786659000,7.2306591796875,-0.31271177530288696,-1.3303725719451904,0.8511236906051636
1772619557796690000,7.24068994140625,-0.590602457523346,-1.9483567476272583,0.7456434965133667
1772619557806721000,7.250720947265625,-0.8614614009857178,-2.354016065597534,0.5268552303314209
1772619557816751900,7.260751953125,-1.0300021171569824,-2.3574912548065186,0.29074957966804504
1772619557826783000,7.270782958984375,-1.0804282426834106,-2.0363199710845947,0.07342924922704697
1772619557836813800,7.280813720703125,-1.062471628189087,-1.6104397773742676,-0.19194193184375763
1772619557846845000,7.290844970703125,-1.0087990760803223,-1.271483302116394,-0.5797823667526245
1772619557856875800,7.300875732421875,-0.8947048187255859,-1.088864803314209,-1.0160675048828125
1772619557866908000,7.310907958984375,-0.7523846626281738,-1.0414175987243652,-1.3386428356170654
1772619557876939000,7.32093896484375,-0.6022459864616394,-1.0320907831192017,-1.4165037870407104
1772619557886970000,7.33097021484375,-0.44556933641433716,-0.9262077808380127,-1.2153639793395996
1772619557897001000,7.3410009765625,-0.26046425104141235,-0.6714153289794922,-0.8262457251548767
1772619557907032000,7.351031982421875,-0.07087783515453339,-0.35955676436424255,-0.3742455244064331
1772619557917063000,7.36106298828125,0.08446710556745529,-0.11775889992713928,-0.010267665609717369
1772619557927094000,7.371093994140625,0.2053554505109787,0.046326711773872375,0.17829371988773346
1772619557937124900,7.381124755859375,0.30197060108184814,0.2105969786643982,0.2226487547159195
1772619557947156000,7.391156005859375,0.38026008009910583,0.405363529920578,0.1818949282169342
1772619557957186800,7.401186767578125,0.45581698417663574,0.5885679125785828,0.11308585852384567
1772619557967219000,7.411218994140625,0.5443207621574402,0.6996046900749207,0.05963435024023056
1772619557977249800,7.421249755859375,0.6294172406196594,0.7318469285964966,0.05187428370118141
1772619557987281000,7.431281005859375,0.6385356187820435,0.712388813495636,0.24440884590148926
1772619557997312000,7.44131201171875,0.6025421023368835,0.4497978389263153,0.3901245594024658
1772619558007343000,7.451343017578125,0.5575445294380188,0.359487384557724,0.549192488193512
1772619558017374000,7.4613740234375,0.46653053164482117,0.31122156977653503,0.6879082322120667
1772619558027405000,7.471405029296875,0.3395344913005829,0.2510637044906616,0.838584840297699
1772619558037436000,7.481435791015625,0.24809883534908295,0.19234883785247803,0.9756479263305664
1772619558047467000,7.491467041015625,0.21310250461101532,0.1210099458694458,1.092160940170288
