time,seconds_elapsed,z,y,x
1772785751475846400,0.062846435546875,-1.9901678550451993,0.8530205584093928,-2.64805630197674
1772785751485862100,0.072862060546875,-3.055692807754874,0.7457476399093866,-2.752993763266504
1772785751495878100,0.082878173828125,-3.1944296627938744,0.6329454365938901,-2.4117443311095235
1772785751505894100,0.09289404296875,-2.550477679017186,0.6365065631415695,-1.8235041515521704
1772785751515909000,0.1029091796875,-1.6472347075849771,0.6487887562833726,-1.2667929365940391
1772785751525925000,0.112925048828125,-1.1083733298331497,0.707980511572957,-1.0457394712656736
1772785751535941000,0.122941162109375,-0.8057838831990957,0.7228862581513822,-1.182165711274743
1772785751545957000,0.13295703125,-0.6938596317619085,0.9636851651743054,-1.417289056879282
1772785751555973400,0.142973388671875,-0.24934710126817225,1.172924054872617,-1.2107402099825442
1772785751565989400,0.1529892578125,0.3756032449185848,1.140250011891499,-0.689602851100266
1772785751576004400,0.16300439453125,1.2979109823048114,1.237599136944115,0.14086159210801125
1772785751586020400,0.173020263671875,2.115069076955318,1.1618111977711318,0.6874817672930658
1772785751596036000,0.1830361328125,2.4444945080667733,0.7322995447933673,0.7270056031037122
1772785751606052000,0.193052001953125,2.67441853146255,0.07635755575448275,0.532529471316561
1772785751616068000,0.203068115234375,2.970508679205179,-0.47637891035377977,0.3500730092775076
1772785751626083000,0.2130830078125,2.995490560248494,-0.9735388890601694,0.3785704241611063
1772785751636099000,0.22309912109375,1.2711533237606287,-1.599113650755584,0.6841083453372121
1772785751646115300,0.233115234375,0.0669715955108404,-1.8684891023129224,0.9869016439802945
1772785751656131300,0.24313134765625,2.227658514302969,-1.5688528063960372,1.5136239633880555
1772785751666146300,0.253146240234375,2.5275918934702872,-1.6737164717972277,2.6998303283557292
1772785751676162300,0.263162353515625,1.5523223812252283,-2.13107226338163,5.085388371068239
1772785751686178300,0.27317822265625,0.9869505976885556,-2.184168770536035,5.283522586971521
1772785751696194000,0.283194091796875,0.24011399349868295,-1.2327777081370352,2.634518482750654
1772785751706210000,0.2932099609375,-0.6150187347590923,0.48659036163613195,0.0018717121560126542
1772785751716226000,0.30322607421875,-1.1281325077921152,1.2665310707874595,-1.2416267850250005
1772785751726241000,0.313240966796875,-0.49708501377403735,0.8890417929265647,-0.9779531983710825
1772785751736257300,0.32325732421875,0.5941542259067296,0.03421177394241094,-0.5613616711124777
1772785751746273300,0.333273193359375,1.3185066110879182,-0.33999482898600397,0.05213623815434985
1772785751756289300,0.343289306640625,1.3767670768767595,-0.6715753923047334,0.2475954718278721
1772785751766305300,0.35330517578125,1.078491986310482,-0.7180004588712007,0.18132592363916336
1772785751776320300,0.3633203125,0.9665870240956544,-0.522443180783838,0.20938180530034003
1772785751786336300,0.373336181640625,1.1708493674904108,-0.254710893323645,0.25630406253291294
1772785751796352300,0.383352294921875,1.314763917428255,0.21934973015040157,0.4041463986400515
1772785751806368000,0.393367919921875,1.0901134505212307,0.7114349628757685,0.4575307462925091
1772785751816384300,0.40338427734375,1.1256658254176377,1.1109921340294182,0.621947657239437
1772785751826399000,0.41339892578125,1.7708184171557426,1.3796123833052814,1.083152379336953
1772785751836415200,0.423415283203125,2.563803024536371,1.4794659654594957,1.24412678514719
1772785751846431200,0.43343115234375,2.739381709760427,1.6320602270677684,0.8834288484156131
1772785751856447200,0.443447265625,2.582577867633104,1.867818363444507,0.7046782551571726
1772785751866463200,0.453463134765625,3.2237253153830765,1.9642519080221652,0.616995149398595
1772785751876478200,0.463478271484375,4.394807907107472,1.9416171746268867,0.2524063427083194
1772785751886494200,0.473494140625,5.099726693022251,2.0322528465807435,0.4036727167136967
1772785751896510200,0.48351025390625,5.226700629553198,2.0219059323504567,0.25329744632914664
1772785751906526200,0.493526123046875,4.891165775650739,1.9811345076315103,-0.29140710449293256
1772785751916542200,0.503542236328125,4.511868936911225,1.7036302562847732,-0.672715136924386
1772785751926557200,0.51355712890625,4.460246886223555,1.1726473568230866,-1.1939383474592118
1772785751936573200,0.5235732421875,5.447833443728089,0.937469650682807,-2.1428575398519634
1772785751946589200,0.533589111328125,5.227370491638779,0.45419805820584297,-3.8029856312796473
1772785751956605200,0.543605224609375,2.899534277793765,-1.2680001204267144,-6.202545895859599
1772785751966621200,0.55362109375,-0.2268757417410612,-2.886417022067308,-7.271290395137667
1772785751976636200,0.56363623046875,-4.0313270616590975,-4.278680358761549,-5.938669333979487
1772785751986652200,0.573652099609375,-7.942005298155546,-5.077626504895091,-3.265420138557255
1772785751996668200,0.583668212890625,-10.480220292448998,-3.6229011590689417,-0.7312105805128812
1772785752006684400,0.593684326171875,-15.123879626262188,-0.9215642255425452,2.579233817902207
1772785752016700200,0.6037001953125,-15.111401252961159,-1.040422806287557,2.505637251293659
1772785752026715400,0.61371533203125,-15.106284348338841,-1.1085101810205726,2.483680855551362
1772785752036731100,0.623731201171875,-15.104948131299018,-1.1473957189276813,2.4950018755108117
1772785752046747100,0.6337470703125,-15.104655870354176,-1.1789775827579199,2.5154309155553576
1772785752056763100,0.64376318359375,-15.103334850883483,-1.2208688052870333,2.5238477385059
1772785752066779100,0.653779052734375,-15.0989754866302,-1.2828905233055352,2.490273385684192
1772785752076794000,0.663794189453125,-15.090487059748172,-1.3701179942511021,2.377474543369561
1772785752086810000,0.67381005859375,-15.081457365596293,-1.4752074312321841,2.187643460909277
1772785752096826400,0.683826416015625,-15.077096832299231,-1.5760603996872902,1.96880270319432
1772785752106842400,0.69384228515625,-15.078533587104081,-1.664971147544682,1.753802984946966
1772785752116858400,0.7038583984375,-8.948757743901014,-2.1970409654602405,-4.300789022456109
1772785752126873300,0.713873291015625,-6.768476482322812,-0.26990433426965027,-1.9485743002884088
1772785752136889300,0.723889404296875,-5.355078587663173,1.3998657745219767,0.3458213431823999
1772785752146905000,0.733905029296875,-3.0266560983628032,2.1717112938925625,2.9386645111769436
1772785752156921000,0.743921142578125,-0.20788637911081312,2.6244471705913544,5.475501202854514
1772785752166937000,0.75393701171875,2.0818694026649,2.6586688814058896,6.453686894807219
1772785752176952000,0.7639521484375,2.8123499153375624,2.021987765415013,5.319140428319573
1772785752186968000,0.773968017578125,3.72258961378932,1.7052885448858142,2.8065757158502933
1772785752196984300,0.783984375,6.614018326538801,1.1417327247299254,0.4427523889534175
1772785752207000300,0.794000244140625,10.33220649049878,0.9326533364422619,-1.2849414644859731
1772785752217016300,0.804016357421875,12.54177171422839,1.7343620791569352,-2.459043842422962
1772785752227031300,0.81403125,13.137445112526416,3.223983089536428,-2.6816353309735654
1772785752237047300,0.82404736328125,13.6490817987442,3.5540088246285912,-2.971814501106739
1772785752247063000,0.83406298828125,13.306319331675768,2.5259113930374384,-3.6606422761812802
1772785752257079000,0.8440791015625,12.377868269228934,1.558475643157959,-4.119025511117279
1772785752267095000,0.854094970703125,11.519455788648127,1.0177214373968542,-4.307386228764057
1772785752277110000,0.864110107421875,11.259752713060378,0.2810954077064991,-4.100852433305978
1772785752287126300,0.874126220703125,11.51240177848339,-0.38754926490858194,-3.7538551051467657
1772785752297142300,0.884142333984375,11.856893261301517,-1.156768965820223,-3.498943063227832
1772785752307158300,0.894158203125,11.866329782688616,-1.1991960487917064,-3.2203029397189615
1772785752317173200,0.90417333984375,11.271141537559032,-0.9701887749146669,-2.9382132602781055
1772785752327189200,0.914189208984375,10.027917254209518,-1.2817752555400133,-2.330273523994535
1772785752337205200,0.924205322265625,8.046782015925645,-1.785091418788582,-1.9417885856710373
1772785752347221200,0.93422119140625,6.765973559591174,-1.9320102651089428,-1.91588330617249
1772785752357237000,0.944237060546875,6.458028723403811,-1.8640527273006735,-1.8187537421546875
1772785752367252200,0.954252197265625,6.8205585517376655,-1.7958051205046475,-1.5782089560233055
1772785752377268200,0.964268310546875,7.608826067468524,-1.5785742822043596,-1.3348814073055981
1772785752387284200,0.9742841796875,8.496186410114168,-1.2461620903670787,-1.2056332422323524
1772785752397300200,0.98430029296875,8.94594853169918,-1.014896150843054,-1.1770353626489638
1772785752407316200,0.994316162109375,9.142067316126823,-0.9197189630020409,-1.0638017091136425
1772785752417331200,1.004331298828125,9.437745960459113,-0.7159017330262809,-0.9744681327342987
1772785752427347200,1.01434716796875,9.151236126488447,-0.26283797607999293,-0.7133074787493795
1772785752437363200,1.02436328125,8.357434942027925,0.29370613868292417,-0.04442176392003894
1772785752447379200,1.034379150390625,7.67528211467266,1.0590560489565133,0.6921754050020128
1772785752457395200,1.044395263671875,8.027108178162575,1.8418299357071517,1.3263776367239652
1772785752467410200,1.05441015625,8.38443225454688,2.404625292884558,2.3006974470287562
1772785752477426200,1.06442626953125,8.201030912873149,2.7542469781979917,3.3660546419560906
1772785752487442200,1.074442138671875,7.3377353364259,2.850938881450891,4.440855372533202
1772785752497458200,1.084458251953125,6.158235044968128,2.9163845825687047,4.859972180485725
1772785752507474200,1.09447412109375,4.556752619254588,3.117551590296626,4.50308561873585
1772785752517489200,1.1044892578125,2.2441104674100876,3.6339521299153565,3.2845395573079585
1772785752527505200,1.114505126953125,0.970056746032834,3.857297067181766,1.3713424214795231
1772785752537521200,1.124521240234375,-0.9718044664829969,3.32566067224741,0.0009418108947575091
1772785752547537200,1.134537109375,-3.7517981726169585,1.607202264665067,-2.568172325661778
1772785752557553400,1.144553466796875,-11.51542258760929,-1.4015122265547513,-10.265873777413368
1772785752567568400,1.154568359375,-23.707794004189967,-6.277537716218829,-20.2112588788867
1772785752577584400,1.16458447265625,-23.68154663325548,-6.543603312575817,-20.484148768305776
1772785752587600100,1.17460009765625,-23.666674058294294,-6.715500094416737,-20.71818431867361
1772785752597616000,1.1846162109375,-23.656826033496856,-6.736026749616861,-20.840980677258965
1772785752607632100,1.194632080078125,-23.649414295935628,-6.663340868112445,-20.86676510685682
1772785752617647000,1.204647216796875,-23.647412892985344,-6.605135931903123,-20.845666204726694
1772785752627663000,1.2146630859375,-23.652710999393463,-6.629034693884849,-20.802643055558203
1772785752637679000,1.22467919921875,-23.665981984376906,-6.73582275147736,-20.740756215965746
1772785752647695400,1.2346953125,-23.683756125998496,-6.891397344070673,-20.692869844675062
1772785752657711400,1.24471142578125,-23.696190075635908,-7.049266185081005,-20.726330215728282
1772785752667726300,1.254726318359375,-23.697057506120203,-7.164051086646318,-20.859842029595374
1772785752677742300,1.264742431640625,-23.688787690424917,-7.214200142171978,-21.052647743952274
1772785752687758000,1.274758056640625,-23.67811198263168,-7.2233759667962785,-21.274338192009925
1772785752697774000,1.284774169921875,-23.67358544511795,-7.242261869052052,-21.504492517030236
1772785752707790000,1.2947900390625,-6.653625529783964,-3.168441235056519,-0.7492607625968754
1772785752717805000,1.30480517578125,-3.8965614483386277,-2.0025176335304975,2.263650595790893
1772785752727821000,1.314821044921875,-3.273821763938665,-0.48308308416754003,4.488680953547358
1772785752737837300,1.32483740234375,-3.7917432295143603,0.6930442237257957,4.930527479702234
1772785752747853300,1.334853271484375,-2.962732784506678,1.4408217620275914,5.199501656982302
1772785752757869300,1.344869384765625,-0.2079974382698536,1.2435447474755346,5.641635183385014
1772785752767884300,1.35488427734375,4.184351969769597,0.5250852197252214,5.243399250897765
1772785752777900300,1.364900390625,8.358337443825603,-0.3726685797061771,3.8498037888169288
1772785752787916300,1.374916259765625,12.119193952167034,-0.934982656172663,1.5136835846208034
1772785752797932000,1.38493212890625,15.508579200828075,0.5663574335731566,-0.5790323523595928
1772785752807947300,1.394947265625,17.442554044008254,2.059583921098709,-2.2119392593845726
1772785752817963000,1.404962890625,18.30471214085817,3.4000133179202674,-3.418203639127314
1772785752827979000,1.41497900390625,17.672247765779495,4.481545110318065,-2.7474679855823516
1772785752837995300,1.424995361328125,15.816325299572943,4.644858772730827,-2.1637585813224316
1772785752848011300,1.43501123046875,12.218312498044966,3.8087738592922684,-1.916139034499228
1772785752858026200,1.445026123046875,8.94684343471229,2.8635943648844955,-1.830196927189082
1772785752868042200,1.455042236328125,8.094526932919026,2.3953625206291673,-3.72670143302232
1772785752878058200,1.465058349609375,9.77723802755475,2.285977140019834,-4.500186097902059
1772785752888074200,1.47507421875,12.901817324531077,1.4239878238655626,-3.771036541572213
1772785752898090200,1.48509033203125,14.37043091045618,0.08951762770935892,-2.6257369181409476
1772785752908105200,1.495105224609375,13.65695180146694,-0.7734082386426627,-2.011372847898304
1772785752918121200,1.505121337890625,11.676346140015125,-1.1120784679614006,-1.72994221688807
1772785752928137200,1.51513720703125,8.962675210094451,-1.193663549105823,-1.5773688519373534
1772785752938153200,1.5251533203125,6.236983002990484,-1.3381607212372124,-1.4518867613993585
1772785752948169200,1.535169189453125,4.306488987663388,-1.685482312914729,-1.5109930303625763
1772785752958184200,1.54518408203125,4.324003601565956,-1.9552238213054836,-1.346311586727947
1772785752968200200,1.5552001953125,5.4901247714906924,-2.3105485405661166,-0.809221602562815
1772785752978216200,1.56521630859375,6.969877006545662,-2.759091787880659,-0.43869135005958376
1772785752988232200,1.575232177734375,8.069141731771825,-3.081852792666852,-0.39496312136165795
1772785752998248200,1.585248291015625,9.054874770364165,-3.0701962571427224,-0.16317754187770186
1772785753008263200,1.59526318359375,10.170753361260891,-2.5923519504114982,0.38156405301913615
1772785753018279400,1.605279541015625,10.611515599310398,-2.12207807893455,1.0719853808954358
1772785753028295200,1.615295166015625,10.15930374648571,-1.6831243516117333,1.4890455485790968
1772785753038311200,1.625311279296875,9.543391862279176,-0.9669847181763499,1.4887529953733085
1772785753048327200,1.6353271484375,8.937885052230953,-0.07575586353428661,1.655041581943631
1772785753058342100,1.645342041015625,8.335389114436508,0.6217424900561571,2.2364073456868527
1772785753068358100,1.655358154296875,8.13258164602518,0.9782019124351441,2.734517026333511
1772785753078374100,1.6653740234375,7.6973893170624965,1.1053810161493718,2.7763439514547583
1772785753088390100,1.67539013671875,6.938933002227544,0.7495531696721911,2.084573108665645
1772785753098406400,1.685406494140625,6.630315965867042,-0.164326127390936,1.4173613914631307
1772785753108421000,1.695421142578125,6.92389150044024,-0.14712019584504887,1.2179625624515116
1772785753118437400,1.705437255859375,4.5983857753694055,0.11872362925373017,-0.07884155458994209
1772785753128452900,1.715452880859375,-0.505008207988739,1.0253891224805265,-2.968560175485909
1772785753138468900,1.72546875,-8.04966487788558,2.4870143838882446,-6.91040658044517
1772785753148483800,1.73548388671875,-17.02102959039211,4.026014926725626,-12.415343136620521
1772785753158499800,1.745499755859375,-17.02028257141709,3.874339095136523,-12.553893529176712
1772785753168515800,1.755515869140625,-17.022997091072796,3.677954060988128,-12.793424754351376
1772785753178531800,1.76553173828125,-17.036524096643923,3.475009814454615,-13.019991284012793
1772785753188547800,1.7755478515625,-17.057153043174743,3.2903435674116013,-13.175669336980581
1772785753198562800,1.785562744140625,-17.080253348255155,3.1264500592842697,-13.283860831630228
1772785753208578800,1.795578857421875,-17.101439928668736,2.9977821783170104,-13.381597567760943
1772785753218594800,1.8055947265625,-17.11428421267271,2.9280583614885805,-13.443627030694485
1772785753228610800,1.81561083984375,-17.115490665853024,2.9243434326186772,-13.466215294599532
1772785753238626800,1.825626708984375,-17.10874528324604,2.965821982693672,-13.473485577863453
1772785753248641800,1.835641845703125,-17.09799709473848,3.033734073925018,-13.48154730376601
1772785753258658000,1.845657958984375,-17.084899128234387,3.12140417407155,-13.493439986133575
1772785753268673800,1.855673828125,-17.07039597110748,3.2265175764501093,-13.511487683999537
1772785753278689800,1.865689697265625,-9.054909257155657,-3.9827527081042526,-1.291891283623874
1772785753288705800,1.875705810546875,-4.277281013357639,-2.8954724351823327,-0.546518797169812
1772785753298720800,1.885720703125,-0.4363204562097788,-1.3895216367706655,0.6715092682659626
1772785753308736800,1.89573681640625,1.3726426904231308,-0.15946502416059374,2.941151359556615
1772785753318752800,1.905752685546875,2.9566473271131515,1.4941646451584993,4.551890858437121
1772785753328768800,1.915768798828125,4.175902121332287,3.0574411127269268,5.241462145355343
1772785753338785000,1.925784912109375,5.785222401064634,3.5945278820216653,4.576818378944695
1772785753348800000,1.935800048828125,9.053975191175937,3.582055938461423,4.137029369841516
1772785753358816000,1.94581591796875,12.222014859694243,2.982708235564828,3.4840251878201958
1772785753368832000,1.95583203125,14.46741127526164,2.547458038935065,0.7763115588687359
1772785753378847700,1.96584765625,16.03083080456257,2.7928584484040737,-3.09231018153429
1772785753388863700,1.97586376953125,17.920276770186423,2.9858845275133845,-6.255500656455755
1772785753398878700,1.985878662109375,19.246931031894682,2.375867984955758,-7.935200878837704
1772785753408894700,1.995894775390625,18.926053064376116,1.5311865080855787,-8.8668334939301
1772785753418910700,2.00591064453125,16.829376553201673,0.4536828752253204,-8.894071044945717
1772785753428927000,2.015927001953125,13.606458462548256,-0.5224556018739939,-8.345159397822618
1772785753438943000,2.02594287109375,10.724017358374596,-0.4855709554605186,-6.617156040042638
1772785753448958000,2.0359580078125,8.992465952724217,-0.5064846372168511,-4.587931601372361
1772785753458974000,2.045973876953125,8.227889693704247,-0.5743642874833196,-2.884599451251328
1772785753468990000,2.055989990234375,8.330942071899772,-0.8579643714871257,-1.729060173356533
1772785753479005700,2.066005615234375,7.836704848772287,-1.3750436140850186,-0.8516234780278056
1772785753489021000,2.07602099609375,7.478280702191591,-1.6168869155943393,0.10825981064550579
1772785753499036700,2.08603662109375,7.6753464120805255,-1.6851630178324877,1.1944039191443472
1772785753509052700,2.096052734375,8.145139514303207,-1.8100439276069402,1.8726219643339514
1772785753519068700,2.106068603515625,8.518124101155996,-1.6605352109238505,2.2605865320451555
1772785753529085000,2.1160849609375,8.622138017860054,-1.4404472296267747,2.4684499686717984
1772785753539100000,2.126099853515625,8.372224514880775,-1.2375054673112929,2.4927526352792975
1772785753549116000,2.136115966796875,8.010541074243188,-1.1462836660325526,2.5008044243097305
1772785753559132000,2.1461318359375,7.868483550348877,-0.8609232212927191,2.3239034044407307
1772785753569148000,2.15614794921875,7.84337658162117,-0.3390442502629012,2.000854961015284
1772785753579164000,2.166163818359375,8.16861391339302,0.10493168913610279,1.4316931375458837
1772785753589179000,2.176178955078125,8.358797462552785,0.3401476083949208,0.6797330528624356
1772785753599195000,2.18619482421875,8.510912854602932,0.7439115835886448,0.1275371507711243
1772785753609210600,2.196210693359375,8.428394730392098,0.998521719951555,0.0399405816516839
1772785753619227000,2.206226806640625,8.413472471070289,1.040786744229123,0.10277014545435086
1772785753629243000,2.216242919921875,8.624205471783876,1.0724819322407244,-0.02024381967075169
1772785753639257900,2.2262578125,8.984787673181295,1.1865687685392796,-0.26799444552771745
1772785753649273900,2.23627392578125,9.537270164528488,1.5507264903359115,0.12509584943307564
1772785753659289900,2.246289794921875,9.848728561794758,2.3932810381799934,0.9048045947257429
1772785753669305900,2.256305908203125,9.73180431011319,2.7666391345202923,1.700089953329414
1772785753679321900,2.26632177734375,8.274051725420355,2.6922487871855494,2.2939023800611493
1772785753689336800,2.2763369140625,5.965392505732178,2.8107100391760467,1.7769994438782333
1772785753699352800,2.286352783203125,3.60494464661777,2.6353350598305463,0.9971299002669751
1772785753709368800,2.296368896484375,-0.14418693713843822,2.5972809312462806,-1.5898884340316057
1772785753719384800,2.306384765625,-6.271397313767671,2.672044203546643,-7.6879124636650085
1772785753729400800,2.31640087890625,-15.425081417930125,1.7028044729851186,-14.665331556153296
1772785753739415800,2.326415771484375,-24.967903955888747,0.7642284684956073,-17.04294448508024
1772785753749431800,2.336431884765625,-24.97242581722736,0.5535352152705192,-17.21270016323924
1772785753759447800,2.34644775390625,-24.985399865090844,0.29937501463219524,-17.443731271094084
1772785753769463800,2.3564638671875,-24.99917587698698,0.11160992479100823,-17.662172946488855
1772785753779478800,2.366478759765625,-25.00068394346237,0.04097995290309191,-17.840656705504657
1772785753789494800,2.376494873046875,-24.98949385640621,0.06801876647621392,-17.96205839486122
1772785753799510800,2.3865107421875,-24.97807697485685,0.11241524982452392,-18.04264993492365
1772785753809527000,2.396527099609375,-24.9775415528059,0.11407441520839928,-18.04934271056056
1772785753819542800,2.406542724609375,-24.990270101475716,0.06434490026906133,-17.960074527567624
1772785753829558800,2.416558837890625,-25.014623621487615,-0.02336494736596942,-17.815864794075488
1772785753839573800,2.42657373046875,-25.044504380488394,-0.1262207800760865,-17.680681247603893
1772785753849589800,2.43658984375,-25.073206743359563,-0.23240692625269294,-17.60494357731342
1772785753859605800,2.446605712890625,-25.09926706728935,-0.3475692828282714,-17.606414234387874
1772785753869621800,2.456621826171875,-25.124565174674988,-0.47654316100478167,-17.68042756510377
1772785753879636700,2.46663671875,-25.144972002887723,-0.5899839544847607,-17.805296638309954
1772785753889652700,2.47665283203125,-25.151794542384145,-0.6437929938226938,-17.94199292743206
1772785753899669000,2.4866689453125,-8.568959969902037,0.16127777267098425,1.4168470122002064
1772785753909685000,2.49668505859375,-3.929313378861546,1.9682721034489572,3.7853815855279564
1772785753919700700,2.50670068359375,0.29612521905601025,1.6451073401674627,4.347725545676052
1772785753929716000,2.516716064453125,4.199789777398109,1.4540376558229327,3.3073756584942338
1772785753939731700,2.526731689453125,7.364205994722247,1.8654286918289957,1.8487120964363217
1772785753949747700,2.536747802734375,10.572724388623238,2.0409457099936903,0.43853005855064836
1772785753959763700,2.546763671875,13.772131839829683,2.100654036503285,-0.9685840431317686
1772785753969779700,2.55677978515625,16.614838314986226,2.2513018402189013,-2.473219667291641
1772785753979794700,2.566794677734375,18.724375476777553,1.7360177374094723,-4.21307508316785
1772785753989811000,2.57681103515625,19.41631612317562,0.8893196600198745,-5.2492970767647025
1772785753999827000,2.586826904296875,18.497877920699118,0.6238542215131223,-5.025130009460449
1772785754009843000,2.596843017578125,16.770084990799425,0.7725209344141185,-4.030238097378612
1772785754019859000,2.60685888671875,15.281139395463466,1.0387203132186085,-2.8141420594513415
1772785754029874000,2.6168740234375,14.27005564251542,1.095371736375615,-1.1833001951973885
1772785754039890000,2.626889892578125,14.01410519745946,0.626889059164375,0.519317449978739
1772785754049905700,2.63690576171875,13.29851830253601,0.06269494110494851,1.848965194414556
1772785754059921700,2.646921630859375,11.580320883977413,-0.6741366941601038,2.0428803313180803
1772785754069938000,2.65693798828125,9.85226608827114,-1.5550608662784098,1.1862022733144462
1772785754079952600,2.66695263671875,8.523121763312815,-1.9901859752237796,0.4610405445117503
1772785754089969000,2.676968994140625,7.311903560554981,-2.1670755969159305,0.24242782339900731
1772785754099985000,2.68698486328125,5.947198092871904,-2.638974293115735,-0.2185389617567882
1772785754110001000,2.6970009765625,5.489767044094204,-3.0778423879817125,-0.5364087969679385
1772785754120015600,2.707015625,6.696837479522824,-3.253324334833026,-0.34147176967076953
1772785754130031600,2.717031494140625,7.947671068832277,-3.2933143999159333,0.13506876098550855
1772785754140048000,2.7270478515625,8.323307631498574,-3.034400136618316,0.6927991629235446
1772785754150063900,2.73706396484375,8.19662654043436,-2.7144319774210453,0.9118988638356328
1772785754160079600,2.74707958984375,7.771831102323532,-2.2646457443080843,0.626578166584298
1772785754170094800,2.7570947265625,7.501177593654393,-1.7077680867418645,-0.08944489126671105
1772785754180110600,2.767110595703125,7.620791815072297,-1.1425815966442228,-0.9427060900315641
1772785754190126600,2.777126708984375,8.163991514289378,-0.53401174576357,-1.258880702164769
1772785754200142600,2.787142578125,9.15195508841276,0.08937953441292047,-0.8823022555384784
1772785754210158600,2.79715869140625,10.513846667718887,0.7320993460461497,0.10112217731792479
1772785754220173600,2.807173583984375,11.673750862824916,1.0712675880149005,1.006635979758948
1772785754230189800,2.81718994140625,11.570376997590063,0.8723040816806257,1.390858146071434
1772785754240205800,2.827205810546875,10.204650954687596,0.4719150628127157,1.2309832259356974
1772785754250221800,2.837221923828125,8.750022054973245,0.18016674366667865,0.8866236258689314
1772785754260237600,2.847237548828125,7.686347114044428,0.21368395947366953,0.4750973095780238
1772785754270252800,2.857252685546875,6.754741971480846,0.18276582024917004,-0.49094705900829283
1772785754280268500,2.8672685546875,6.337301572307944,0.3824694774262607,-1.3245523209929466
1772785754290284500,2.877284423828125,5.497932230371236,1.0020537665352225,-1.865802055186033
1772785754300300500,2.887300537109375,2.997620558014512,1.5843528656058012,-1.8728940592736005
1772785754310316800,2.89731689453125,-0.3681622812628746,1.3530560925520956,-2.522985860979557
1772785754320331800,2.907331787109375,-4.9470431456953285,0.032695962551981206,-4.950680625414848
1772785754330347800,2.91734765625,-9.357398750546574,-1.0590282841667533,-7.877183574154973
1772785754340363800,2.92736376953125,-15.737234811723232,-0.43586730561479925,-10.319696553015708
1772785754350379800,2.9373798828125,-15.773154850888252,-0.6767074214309453,-10.469463920634984
1772785754360395800,2.947395751953125,-15.82905384824276,-0.9734446349054574,-10.683432834529876
1772785754370410800,2.95741064453125,-15.88619437009096,-1.2142257140107453,-10.916934131890535
1772785754380426800,2.9674267578125,-15.921824486398696,-1.325826140321046,-11.145793156403302
1772785754390442500,2.9774423828125,-15.924235054671763,-1.2898935339353979,-11.34160565136075
1772785754400458800,2.987458740234375,-15.907351724410056,-1.1801200307913124,-11.470837595951556
1772785754410474800,2.997474853515625,-15.88731197594404,-1.0844193305328487,-11.495872668486832
1772785754420489700,3.00748974609375,-15.876981136065721,-1.0528864204108714,-11.45624559149742
1772785754430505700,3.017505615234375,-15.88267087213993,-1.0935841953717171,-11.411991439229249
1772785754440521700,3.027521728515625,-15.902058294177055,-1.1779866720244287,-11.410054333686828
1772785754450537700,3.037537841796875,-15.929028134167194,-1.2727917386174201,-11.462095486569403
1772785754460553700,3.0475537109375,-15.960487102270125,-1.364020408028364,-11.559937436640261
1772785754470568700,3.057568603515625,-15.994823087114094,-1.44740333237499,-11.686320421540737
1772785754480584700,3.067584716796875,-9.470616548925637,1.1356900835648178,4.105572447565198
1772785754490600700,3.0776005859375,-6.384936599186062,1.1294108571648598,5.1003983086735
1772785754500616700,3.08761669921875,-3.1403724939137696,0.6024357320398092,4.879830142644048
1772785754510631700,3.097631591796875,-1.1050859787255525,0.053924774672091,4.137331859919429
1772785754520647700,3.107647705078125,-0.14065291779339312,-0.5322121489956975,2.957634000062942
1772785754530663700,3.11766357421875,1.0778192016154526,-0.923125775770843,1.362360365861654
1772785754540679700,3.1276796875,3.277777808088064,-1.3152400105074047,-0.00971358476281166
1772785754550695700,3.13769580078125,6.428124583527445,-1.616212377333641,-0.9463998299829661
1772785754560710700,3.147710693359375,10.660484505140781,-1.2116060330316423,-1.6699762623555958
1772785754570726700,3.1577265625,13.799112201213836,-0.1910271603770554,-2.8385531548693774
1772785754580742700,3.16774267578125,15.739293497818707,0.9547744212269782,-4.634741283342242
1772785754590759000,3.177759033203125,16.52638261741996,2.015427530116588,-5.857563999176025
1772785754600774700,3.187774658203125,16.91540063970685,2.6227380285859105,-6.4338371159553525
1772785754610790000,3.197789794921875,17.442390377879143,2.3956086043447256,-5.684287161153555
1772785754620805600,3.2078056640625,17.74178599690795,1.4705628202967345,-3.7919606716573235
1772785754630821600,3.217821533203125,16.880192548203468,0.524589179836586,-2.4927976434648036
1772785754640837600,3.227837646484375,14.429485156971216,0.025710049187391996,-2.194795232360065
1772785754650853600,3.237853515625,11.848292606216669,-0.12072108668126165,-2.327589253346622
1772785754660868600,3.24786865234375,10.400389799886941,-0.4082255577124655,-2.6890356703579426
1772785754670884600,3.257884521484375,9.609502457046508,-1.3269929921433328,-3.176929661938548
1772785754680900900,3.26790087890625,9.178687612515688,-1.7836140397123992,-3.145321056231856
1772785754690916900,3.277916748046875,9.11135828960836,-1.9971943926811218,-2.9408418552160263
1772785754700932900,3.287932861328125,9.028273179164529,-1.9926678551673889,-2.765098627080023
1772785754710947800,3.29794775390625,8.792350207614898,-1.6395362620368599,-2.3814199199944732
1772785754720963800,3.3079638671875,8.560502522680164,-1.0878588765274733,-1.6253621907338498
1772785754730979600,3.3179794921875,7.982489284235238,-0.30258447819799184,-0.6294841171588749
1772785754740995600,3.32799560546875,6.9881585131675,0.18516360210590063,-0.1233880408681929
1772785754751011600,3.338011474609375,6.327994814780354,0.5598080119296908,-0.33453736729770894
1772785754761026600,3.348026611328125,6.591152414736151,0.7135615265756845,-0.9474613947998731
1772785754771042600,3.35804248046875,7.394539758187532,0.4595823085274547,-1.568416022413969
1772785754781058800,3.368058837890625,8.191181134510039,0.3707288438152522,-1.6213608461380005
1772785754791074800,3.37807470703125,9.39543358990848,0.5129229997012764,-0.9358193261925131
1772785754801090800,3.3880908203125,10.978052909719944,0.6598843699891119,0.2376286064237356
1772785754811105800,3.398105712890625,11.606348474681377,0.9297850875295698,1.4218750694952904
1772785754821121800,3.408121826171875,10.91295353782177,1.24154407517761,2.084091754889488
1772785754831137500,3.418137451171875,9.503254497680068,1.4452540453866123,2.3777951536260544
1772785754841153500,3.428153564453125,8.207446040612458,1.489839621566236,2.6227733921602367
1772785754851168500,3.43816845703125,7.490901698833704,1.7532836372479796,2.8445623321563005
1772785754861184500,3.4481845703125,7.162543604692816,2.4721406398832797,3.14357976552248
1772785754871200800,3.45820068359375,6.85758976701498,3.1042922957509753,3.7380487564668057
1772785754881216800,3.468216796875,7.038795644471049,3.6393677252233028,4.155145164507627
1772785754891232800,3.478232666015625,6.325968277388811,4.272060063838959,3.734339965076744
1772785754901247700,3.488247802734375,3.6865830653846263,4.572198610189557,1.3815727235928177
1772785754911263700,3.498263671875,-1.6575158631026743,4.381624015885591,-4.065492073850334
1772785754921279700,3.50827978515625,-11.957138765382766,2.7181629806429144,-15.852151815235613
1772785754931295700,3.518295654296875,-19.60289200323224,-0.8028938608460128,-20.688336292898654
1772785754941311500,3.5283115234375,-19.62064393302202,-0.919698870062083,-20.84665053958893
1772785754951326700,3.53832666015625,-19.643795676028727,-1.0298526046954095,-21.074719290506838
1772785754961342700,3.5483427734375,-19.67073979705572,-1.124422693488747,-21.29900267766714
1772785754971358700,3.558358642578125,-19.697066662967202,-1.2001814065672456,-21.481742925083637
1772785754981374700,3.568374755859375,-19.724190816736222,-1.2761283356942235,-21.630087566423416
1772785754991390700,3.578390625,-19.75436149859428,-1.3587597110211849,-21.76729122054577
1772785755001405700,3.58840576171875,-19.78150435706377,-1.429318955760449,-21.877798590922353
1772785755011421700,3.598421630859375,-19.797726008546352,-1.4749467344693838,-21.931326767492294
1772785755021437700,3.608437744140625,-19.799208356058596,-1.5027663231566548,-21.896762819111345
1772785755031453700,3.61845361328125,-19.788174920868872,-1.52706694393754,-21.759467979574204
1772785755041469700,3.6284697265625,-19.775172815954683,-1.564508785842359,-21.54777519391775
1772785755051484700,3.638484619140625,-19.77040779350996,-1.6222596946738659,-21.318326971340177
1772785755061500700,3.648500732421875,-19.774536856138706,-1.687360381746292,-21.120433578455447
1772785755071516700,3.6585166015625,-19.784310062134264,-1.7489200352109968,-20.99438961625099
1772785755081532700,3.66853271484375,-19.795988809490204,-1.8020717796839774,-20.954111381876466
1772785755091548700,3.678548583984375,-19.80555626378059,-1.8381579691961407,-20.978514001727103
1772785755101563600,3.688563720703125,-19.810639266133308,-1.8508477932907639,-21.038083796548843
1772785755111579600,3.69857958984375,-8.808018901389836,1.4830748036064207,1.725756309505552
1772785755121596000,3.708595947265625,-4.581118414226174,1.8969433356419205,3.2232460074335334
1772785755131612200,3.718612060546875,-1.524672157755494,1.7339678191423415,3.3168168560564517
1772785755141628000,3.7286279296875,0.7640846761107444,1.3661977520674466,2.5992571997553107
1772785755151643100,3.73864306640625,3.0325299588322636,0.9181855428896843,2.23971340149492
1772785755161659000,3.748658935546875,5.955908053550123,0.3515964925177395,2.3086448989018797
1772785755171675000,3.7586748046875,8.380212006503344,-0.1578323083922267,1.9591287197895346
1772785755181691000,3.76869091796875,10.13158922560811,-0.26066899801045657,1.0462648103140293
1772785755191707000,3.778706787109375,11.038256326270103,0.1543880862224847,-0.15310988298021255
1772785755201721900,3.788721923828125,12.117337510645388,0.9270103621192276,-0.8610411485839634
1772785755211737900,3.79873779296875,14.299332005882261,1.8545102613210678,-0.6641111208386719
1772785755221753900,3.80875390625,16.661002684789896,2.0294296058535575,-0.2663616566941142
1772785755231770000,3.81877001953125,17.899315815222263,1.6786796471625565,-0.7653522118285297
1772785755241786000,3.8287861328125,17.900578382503987,1.1129029360868037,-2.0636926715917885
1772785755251801000,3.838801025390625,16.656194407725334,0.3690846568048,-3.892640183241665
1772785755261817000,3.848817138671875,14.550370128977297,-0.6148549224995077,-5.62191107673943
1772785755271832800,3.858832763671875,12.546535567629336,-1.0194297026194632,-6.410457409411668
1772785755281848800,3.868848876953125,10.907194828164577,-0.44045412194840605,-5.8716351946264504
1772785755291864800,3.87886474609375,8.906157204058767,0.35453966983016577,-4.4071962640374895
1772785755301879800,3.8888798828125,7.301433604466915,1.1411107934392988,-2.5734289310157297
1772785755311895800,3.898895751953125,6.554151010075211,1.7265560815811156,-1.348703304170072
1772785755321912000,3.908912109375,6.770418264040351,1.603063119033724,-0.5646906694047152
1772785755331928000,3.918927978515625,7.575893519681692,0.025359189923107622,-0.6119068863488734
1772785755341943000,3.928943115234375,8.287719016245006,-0.832773231607303,-0.6825612620256841
1772785755351959000,3.938958984375,8.6504393987149,-0.8417478345710784,-0.5815355673521757
1772785755361975000,3.94897509765625,9.198678845664858,-1.0817164282497018,-0.5136306365139782
1772785755371991000,3.958990966796875,9.825070622831582,-1.0645441249787806,-0.39608883745595813
1772785755382006800,3.9690068359375,10.13367830684185,-0.9229583102494477,-0.6854306069169193
1772785755392022000,3.97902197265625,10.297585258972644,-0.7565839450918137,-1.2354445892587302
1772785755402037800,3.989037841796875,10.211377632594107,-0.5543251235391944,-1.4853402643203735
1772785755412054000,3.999053955078125,10.050408487480878,-0.295750503992103,-1.2741954679355025
1772785755422070000,4.009070068359375,9.852575884872675,0.028644933595508335,-0.8533338621422648
1772785755432086000,4.0190859375,9.45843219013512,0.48125605140347033,-0.35746187741979957
1772785755442101000,4.02910107421875,8.696901290160417,1.1664156228266656,0.18923231284953654
1772785755452117000,4.039116943359375,7.90322402434051,1.7835469658255576,0.4438181915540248
1772785755462133000,4.049133056640625,7.930535809636115,2.1457094221517443,0.27876411521472033
1772785755472149000,4.05914892578125,8.623146318119764,2.4537530425384637,0.05365545621141791
1772785755482164700,4.069164794921875,9.43547743100524,2.4953806456953287,0.01828282179608941
1772785755492180000,4.079179931640625,10.131128622359038,2.0597801743231714,-0.07865414225906134
1772785755502195700,4.08919580078125,10.058826771736145,1.3194341011963784,0.31361484464779493
1772785755512212000,4.0992119140625,9.774002698895334,1.2108482004016636,1.2208642752423882
1772785755522228000,4.10922802734375,7.287429044511914,1.783467763109505,0.340302945087105
1772785755532244000,4.119243896484375,3.5889644026756287,1.8526266395315527,-1.3883052467182277
1772785755542259000,4.129259033203125,-0.006983283016085624,1.088963988225162,-2.401659574946761
1772785755552275000,4.13927490234375,-7.428502818065882,0.1584980057593435,-5.0955894470870495
1772785755562291000,4.149291015625,-17.239236287987232,0.6487288427896797,-6.763529089048505
1772785755572307000,4.159306884765625,-27.324455392086506,0.5323358484406024,-3.226101104603708
1772785755582323000,4.169322998046875,-27.357929791665075,0.32485578510835766,-3.2823277264773845
1772785755592338000,4.179337890625,-27.381668394649026,0.22272519793286918,-3.3562969257906077
1772785755602354200,4.189354248046875,-27.39695247302055,0.19066782554537057,-3.4388916223689914
1772785755612370000,4.199369873046875,-27.412858482682704,0.18141805890202523,-3.5460768625855446
1772785755622386000,4.209385986328125,-27.425121751928327,0.1857378217972815,-3.635233986419439
1772785755632402000,4.21940185546875,-27.42683323202133,0.20049159268438815,-3.661898121461272
1772785755642417000,4.2294169921875,-27.424118712365626,0.20812617921605706,-3.6518969519287348
1772785755652433000,4.239432861328125,-27.42545376036167,0.18649682347103952,-3.6382433973684907
1772785755662449000,4.249448974609375,-27.434417988061902,0.13270444300696252,-3.6402497687548396
1772785755672465000,4.25946484375,-27.453880228900907,0.048096214649081225,-3.674361881715059
1772785755682481200,4.269481201171875,-27.48330272274017,-0.05913637184053659,-3.739047996637225
1772785755692496100,4.27949609375,-27.5184628834486,-0.17015402982681987,-3.822800046557188
1772785755702512000,4.28951220703125,-27.55003407975435,-0.2588639944151044,-3.9003997113272546
1772785755712528000,4.29952783203125,-27.56721200904846,-0.2921979626096785,-3.956114292025566
1772785755722543900,4.3095439453125,-27.565682899785042,-0.25331059807166456,-3.9912352897673844
1772785755732560000,4.319559814453125,-27.547918110513685,-0.14629355402886868,-4.010997390335798
1772785755742574800,4.329574951171875,-6.885281491538882,-0.9990753352463245,5.705866540277004
1772785755752590800,4.3395908203125,-2.067907512807846,-0.3128523358426988,7.529628612112998
1772785755762606800,4.34960693359375,1.4344798456549643,0.6923135713636874,7.7776050095498555
1772785755772623000,4.359623046875,3.3149592454910275,0.8680405059520154,5.886169331413507
1772785755782639000,4.36963916015625,5.369474192762374,0.08728241600319743,2.1500733164496717
1772785755792654000,4.379654052734375,8.84011032217741,-0.7686353251524269,-1.5653113343968987
1772785755802670000,4.389670166015625,12.523183918136358,-0.9952474475212395,-4.502035817421972
1772785755812686000,4.39968603515625,14.709147317004202,-0.22328334327228366,-7.17781073192954
1772785755822701800,4.409701904296875,14.996638563227652,1.1226845445845275,-8.204941364315152
1772785755832717000,4.419717041015625,14.485160866963863,2.6511794024333355,-7.235701779884099
1772785755842732800,4.42973291015625,14.167021969020366,4.601871279397606,-6.444618037688731
1772785755852748800,4.439748779296875,14.977574966317414,5.892391566929221,-5.494132838088274
1772785755862764800,4.449764892578125,16.597999408388137,4.657476846763491,-4.650836678096652
1772785755872781000,4.459781005859375,18.320819226050375,2.5312393100619315,-3.5189515397727487
1772785755882796000,4.469796142578125,18.373678709578513,1.777010403663665,-2.3871821367830037
1772785755892812000,4.47981201171875,15.732337687331437,1.928679367120564,-1.6695502920284866
1772785755902828000,4.489828125,11.939722351157664,1.7240500901095568,-1.6412972803600132
1772785755912844000,4.499843994140625,8.483176121893525,0.9179588945269584,-2.1355951476335524
1772785755922860000,4.509860107421875,5.428038609933853,0.15608349196352064,-2.352672402807325
1772785755932875000,4.519875,3.749194127598405,-0.2512202747289091,-2.2515017467051743
1772785755942891000,4.52989111328125,3.8570401698112486,-0.540286734379828,-1.789090133035928
1772785755952906800,4.53990673828125,4.664985614958405,-0.6444421053811907,-1.6324822518721223
1772785755962923000,4.549923095703125,5.780020156246423,-0.4679430173765868,-1.3979180014550685
1772785755972939000,4.55993896484375,7.170043020537495,-0.10147172140795736,-1.0085828760430215
1772785755982954000,4.5699541015625,8.093516294571756,0.10462815787857398,-0.7444359727889299
1772785755992970000,4.579969970703125,8.821764518147706,0.24093550248201934,-1.0165076776929198
1772785756002986000,4.589986083984375,9.901225641751289,0.3083105276945978,-1.4802686601445079
1772785756013002000,4.600001953125,11.245766273283957,0.1939003411931917,-1.6578751979343591
1772785756023018000,4.61001806640625,12.555935848659276,0.12220223775026388,-1.7247449405059216
1772785756033033000,4.620032958984375,13.077732694363593,0.13041680699381977,-1.6347402599319816
1772785756043049000,4.630049072265625,12.844020969122647,0.24830683496762065,-1.552065483854711
1772785756053065000,4.64006494140625,12.158625798845291,0.40607006017901,-1.5978966761812567
1772785756063081000,4.6500810546875,11.226709690636396,0.6886956000622362,-1.7586099468372762
1772785756073097000,4.660096923828125,10.102319876503945,1.0790556846078485,-1.9518815251402555
1772785756083112000,4.67011181640625,9.294172771304845,1.4089379926413297,-2.087569221741706
1772785756093128000,4.6801279296875,8.945990617275237,1.621972402165085,-2.1746593300431964
1772785756103144000,4.69014404296875,9.140607180446386,1.711135517348349,-2.1134302237071094
1772785756113160000,4.700159912109375,9.856317994010448,1.6475392434895038,-1.6429640445284543
1772785756123176200,4.71017626953125,9.902973362201452,1.4346553483523428,-1.1417890580270438
1772785756133191200,4.720191162109375,9.271183525383472,1.0443357419475912,-0.677569225892052
1772785756143207200,4.730207275390625,7.988224613016843,0.8550250300996005,0.0583006516687572
1772785756153223000,4.740222900390625,5.691081059077382,1.566481839480996,0.11899104801826178
1772785756163239000,4.750239013671875,1.1351830108255148,3.5390161304190753,-0.29062084948606787
1772785756173255000,4.7602548828125,-7.746389787074923,5.959865851265191,-4.601585155932605
1772785756183270000,4.770269775390625,-22.478827378773687,7.583851200687885,-11.946548397785424
1772785756193286000,4.780285888671875,-22.62955219324827,7.072016946071386,-12.32802608769536
1772785756203302100,4.79030224609375,-22.80089192572832,6.620389615136385,-12.664461689829826
1772785756213318100,4.800318115234375,-22.96314351186752,6.2928001672804355,-12.97316523543
1772785756223334100,4.810334228515625,-23.096367740964887,6.067485098984837,-13.212695291560888
1772785756233349000,4.82034912109375,-23.183933796215054,5.942921730726957,-13.373852652722597
1772785756243365000,4.830365234375,-23.243353953433036,5.924476557976007,-13.557408892697095
1772785756253381000,4.840381103515625,-23.269390896487234,5.994885726720094,-13.72674254605174
1772785756263396900,4.85039697265625,-23.262657204318046,6.115747317850589,-13.840176033008097
1772785756273412000,4.860412109375,-10.382212338161468,3.0308164329126477,4.063194902823865
1772785756283427800,4.870427734375,-6.080690617516637,1.4429600892305374,2.3753230644240975
1772785756293443800,4.88044384765625,-4.37092258912921,0.26423341249376536,1.4099714273422956
1772785756303460000,4.890460205078125,-3.6342239325940606,-0.3447831592410803,1.3102537465274333
1772785756313476000,4.90047607421875,-3.4365871448189016,-1.2687518155768513,0.9841974995881319
1772785756323492000,4.9104921875,-4.268436612644791,-1.9538632004767655,0.9667322777852415
1772785756333507000,4.920507080078125,-5.489841278374195,-1.8938915468558668,1.7127441215887664
1772785756343523000,4.930523193359375,-5.263969745239615,-1.3971636759564279,2.441674774470925
1772785756353539000,4.9405390625,-4.857323127281665,-0.5983920096069574,3.0518498685911295
1772785756363555000,4.95055517578125,-4.129501020163297,0.025901626236736773,3.1345769593775272
1772785756373570000,4.960570068359375,-2.6283605446428058,0.28044512710422276,2.6334353636890646
1772785756383586000,4.9705859375,-0.3037438773661852,0.1646589395418763,1.9128326864302156
1772785756393602000,4.98060205078125,1.892076314127445,-0.06330971200242638,0.9408288979828358
1772785756403618000,4.9906181640625,3.9720325766474005,-0.17057561623975634,-0.0967456792667508
1772785756413634000,5.000634033203125,6.091044253748655,-0.15372604211717844,-0.7571168829247356
1772785756423649000,5.01064892578125,8.170819314482808,-0.1778695726402104,-1.154306228968501
1772785756433665000,5.0206650390625,9.493156882035732,-0.3752610073521733,-1.4108940951451658
1772785756443681000,5.030680908203125,10.416377642613648,-0.4178381663188338,-1.690775158625841
1772785756453697000,5.040697021484375,10.886454822474718,-0.7107528258305043,-1.992203160265088
1772785756463713000,5.050713134765625,10.899400813287496,-1.0937964498829096,-2.260450776836276
1772785756473728000,5.06072802734375,10.696377656298875,-1.3543366338819265,-2.3914614215373993
1772785756483744300,5.070744140625,9.802390004467963,-1.6997987152978777,-2.348558976139128
1772785756493760000,5.080760009765625,8.794243474015593,-1.7643901376739144,-2.363557807828486
1772785756503776000,5.09077587890625,7.982061998733878,-1.268116148021817,-2.8217139560103415
1772785756513792000,5.1007919921875,6.824975783658028,-1.306445148024708,-3.134097651427984
1772785756523807000,5.110806884765625,6.05860211982727,-1.6965858907312155,-3.0708786864489315
1772785756533823000,5.120822998046875,5.719878114494681,-2.015912537154555,-2.8759423898041248
1772785756543839000,5.1308388671875,5.050016613435745,-2.1776785317339002,-2.6831270308360455
1772785756553855000,5.14085498046875,3.824889127790928,-1.9598139255747198,-2.46626444132626
1772785756563871200,5.150871337890625,2.325645425802469,-1.6026789420217276,-2.082682472613454
1772785756573886000,5.160885986328125,0.4514812004625797,-1.355214001238346,-1.4523514563016593
1772785756583902200,5.170902099609375,-0.8761918828994035,-1.4056091404795645,-0.7335904613867401
1772785756593918200,5.180918212890625,-2.3051520883500576,-1.7035284033454954,-0.323379867336899
1772785756603934000,5.190933837890625,-3.9212317792147395,-1.6446699716635047,-0.344369610004127
1772785756613950000,5.200949951171875,-4.668962701895833,-1.277564652107656,-0.16076865410506724
1772785756623965000,5.21096484375,-4.190503478136659,-1.11971941116862,0.10827931906357408
1772785756633981000,5.22098095703125,-3.555017124888301,-0.9519736115273087,0.36493045973479743
1772785756643997000,5.230996826171875,-3.629448973277211,-0.68086234915331,0.3619434067480266
1772785756654013000,5.241012939453125,-4.101837352690101,-0.4150477318827063,0.44587622006237504
1772785756664029200,5.251029296875,-3.9723447113364934,-0.3392099622186273,0.3154869951952249
1772785756674044200,5.261044189453125,-4.163656972265243,-0.12765614664144814,0.6996309817049652
1772785756684060200,5.27106005859375,-4.256908671936393,-0.15317118471339344,1.2514499676421285
1772785756694076200,5.281076171875,-3.854174258986115,-0.1757546263128519,1.3087581011421978
1772785756704092000,5.291091796875,-3.9657010355383155,-0.2852903751783073,0.9345748060241341
1772785756714108000,5.30110791015625,-3.749024031728506,-0.24972419095225631,0.6394632940553129
1772785756724123000,5.311122802734375,-1.8088509184300898,-0.03281038271188736,0.8139134136408567
1772785756734139000,5.321138916015625,-0.4485626826673746,-0.3248439485400915,1.5120536453314124
1772785756744155000,5.33115478515625,-0.49019174712896346,-0.3722786305405199,1.796120031672716
1772785756754171100,5.341171142578125,-1.3294120359838009,0.07957965960614383,1.778305265779793
1772785756764187100,5.351187255859375,-2.684778597435355,0.3788538442123681,1.456880039642006
1772785756774202000,5.3612021484375,-3.644406303912401,0.28005430115573104,1.3960031077444552
1772785756784218000,5.371218017578125,-3.6566385934978722,0.29398806089684365,1.2932896061144767
1772785756794234000,5.381234130859375,-2.9631916341900824,0.20894363307878375,1.513405498331785
1772785756804250000,5.39125,-2.671398891380429,-0.14763799090776591,1.7153516737386583
1772785756814265000,5.40126513671875,-2.5021260283023117,-0.36231589332222935,1.748732257553935
1772785756824281000,5.411281005859375,-2.359946923854947,-0.4641195135656744,1.5937749200761318
1772785756834296800,5.421296875,-2.669845816719532,-0.41468806825745846,1.5700091368243096
1772785756844313000,5.43131298828125,-3.4756945818483826,-0.27976434176582843,1.4303027061007916
1772785756854329000,5.4413291015625,-4.340635002893209,0.014918980519333854,1.0125612781547009
1772785756864344000,5.451343994140625,-4.6658238193482156,0.4077306138023734,0.7493101546965539
1772785756874360000,5.461360107421875,-4.32077119551599,0.8327062307856976,0.8404024843767285
1772785756884376000,5.4713759765625,-3.404349593558907,1.2522796964645384,1.06762762407735
1772785756894392000,5.48139208984375,-2.41481014842093,1.5624891165830195,1.1937181288372725
1772785756904408000,5.491407958984375,-1.6463965031951664,1.6601488419547676,1.1697346842467784
1772785756914423000,5.501423095703125,-1.343721716365218,1.4084719825647771,0.9673358697015791
1772785756924439000,5.51143896484375,-1.4598808288931846,0.9275602510869503,0.7300636024348437
1772785756934455000,5.521455078125,-1.4116466670781374,0.43901130272895095,0.33759967747777697
1772785756944471000,5.531470947265625,-1.2213380302339791,0.3242939134418964,0.18262728856131433
1772785756954487000,5.541487060546875,-0.6228799696534871,1.1141213719658554,0.24112455878071484
1772785756964502000,5.551501953125,0.15406418803036212,1.8939770331822334,0.18612901307195423
1772785756974518000,5.56151806640625,0.6653449004173279,2.2702745439752934,0.3148053696066141
1772785756984534000,5.571533935546875,1.236044016456604,2.182438147351146,0.723796650994569
1772785756994550000,5.581550048828125,1.5553899521023034,1.7069832199744879,0.9575564531609415
1772785757004566000,5.59156591796875,1.6811889996349811,1.3014151910334826,0.7909142308473587
1772785757014581000,5.6015810546875,1.6536621102839708,1.138533051905781,0.18974004317596554
1772785757024597000,5.611596923828125,1.673839221394062,1.1772975207164882,-0.6899839593723416
1772785757034613200,5.62161328125,2.068163533395529,1.3577891124233603,-1.201691518869251
1772785757044629000,5.63162890625,2.9030449162632226,1.6276231214031576,-1.1137458166517316
1772785757054645000,5.64164501953125,3.9281238768160343,1.7776774892702698,-0.9125590813100337
1772785757064660000,5.651659912109375,4.769163197791576,1.736757595991343,-0.8465358725652098
1772785757074676000,5.661676025390625,5.0281934886842965,1.6521683645948766,-1.027199752099067
1772785757084692000,5.67169189453125,4.624635484391451,1.541996217522025,-1.3771503771059215
1772785757094708000,5.6817080078125,3.818029178893566,1.3174008418031036,-1.78781821340397
1772785757104724000,5.691723876953125,2.8377450533568855,1.1693015535265208,-2.2994793034106493
1772785757114739000,5.701739013671875,2.6773218516886232,1.2715402772516011,-2.4804668619409203
1772785757124755200,5.711755126953125,3.6920325629621744,1.6575155708417295,-1.7329950285874307
1772785757134771200,5.721771240234375,4.522114436593651,2.326284162097424,-1.2557201923072336
1772785757144787200,5.731787109375,5.09010429367423,2.3032526844695207,-1.5445388877421617
1772785757154803000,5.741802978515625,2.497459790056944,1.7199780183650553,-2.028957019905746
1772785757164818200,5.751818115234375,0.3934071971565485,1.4001669494256377,-2.4692425803542135
1772785757174834000,5.761833984375,-0.9768149881213903,1.441969178497046,-2.5987363907516
1772785757184850000,5.771849853515625,-1.1969605448246001,1.5453016888082027,-2.520866969129443
1772785757194866000,5.781865966796875,-0.7233931847602129,1.575144746147096,-2.298806957107037
1772785757204882200,5.791882080078125,0.7346177586078644,1.7989599312737583,-2.077499224756658
1772785757214897000,5.80189697265625,0.8405009763151406,2.0857941748932003,-1.7740348949842153
1772785757224913200,5.8119130859375,1.0533183820873497,1.770825869809836,-1.461491478960216
1772785757234929200,5.82192919921875,1.7164537897616623,1.5053240448154508,-0.8944329113803804
1772785757244945200,5.831945068359375,1.2188269241958856,1.4865335657581686,-0.4584171006729826
1772785757254961000,5.8419609375,0.45113574802577494,1.4666038535378874,-0.7251382748618721
1772785757264976100,5.85197607421875,0.4569985025793314,1.1604593447707592,-1.0862027068182825
1772785757274991900,5.861991943359375,0.7688233950704336,0.5544029380157589,-1.1079396145910023
1772785757285008000,5.8720078125,0.8097814284026622,0.38521278478503224,-0.9517457941208034
1772785757295023900,5.88202392578125,0.6540326482862234,0.6694939829207956,-0.6105461924549191
1772785757305038800,5.892038818359375,0.7913935387969017,0.9747380357168615,-0.15706874014120548
1772785757315055000,5.90205517578125,1.1626385885059833,1.016604416065663,0.2810582540338859
1772785757325071000,5.912071044921875,1.4528759185671805,0.8466318802855909,0.47609351754114027
1772785757335087000,5.922087158203125,1.4004314455807207,0.6123888246469199,0.3846826234310865
1772785757345103000,5.93210302734375,1.3168237725675105,0.319455971891433,0.12978726778547278
1772785757355118000,5.9421181640625,1.4257307220101356,0.05072568636983633,-0.10652250199150294
1772785757365134000,5.952134033203125,1.2393471496552229,-0.23981179568171498,-0.3293981777783483
1772785757375150000,5.962150146484375,0.432258029076457,-0.4434460703060031,-0.6069359660685062
1772785757385165800,5.972165771484375,-0.5972387479186058,-0.5292024457857012,-0.8420509822361171
1772785757395182000,5.98218212890625,-1.0196265403658151,-0.5258733013629913,-0.93970676208511
1772785757405197000,5.992197021484375,-0.9389040674000978,-0.47444677324742074,-0.9142596746828406
1772785757415213000,6.002213134765625,-0.5022819978952408,-0.4538149041071534,-0.6988423886105418
1772785757425229000,6.01222900390625,-0.23654490284025667,-0.32566607857793567,-0.38283100421503186
1772785757435245000,6.0222451171875,0.2710176658064127,-0.18338614410459994,-0.24009218352567402
1772785757445261000,6.032260986328125,0.7107347787171602,-0.08507321552112698,0.06106299252156168
1772785757455276000,6.042276123046875,0.9566057283073663,-0.22513357424885033,0.3226453425172716
1772785757465292000,6.0522919921875,0.7934300130605697,-0.46605669217333195,0.1841607817389071
1772785757475308000,6.06230810546875,0.17469956430196762,-0.5825732398368418,-0.043388329219073055
1772785757485324000,6.072323974609375,-0.5954606323301792,-0.5044622645437717,-0.3164194537397474
1772785757495340000,6.082340087890625,-1.3676456127882004,-0.3775805363409221,-0.6213958685755729
