time,seconds_elapsed,z,y,x
1772785751475846400,0.062846435546875,-0.0695066824555397,-0.23010750114917755,-0.23596520721912384
1772785751485862100,0.072862060546875,-0.2675401270389557,-0.11008335649967194,0.21231457591056824
1772785751495878100,0.082878173828125,-0.453781396150589,-0.08694053441286087,0.6872386932373047
1772785751505894100,0.09289404296875,-0.6127822399139404,-0.1807897984981537,1.1094028949737549
1772785751515909000,0.1029091796875,-0.7438569664955139,-0.29949238896369934,1.4343655109405518
1772785751525925000,0.112925048828125,-0.8602626919746399,-0.44424957036972046,1.6773948669433594
1772785751535941000,0.122941162109375,-0.9926828742027283,-0.5990001559257507,1.847534418106079
1772785751545957000,0.13295703125,-1.1288880109786987,-0.7333345413208008,1.9610681533813477
1772785751555973400,0.142973388671875,-1.2505707740783691,-0.8381853699684143,2.0364110469818115
1772785751565989400,0.1529892578125,-1.3189098834991455,-0.8526774644851685,2.043952465057373
1772785751576004400,0.16300439453125,-1.308292031288147,-0.788783609867096,1.9455965757369995
1772785751586020400,0.173020263671875,-1.2625585794448853,-0.6379418969154358,1.7298648357391357
1772785751596036000,0.1830361328125,-1.2197785377502441,-0.3838711977005005,1.38499116897583
1772785751606052000,0.193052001953125,-1.20742928981781,-0.09894329309463501,0.9443148374557495
1772785751616068000,0.203068115234375,-1.2206521034240723,0.11145951598882675,0.4896339476108551
1772785751626083000,0.2130830078125,-1.223653793334961,0.2872241735458374,0.09735380113124847
1772785751636099000,0.22309912109375,-1.205156683921814,0.8315363526344299,-0.12783633172512054
1772785751646115300,0.233115234375,-1.119383692741394,1.1763840913772583,-0.24314694106578827
1772785751656131300,0.24313134765625,-0.9415778517723083,1.1787805557250977,-0.3892008662223816
1772785751666146300,0.253146240234375,-0.6439597010612488,0.8579387068748474,-0.5466411113739014
1772785751676162300,0.263162353515625,-0.17938224971294403,0.28569161891937256,-0.6121786832809448
1772785751686178300,0.27317822265625,0.2875780165195465,0.12872570753097534,-0.614788830280304
1772785751696194000,0.283194091796875,0.5541361570358276,0.28676459193229675,-0.5802139043807983
1772785751706210000,0.2932099609375,0.5455482602119446,0.26563000679016113,-0.543042004108429
1772785751716226000,0.30322607421875,0.4471297860145569,0.18696504831314087,-0.4931968152523041
1772785751726241000,0.313240966796875,0.41060879826545715,0.11761420965194702,-0.45010262727737427
1772785751736257300,0.32325732421875,0.4214118719100952,-0.06136532872915268,-0.43082788586616516
1772785751746273300,0.333273193359375,0.46096327900886536,-0.23196183145046234,-0.44719061255455017
1772785751756289300,0.343289306640625,0.4942484200000763,-0.3329384922981262,-0.46885138750076294
1772785751766305300,0.35330517578125,0.5274372100830078,-0.3716760277748108,-0.453867107629776
1772785751776320300,0.3633203125,0.5594847798347473,-0.3657715320587158,-0.40204906463623047
1772785751786336300,0.373336181640625,0.5818036794662476,-0.4022611081600189,-0.3265306055545807
1772785751796352300,0.383352294921875,0.6159891486167908,-0.4009714722633362,-0.21730761229991913
1772785751806368000,0.393367919921875,0.6527551412582397,-0.3031937777996063,-0.03348878398537636
1772785751816384300,0.40338427734375,0.6919593811035156,-0.2370518445968628,0.21884746849536896
1772785751826399000,0.41339892578125,0.7587464451789856,-0.23681242763996124,0.49940139055252075
1772785751836415200,0.423415283203125,0.8436269760131836,-0.4505699872970581,0.7050490379333496
1772785751846431200,0.43343115234375,0.9357805848121643,-0.6304832696914673,0.8362733721733093
1772785751856447200,0.443447265625,1.0254968404769897,-0.6468725204467773,0.902297854423523
1772785751866463200,0.453463134765625,1.1252697706222534,-0.527868390083313,0.9111342430114746
1772785751876478200,0.463478271484375,1.1946052312850952,-0.4470841586589813,0.8816128969192505
1772785751886494200,0.473494140625,1.249616265296936,-0.44915077090263367,0.8450900316238403
1772785751896510200,0.48351025390625,1.2817292213439941,-0.5054521560668945,0.8452343344688416
1772785751906526200,0.493526123046875,1.2567929029464722,-0.5267624855041504,0.8714491724967957
1772785751916542200,0.503542236328125,1.1965943574905396,-0.4161205589771271,0.8968937993049622
1772785751926557200,0.51355712890625,1.1103310585021973,-0.4146920442581177,0.9061101675033569
1772785751936573200,0.5235732421875,0.9605363011360168,-0.6528060436248779,0.7818024754524231
1772785751946589200,0.533589111328125,0.6522580981254578,-0.5430257320404053,0.3223182260990143
1772785751956605200,0.543605224609375,0.19194738566875458,0.05773632973432541,-0.5810602307319641
1772785751966621200,0.55362109375,-0.2511453330516815,0.7998999357223511,-1.5930579900741577
1772785751976636200,0.56363623046875,-0.5471528768539429,1.311691164970398,-2.2883200645446777
1772785751986652200,0.573652099609375,-0.6739220023155212,1.456581711769104,-2.5631086826324463
1772785751996668200,0.583668212890625,-0.6344889998435974,1.2480052709579468,-2.4096243381500244
1772785752006684400,0.593684326171875,-0.32997891306877136,1.097497582435608,-1.569260835647583
1772785752016700200,0.6037001953125,-0.028481673449277878,0.4595714211463928,-0.9142680764198303
1772785752026715400,0.61371533203125,0.5865892171859741,0.03632242977619171,-0.4705077111721039
1772785752036731100,0.623731201171875,1.5139331817626953,-0.12752726674079895,-0.23095127940177917
1772785752046747100,0.6337470703125,2.3759679794311523,-0.0807400643825531,-0.20949925482273102
1772785752056763100,0.64376318359375,2.718337297439575,0.16366755962371826,-0.34896811842918396
1772785752066779100,0.653779052734375,2.3936285972595215,0.7743613123893738,-0.6241658926010132
1772785752076794000,0.663794189453125,1.4992926120758057,1.6547157764434814,-0.9456941485404968
1772785752086810000,0.67381005859375,0.3969825208187103,2.1525614261627197,-1.0854823589324951
1772785752096826400,0.683826416015625,-0.5556977987289429,2.2703425884246826,-0.9529770016670227
1772785752106842400,0.69384228515625,-1.217593789100647,2.0741076469421387,-0.8639123439788818
1772785752116858400,0.7038583984375,-1.6266473531723022,1.8884804248809814,-0.7722172141075134
1772785752126873300,0.713873291015625,-1.7981104850769043,1.7939305305480957,-0.7568872570991516
1772785752136889300,0.723889404296875,-1.7524794340133667,1.7682963609695435,-0.6649628281593323
1772785752146905000,0.733905029296875,-1.4318002462387085,1.7555574178695679,-0.4705771207809448
1772785752156921000,0.743921142578125,-0.8830951452255249,1.3826532363891602,-0.3446595072746277
1772785752166937000,0.75393701171875,-0.3267362713813782,0.9491263031959534,-0.13705651462078094
1772785752176952000,0.7639521484375,0.0720604807138443,0.738783597946167,0.19758018851280212
1772785752186968000,0.773968017578125,0.23899538815021515,0.8304828405380249,0.5301307439804077
1772785752196984300,0.783984375,0.22616486251354218,0.9393609166145325,0.6888467073440552
1772785752207000300,0.794000244140625,0.13416516780853271,0.9902704358100891,0.6245164275169373
1772785752217016300,0.804016357421875,0.09749409556388855,1.023285984992981,0.3692934811115265
1772785752227031300,0.81403125,0.20957989990711212,1.001389980316162,-0.0306168831884861
1772785752237047300,0.82404736328125,0.38088327646255493,0.9076951146125793,-0.41939353942871094
1772785752247063000,0.83406298828125,0.5034305453300476,0.7226852774620056,-0.600501537322998
1772785752257079000,0.8440791015625,0.5708307027816772,0.4261045753955841,-0.6049259901046753
1772785752267095000,0.854094970703125,0.5641527771949768,0.16092218458652496,-0.4313613772392273
1772785752277110000,0.864110107421875,0.5190196633338928,-0.2563462555408478,-0.23439696431159973
1772785752287126300,0.874126220703125,0.4199463427066803,-0.6139054298400879,-0.11015170812606812
1772785752297142300,0.884142333984375,0.2788107097148895,-0.9094336628913879,-0.11375685036182404
1772785752307158300,0.894158203125,0.13914252817630768,-1.0931775569915771,-0.22728155553340912
1772785752317173200,0.90417333984375,-0.035626694560050964,-1.2106112241744995,-0.36048126220703125
1772785752327189200,0.914189208984375,-0.23807407915592194,-1.3614329099655151,-0.286641389131546
1772785752337205200,0.924205322265625,-0.411906898021698,-1.410130500793457,-0.059196099638938904
1772785752347221200,0.93422119140625,-0.5660589337348938,-1.3308085203170776,0.16443513333797455
1772785752357237000,0.944237060546875,-0.678688645362854,-1.208046317100525,0.3163950741291046
1772785752367252200,0.954252197265625,-0.7277818918228149,-1.0745627880096436,0.38242974877357483
1772785752377268200,0.964268310546875,-0.7125182151794434,-0.9716938734054565,0.3564852476119995
1772785752387284200,0.9742841796875,-0.6662473678588867,-0.9009549617767334,0.25454476475715637
1772785752397300200,0.98430029296875,-0.6208863258361816,-0.8354406952857971,0.13079378008842468
1772785752407316200,0.994316162109375,-0.5989240407943726,-0.8609013557434082,0.022117633372545242
1772785752417331200,1.004331298828125,-0.5814525485038757,-0.962014377117157,-0.06357833743095398
1772785752427347200,1.01434716796875,-0.5279749631881714,-1.0228066444396973,-0.08880805969238281
1772785752437363200,1.02436328125,-0.3902052342891693,-1.0294156074523926,0.0035094022750854492
1772785752447379200,1.034379150390625,-0.18574102222919464,-0.9856939315795898,0.17684949934482574
1772785752457395200,1.044395263671875,0.05016594007611275,-0.958746612071991,0.3193894922733307
1772785752467410200,1.05441015625,0.3158774971961975,-0.9407428503036499,0.40562132000923157
1772785752477426200,1.06442626953125,0.586145281791687,-0.9398133158683777,0.44521287083625793
1772785752487442200,1.074442138671875,0.8802096843719482,-1.0625157356262207,0.5205510258674622
1772785752497458200,1.084458251953125,1.107583999633789,-1.427270531654358,0.5945733785629272
1772785752507474200,1.09447412109375,1.232194423675537,-1.8981879949569702,0.6869456768035889
1772785752517489200,1.1044892578125,1.288792371749878,-2.5159196853637695,0.7601109743118286
1772785752527505200,1.114505126953125,1.3451409339904785,-3.0651564598083496,0.7154409289360046
1772785752537521200,1.124521240234375,1.5719149112701416,-2.949678659439087,0.48001760244369507
1772785752547537200,1.134537109375,2.0323774814605713,-2.129256010055542,-0.15212413668632507
1772785752557553400,1.144553466796875,2.0749804973602295,-0.06878442317247391,-1.4225430488586426
1772785752567568400,1.154568359375,0.6747785806655884,2.4119603633880615,-2.696564197540283
1772785752577584400,1.16458447265625,-0.3954475224018097,2.9041080474853516,-2.526296377182007
1772785752587600100,1.17460009765625,-0.9103121757507324,1.9191869497299194,-1.0655502080917358
1772785752597616000,1.1846162109375,-1.2176790237426758,0.7827926874160767,0.3600251376628876
1772785752607632100,1.194632080078125,-1.2292706966400146,0.003933120984584093,0.7665697336196899
1772785752617647000,1.204647216796875,-0.8934577703475952,-0.27209922671318054,0.15267808735370636
1772785752627663000,1.2146630859375,-0.6697580814361572,-0.5147680640220642,-0.7731719613075256
1772785752637679000,1.22467919921875,-0.5682840943336487,-0.6303216218948364,-1.483857274055481
1772785752647695400,1.2346953125,-0.5664121508598328,-0.15409065783023834,-1.7624508142471313
1772785752657711400,1.24471142578125,-0.8184031248092651,1.0174661874771118,-1.5623737573623657
1772785752667726300,1.254726318359375,-1.4039376974105835,1.9166487455368042,-0.9678957462310791
1772785752677742300,1.264742431640625,-2.0737431049346924,2.4352867603302,-0.3535439670085907
1772785752687758000,1.274758056640625,-2.689976453781128,2.691579818725586,-0.159579798579216
1772785752697774000,1.284774169921875,-2.9933712482452393,2.7464280128479004,-0.4409172236919403
1772785752707790000,1.2947900390625,-2.810927391052246,2.5264933109283447,-0.8229244947433472
1772785752717805000,1.30480517578125,-2.2529685497283936,2.0885984897613525,-0.8594657778739929
1772785752727821000,1.314821044921875,-1.6165962219238281,1.6661874055862427,-0.42224210500717163
1772785752737837300,1.32483740234375,-1.0501480102539062,1.240161418914795,0.4035091996192932
1772785752747853300,1.334853271484375,-0.5539118051528931,1.028136134147644,1.3466439247131348
1772785752757869300,1.344869384765625,-0.10132349282503128,0.8114106059074402,1.9842462539672852
1772785752767884300,1.35488427734375,0.30853086709976196,0.5676682591438293,2.1091713905334473
1772785752777900300,1.364900390625,0.5491642355918884,0.5014301538467407,1.8316268920898438
1772785752787916300,1.374916259765625,0.670154869556427,0.28391972184181213,1.248369574546814
1772785752797932000,1.38493212890625,0.8063976168632507,0.18020181357860565,0.5087816119194031
1772785752807947300,1.394947265625,0.9175816774368286,0.06703237444162369,-0.24136483669281006
1772785752817963000,1.404962890625,1.0208839178085327,-0.14569444954395294,-0.8288320899009705
1772785752827979000,1.41497900390625,1.1775331497192383,-0.45367303490638733,-1.189233422279358
1772785752837995300,1.424995361328125,1.3276453018188477,-0.8153930306434631,-1.2795453071594238
1772785752848011300,1.43501123046875,1.5026075839996338,-1.0018949508666992,-0.9738170504570007
1772785752858026200,1.445026123046875,1.5724304914474487,-0.9116079211235046,-0.38094577193260193
1772785752868042200,1.455042236328125,1.345812201499939,-0.4992111027240753,0.17890527844429016
1772785752878058200,1.465058349609375,1.00763738155365,-0.2470189929008484,0.37548428773880005
1772785752888074200,1.47507421875,0.7567471265792847,-0.23775438964366913,0.17038068175315857
1772785752898090200,1.48509033203125,0.5336242914199829,-0.24765415489673615,-0.1516866683959961
1772785752908105200,1.495105224609375,0.3194246292114258,-0.30344921350479126,-0.364894300699234
1772785752918121200,1.505121337890625,0.12627653777599335,-0.3570897579193115,-0.40650564432144165
1772785752928137200,1.51513720703125,-0.011750034056603909,-0.37183886766433716,-0.2923572361469269
1772785752938153200,1.5251533203125,-0.12494175136089325,-0.2669418752193451,-0.06947483867406845
1772785752948169200,1.535169189453125,-0.22232183814048767,-0.08684614300727844,0.17904575169086456
1772785752958184200,1.54518408203125,-0.29447421431541443,0.05717180669307709,0.38332825899124146
1772785752968200200,1.5552001953125,-0.362278550863266,0.13429588079452515,0.5170061588287354
1772785752978216200,1.56521630859375,-0.4516732692718506,0.17038151621818542,0.5843364596366882
1772785752988232200,1.575232177734375,-0.5537079572677612,0.18083840608596802,0.5927885174751282
1772785752998248200,1.585248291015625,-0.5909126996994019,0.097748301923275,0.5342949032783508
1772785753008263200,1.59526318359375,-0.5215958952903748,-0.10987360030412674,0.4423285126686096
1772785753018279400,1.605279541015625,-0.3708956241607666,-0.343063622713089,0.368924081325531
1772785753028295200,1.615295166015625,-0.19105368852615356,-0.547157883644104,0.3457559049129486
1772785753038311200,1.625311279296875,-0.0030087223276495934,-0.6463285684585571,0.3486173450946808
1772785753048327200,1.6353271484375,0.208017498254776,-0.6019278168678284,0.3619115948677063
1772785753058342100,1.645342041015625,0.47843948006629944,-0.5120717287063599,0.3839969336986542
1772785753068358100,1.655358154296875,0.745184600353241,-0.4673977196216583,0.4650838077068329
1772785753078374100,1.6653740234375,0.9634905457496643,-0.5155599117279053,0.6140632033348083
1772785753088390100,1.67539013671875,0.9809371829032898,-0.6197262406349182,0.7277392148971558
1772785753098406400,1.685406494140625,0.8618507981300354,-1.0429099798202515,0.6129264235496521
1772785753108421000,1.695421142578125,0.7102458477020264,-1.6892919540405273,0.22858119010925293
1772785753118437400,1.705437255859375,0.5474773049354553,-2.2462260723114014,-0.3112151324748993
1772785753128452900,1.715452880859375,0.5246912837028503,-2.2470932006835938,-0.7689406275749207
1772785753138468900,1.72546875,0.7767713069915771,-1.4408633708953857,-1.0180342197418213
1772785753148483800,1.73548388671875,1.1752837896347046,0.39394739270210266,-1.194233775138855
1772785753158499800,1.745499755859375,0.4419034421443939,2.1625638008117676,-1.805964469909668
1772785753168515800,1.755515869140625,-0.12476398050785065,2.5791873931884766,-2.128056287765503
1772785753178531800,1.76553173828125,-0.08373717963695526,2.0017921924591064,-1.998442530632019
1772785753188547800,1.7755478515625,-0.10929952561855316,1.2456036806106567,-1.8001682758331299
1772785753198562800,1.785562744140625,0.11992310732603073,1.0525784492492676,-1.5509623289108276
1772785753208578800,1.795578857421875,0.31176576018333435,0.8258205652236938,-1.0703870058059692
1772785753218594800,1.8055947265625,0.15803934633731842,0.3760192394256592,-0.36587855219841003
1772785753228610800,1.81561083984375,-0.15809118747711182,0.13605140149593353,0.25163739919662476
1772785753238626800,1.825626708984375,-0.717192530632019,0.17802606523036957,0.6072141528129578
1772785753248641800,1.835641845703125,-1.325177788734436,0.30874332785606384,0.8428274989128113
1772785753258658000,1.845657958984375,-1.8561949729919434,0.4268946051597595,1.0548577308654785
1772785753268673800,1.855673828125,-2.2807042598724365,0.551108717918396,1.2122228145599365
1772785753278689800,1.865689697265625,-2.5513064861297607,0.8683218955993652,0.967915415763855
1772785753288705800,1.875705810546875,-2.483454704284668,1.3444794416427612,0.2603388726711273
1772785753298720800,1.885720703125,-2.075126886367798,1.7151747941970825,-0.3667704463005066
1772785753308736800,1.89573681640625,-1.49740469455719,1.6954355239868164,-0.44408705830574036
1772785753318752800,1.905752685546875,-0.8317041993141174,1.3579213619232178,-0.006424945779144764
1772785753328768800,1.915768798828125,-0.13991455733776093,1.1643927097320557,0.6697460412979126
1772785753338785000,1.925784912109375,0.49558812379837036,1.119598388671875,1.2958531379699707
1772785753348800000,1.935800048828125,1.1104052066802979,0.9788210988044739,1.6470311880111694
1772785753358816000,1.94581591796875,1.6416267156600952,0.8240175843238831,1.5549602508544922
1772785753368832000,1.95583203125,1.9241292476654053,0.9321997165679932,1.0791620016098022
1772785753378847700,1.96584765625,1.955011248588562,1.2194879055023193,0.37145182490348816
1772785753388863700,1.97586376953125,1.8917372226715088,1.3520430326461792,-0.4225451350212097
1772785753398878700,1.985878662109375,1.7320743799209595,1.2410749197006226,-1.0451369285583496
1772785753408894700,1.995894775390625,1.5635451078414917,0.791182279586792,-1.4186426401138306
1772785753418910700,2.00591064453125,1.3718795776367188,0.21165180206298828,-1.4209250211715698
1772785753428927000,2.015927001953125,1.169894814491272,-0.4815767705440521,-1.1434879302978516
1772785753438943000,2.02594287109375,1.0169718265533447,-1.1635593175888062,-0.7588880658149719
1772785753448958000,2.0359580078125,0.9051851630210876,-1.6582045555114746,-0.3424234688282013
1772785753458974000,2.045973876953125,0.8071030974388123,-1.982198715209961,-0.0037870167288929224
1772785753468990000,2.055989990234375,0.677486777305603,-2.1412692070007324,0.21254608035087585
1772785753479005700,2.066005615234375,0.5221590995788574,-2.0757901668548584,0.3310695290565491
1772785753489021000,2.07602099609375,0.41742631793022156,-1.9214973449707031,0.3799087107181549
1772785753499036700,2.08603662109375,0.3620217740535736,-1.7462314367294312,0.3441582918167114
1772785753509052700,2.096052734375,0.33849993348121643,-1.5347248315811157,0.20444245636463165
1772785753519068700,2.106068603515625,0.3540245592594147,-1.3299682140350342,0.02265987917780876
1772785753529085000,2.1160849609375,0.4114963710308075,-1.1465883255004883,-0.13543708622455597
1772785753539100000,2.126099853515625,0.48942023515701294,-0.9764645099639893,-0.23004703223705292
1772785753549116000,2.136115966796875,0.5628438591957092,-0.8819718360900879,-0.23387718200683594
1772785753559132000,2.1461318359375,0.6532004475593567,-0.8609842658042908,-0.14320345222949982
1772785753569148000,2.15614794921875,0.7663152813911438,-0.8193457722663879,-0.03139489144086838
1772785753579164000,2.166163818359375,0.8614072203636169,-0.7247345447540283,0.03439434617757797
1772785753589179000,2.176178955078125,0.9098948836326599,-0.5601106882095337,0.07871999591588974
1772785753599195000,2.18619482421875,0.9134964346885681,-0.41828426718711853,0.1263538897037506
1772785753609210600,2.196210693359375,0.8805316090583801,-0.29772427678108215,0.21474234759807587
1772785753619227000,2.206226806640625,0.8298382759094238,-0.2141539603471756,0.3463306427001953
1772785753629243000,2.216242919921875,0.7494997382164001,-0.17220917344093323,0.46700727939605713
1772785753639257900,2.2262578125,0.6398080587387085,-0.17973440885543823,0.511859655380249
1772785753649273900,2.23627392578125,0.5785718560218811,-0.22798822820186615,0.4483634829521179
1772785753659289900,2.246289794921875,0.6500685811042786,-0.345714807510376,0.2985062301158905
1772785753669305900,2.256305908203125,0.7375893592834473,-0.6810736060142517,0.11193367838859558
1772785753679321900,2.26632177734375,0.84324049949646,-1.125778317451477,-0.05299486964941025
1772785753689336800,2.2763369140625,0.8576841950416565,-1.7341850996017456,-0.22959201037883759
1772785753699352800,2.286352783203125,0.7052727937698364,-2.338257074356079,-0.5126646161079407
1772785753709368800,2.296368896484375,0.46844032406806946,-2.7610225677490234,-0.8341915011405945
1772785753719384800,2.306384765625,0.17771586775779724,-2.3371846675872803,-1.0320767164230347
1772785753729400800,2.31640087890625,-0.2573285400867462,-0.9068734645843506,-1.1654808521270752
1772785753739415800,2.326415771484375,-0.7777747511863708,1.1586050987243652,-1.7706331014633179
1772785753749431800,2.336431884765625,-1.1729719638824463,2.4409496784210205,-2.7725024223327637
1772785753759447800,2.34644775390625,-0.8084017634391785,2.5684361457824707,-2.5493335723876953
1772785753769463800,2.3564638671875,-0.6692545413970947,2.2287449836730957,-1.4132258892059326
1772785753779478800,2.366478759765625,-0.5331966876983643,1.6395562887191772,-0.14967283606529236
1772785753789494800,2.376494873046875,-0.1670980304479599,1.0734801292419434,0.542668342590332
1772785753799510800,2.3865107421875,-0.11759909987449646,0.5772898197174072,0.28677091002464294
1772785753809527000,2.396527099609375,-0.33697405457496643,-0.39370080828666687,-0.2740958631038666
1772785753819542800,2.406542724609375,-0.6173178553581238,-1.2068700790405273,-0.7786028981208801
1772785753829558800,2.416558837890625,-0.8977953195571899,-1.4147011041641235,-1.0879820585250854
1772785753839573800,2.42657373046875,-1.1267956495285034,-0.914839506149292,-1.174274206161499
1772785753849589800,2.43658984375,-1.2906533479690552,-0.11648795008659363,-1.2389689683914185
1772785753859605800,2.446605712890625,-1.3708515167236328,0.7411679625511169,-1.407606840133667
1772785753869621800,2.456621826171875,-1.5085804462432861,1.4874387979507446,-1.4805395603179932
1772785753879636700,2.46663671875,-1.672555685043335,1.8838320970535278,-1.0527288913726807
1772785753889652700,2.47665283203125,-1.651084542274475,1.8517553806304932,-0.24277061223983765
1772785753899669000,2.4866689453125,-1.2336171865463257,1.5185612440109253,0.6244970560073853
1772785753909685000,2.49668505859375,-0.5369028449058533,1.0649200677871704,1.4050477743148804
1772785753919700700,2.50670068359375,0.1274876743555069,0.602914035320282,1.997611403465271
1772785753929716000,2.516716064453125,0.6081797480583191,0.2907651960849762,2.3871772289276123
1772785753939731700,2.526731689453125,0.9361062049865723,0.17549756169319153,2.5626375675201416
1772785753949747700,2.536747802734375,1.0956833362579346,0.1511770337820053,2.488927125930786
1772785753959763700,2.546763671875,1.156664490699768,0.21946309506893158,2.1549487113952637
1772785753969779700,2.55677978515625,1.084253191947937,0.2984737455844879,1.529093623161316
1772785753979794700,2.566794677734375,0.8227882385253906,0.38019034266471863,0.6958200931549072
1772785753989811000,2.57681103515625,0.5204262137413025,0.4099133610725403,-0.06069471687078476
1772785753999827000,2.586826904296875,0.24163386225700378,0.40525269508361816,-0.46802496910095215
1772785754009843000,2.596843017578125,0.015217499807476997,0.4050832986831665,-0.5688450336456299
1772785754019859000,2.60685888671875,-0.13489899039268494,0.5293440818786621,-0.5697344541549683
1772785754029874000,2.6168740234375,-0.19423314929008484,0.5785518288612366,-0.6592840552330017
1772785754039890000,2.626889892578125,-0.11710511893033981,0.5036778450012207,-0.834974467754364
1772785754049905700,2.63690576171875,0.04664945974946022,0.3937528729438782,-0.9764538407325745
1772785754059921700,2.646921630859375,0.1544894427061081,0.2843731641769409,-0.993323028087616
1772785754069938000,2.65693798828125,0.1488794982433319,0.1817844659090042,-0.9029569029808044
1772785754079952600,2.66695263671875,0.0876607894897461,0.11021313071250916,-0.7183066606521606
1772785754089969000,2.676968994140625,-0.011184033006429672,0.11688248813152313,-0.4495529234409332
1772785754099985000,2.68698486328125,-0.16975879669189453,0.18937495350837708,-0.11039503663778305
1772785754110001000,2.6970009765625,-0.3635666072368622,0.2649645209312439,0.14743570983409882
1772785754120015600,2.707015625,-0.532974898815155,0.2545304298400879,0.24859975278377533
1772785754130031600,2.717031494140625,-0.5991421937942505,0.17232635617256165,0.24843063950538635
1772785754140048000,2.7270478515625,-0.5405071377754211,0.05269487574696541,0.2185933142900467
1772785754150063900,2.73706396484375,-0.40079954266548157,-0.04545805603265762,0.2179674655199051
1772785754160079600,2.74707958984375,-0.25148504972457886,-0.08815208822488785,0.28584766387939453
1772785754170094800,2.7570947265625,-0.16264282166957855,-0.06497299671173096,0.4286452829837799
1772785754180110600,2.767110595703125,-0.13592688739299774,0.009178913198411465,0.6064643263816833
1772785754190126600,2.777126708984375,-0.10675914585590363,0.06697936356067657,0.7463948130607605
1772785754200142600,2.787142578125,0.025252308696508408,0.08237604051828384,0.7568820118904114
1772785754210158600,2.79715869140625,0.26821649074554443,0.06901948899030685,0.5576581358909607
1772785754220173600,2.807173583984375,0.556248128414154,-0.00974492821842432,0.2414710968732834
1772785754230189800,2.81718994140625,0.7909743189811707,-0.09650512039661407,-0.004492603708058596
1772785754240205800,2.827205810546875,0.9100573658943176,-0.14671945571899414,-0.11467757821083069
1772785754250221800,2.837221923828125,0.9636511206626892,-0.2161794900894165,-0.12276399880647659
1772785754260237600,2.847237548828125,0.9794068932533264,-0.30773302912712097,-0.02859879657626152
1772785754270252800,2.857252685546875,0.8701057434082031,-0.575464129447937,0.10412463545799255
1772785754280268500,2.8672685546875,0.6379522681236267,-1.0487042665481567,0.13544034957885742
1772785754290284500,2.877284423828125,0.4113529920578003,-1.4563261270523071,0.02502782642841339
1772785754300300500,2.887300537109375,0.3773537576198578,-1.774204969406128,-0.22590932250022888
1772785754310316800,2.89731689453125,0.46727192401885986,-1.861664056777954,-0.4535752236843109
1772785754320331800,2.907331787109375,0.4391072988510132,-1.8112531900405884,-0.5692968964576721
1772785754330347800,2.91734765625,0.29126909375190735,-1.4034364223480225,-0.7819069027900696
1772785754340363800,2.92736376953125,-0.7330301403999329,0.9149860739707947,-1.8480027914047241
1772785754350379800,2.9373798828125,-1.1613661050796509,2.23388934135437,-3.0558993816375732
1772785754360395800,2.947395751953125,-0.8619921207427979,2.5630550384521484,-2.9807567596435547
1772785754370410800,2.95741064453125,-0.7297435402870178,2.6686248779296875,-1.9352349042892456
1772785754380426800,2.9674267578125,-0.8092257380485535,2.486447811126709,-0.3105832040309906
1772785754390442500,2.9774423828125,-0.9217168688774109,2.0181872844696045,1.0557425022125244
1772785754400458800,2.987458740234375,-1.112424373626709,1.1027151346206665,1.287345051765442
1772785754410474800,2.997474853515625,-1.1086283922195435,0.0483388714492321,0.8327340483665466
1772785754420489700,3.00748974609375,-1.0814807415008545,-0.3211710751056671,0.004908470436930656
1772785754430505700,3.017505615234375,-1.1238154172897339,-0.03957507014274597,-0.6415197849273682
1772785754440521700,3.027521728515625,-1.1682170629501343,0.5378448963165283,-0.9036650061607361
1772785754450537700,3.037537841796875,-1.2115206718444824,1.114817500114441,-0.8854758739471436
1772785754460553700,3.0475537109375,-1.2550469636917114,1.5465666055679321,-0.8222807049751282
1772785754470568700,3.057568603515625,-1.10234534740448,1.7183809280395508,-0.6882568001747131
1772785754480584700,3.067584716796875,-0.6891665458679199,1.6231176853179932,-0.41722938418388367
1772785754490600700,3.0776005859375,-0.18082506954669952,1.2473852634429932,-0.05068812891840935
1772785754500616700,3.08761669921875,0.2984446585178375,0.7837148308753967,0.3610914647579193
1772785754510631700,3.097631591796875,0.6354753971099854,0.4502308964729309,0.8304333686828613
1772785754520647700,3.107647705078125,0.8169140219688416,0.46699488162994385,1.3326549530029297
1772785754530663700,3.11766357421875,0.9164690971374512,0.802836000919342,1.748282551765442
1772785754540679700,3.1276796875,1.0260988473892212,1.1597791910171509,1.9579017162322998
1772785754550695700,3.13769580078125,1.186142086982727,1.3261550664901733,1.9292995929718018
1772785754560710700,3.147710693359375,1.4098091125488281,1.0988006591796875,1.73882257938385
1772785754570726700,3.1577265625,1.5628763437271118,0.6794741749763489,1.5273406505584717
1772785754580742700,3.16774267578125,1.5831891298294067,0.27085086703300476,1.3220332860946655
1772785754590759000,3.177759033203125,1.5264521837234497,0.13429278135299683,1.0762717723846436
1772785754600774700,3.187774658203125,1.4424757957458496,0.23666900396347046,0.7710182070732117
1772785754610790000,3.197789794921875,1.4252315759658813,0.12830550968647003,0.36884328722953796
1772785754620805600,3.2078056640625,1.500001072883606,-0.1800069361925125,-0.13552838563919067
1772785754630821600,3.217821533203125,1.5939956903457642,-0.4761083722114563,-0.5946887731552124
1772785754640837600,3.227837646484375,1.648189902305603,-0.6768683791160583,-0.8358209729194641
1772785754650853600,3.237853515625,1.5917022228240967,-0.8402320146560669,-0.8327841758728027
1772785754660868600,3.24786865234375,1.391466736793518,-1.0516389608383179,-0.6023262143135071
1772785754670884600,3.257884521484375,1.0937482118606567,-1.35567045211792,-0.1789262294769287
1772785754680900900,3.26790087890625,0.8111845254898071,-1.6295382976531982,0.2442234605550766
1772785754690916900,3.277916748046875,0.5645228028297424,-1.752478837966919,0.5250972509384155
1772785754700932900,3.287932861328125,0.3311214745044708,-1.6647545099258423,0.5744054317474365
1772785754710947800,3.29794775390625,0.12468521296977997,-1.4494096040725708,0.4273747205734253
1772785754720963800,3.3079638671875,-0.0009474412072449923,-1.1836421489715576,0.16987432539463043
1772785754730979600,3.3179794921875,0.0087046530097723,-0.9258283972740173,-0.06776165217161179
1772785754740995600,3.32799560546875,0.10082860291004181,-0.6884065270423889,-0.1386391520500183
1772785754751011600,3.338011474609375,0.20162339508533478,-0.5188878178596497,-0.04014667496085167
1772785754761026600,3.348026611328125,0.25307005643844604,-0.4189910590648651,0.13254450261592865
1772785754771042600,3.35804248046875,0.254716694355011,-0.31193438172340393,0.2525492012500763
1772785754781058800,3.368058837890625,0.26389575004577637,-0.144493967294693,0.2095218151807785
1772785754791074800,3.37807470703125,0.3160659968852997,-0.03800800442695618,0.00349621195346117
1772785754801090800,3.3880908203125,0.46288737654685974,-0.05073092505335808,-0.269834041595459
1772785754811105800,3.398105712890625,0.6814625859260559,-0.15926219522953033,-0.5075477957725525
1772785754821121800,3.408121826171875,0.8957033753395081,-0.32301902770996094,-0.604901909828186
1772785754831137500,3.418137451171875,1.0734577178955078,-0.4606003165245056,-0.5243833661079407
1772785754841153500,3.428153564453125,1.1865653991699219,-0.5682581067085266,-0.328101247549057
1772785754851168500,3.43816845703125,1.2924453020095825,-0.6462786197662354,-0.15074007213115692
1772785754861184500,3.4481845703125,1.447869896888733,-0.6716568470001221,-0.05142609030008316
1772785754871200800,3.45820068359375,1.5829675197601318,-0.8183842301368713,-0.03401460871100426
1772785754881216800,3.468216796875,1.7371057271957397,-1.2355334758758545,-0.12264428287744522
1772785754891232800,3.478232666015625,1.9269124269485474,-1.775496006011963,-0.32571110129356384
1772785754901247700,3.488247802734375,2.0691232681274414,-2.2485713958740234,-0.6340788006782532
1772785754911263700,3.498263671875,2.106022834777832,-1.8745530843734741,-1.028541922569275
1772785754921279700,3.50827978515625,1.6002854108810425,-0.5681201815605164,-1.3815189599990845
1772785754931295700,3.518295654296875,0.9209463000297546,0.8217236399650574,-1.2747102975845337
1772785754941311500,3.5283115234375,0.26753729581832886,2.144292116165161,-1.1644541025161743
1772785754951326700,3.53832666015625,-0.6991518139839172,2.5535998344421387,-1.0613266229629517
1772785754961342700,3.5483427734375,-1.514709711074829,2.384737491607666,-0.7664600610733032
1772785754971358700,3.558358642578125,-1.8941755294799805,2.017850399017334,-0.5917252898216248
1772785754981374700,3.568374755859375,-1.6686745882034302,1.7700152397155762,-0.6813756227493286
1772785754991390700,3.578390625,-1.1662604808807373,1.591988444328308,-0.7146111130714417
1772785755001405700,3.58840576171875,-0.8722944855690002,1.0874217748641968,-0.5037039518356323
1772785755011421700,3.598421630859375,-0.580917239189148,0.2887362241744995,-0.2841343283653259
1772785755021437700,3.608437744140625,-0.42662960290908813,-0.8202189803123474,-0.18927249312400818
1772785755031453700,3.61845361328125,-0.5515438318252563,-1.811102032661438,-0.22592292726039886
1772785755041469700,3.6284697265625,-0.849873423576355,-2.233158826828003,-0.4345884919166565
1772785755051484700,3.638484619140625,-1.2214661836624146,-2.0403103828430176,-0.5965076088905334
1772785755061500700,3.648500732421875,-1.6715604066848755,-1.3820115327835083,-0.5988991260528564
1772785755071516700,3.6585166015625,-2.0846807956695557,-0.3503250479698181,-0.548881471157074
1772785755081532700,3.66853271484375,-2.3250393867492676,0.5428042411804199,-0.4268629252910614
1772785755091548700,3.678548583984375,-2.323598861694336,1.0752007961273193,-0.1941322237253189
1772785755101563600,3.688563720703125,-2.127309799194336,1.2491309642791748,0.07487916946411133
1772785755111579600,3.69857958984375,-1.747798204421997,1.0757466554641724,0.41539308428764343
1772785755121596000,3.708595947265625,-1.2656209468841553,0.7865474224090576,0.9173197746276855
1772785755131612200,3.718612060546875,-0.8776144981384277,0.5603776574134827,1.5297315120697021
1772785755141628000,3.7286279296875,-0.6079497933387756,0.5095260143280029,2.0620076656341553
1772785755151643100,3.73864306640625,-0.36994466185569763,0.636771559715271,2.3315091133117676
1772785755161659000,3.748658935546875,-0.1016082689166069,0.8334012031555176,2.290400981903076
1772785755171675000,3.7586748046875,0.11779466271400452,1.1455708742141724,2.0535905361175537
1772785755181691000,3.76869091796875,0.2237727791070938,1.4807018041610718,1.8040093183517456
1772785755191707000,3.778706787109375,0.20919303596019745,1.7475918531417847,1.699387550354004
1772785755201721900,3.788721923828125,0.21495522558689117,1.8207972049713135,1.6747140884399414
1772785755211737900,3.79873779296875,0.36185064911842346,1.5618442296981812,1.5660547018051147
1772785755221753900,3.80875390625,0.5658088326454163,1.0885796546936035,1.3094621896743774
1772785755231770000,3.81877001953125,0.7479338645935059,0.609469473361969,0.8886025547981262
1772785755241786000,3.8287861328125,0.8063378930091858,0.22395281493663788,0.3824697732925415
1772785755251801000,3.838801025390625,0.6994519233703613,0.030227821320295334,-0.07244714349508286
1772785755261817000,3.848817138671875,0.4408259391784668,0.07787169516086578,-0.5049183368682861
1772785755271832800,3.858832763671875,0.12630845606327057,0.20597559213638306,-0.8724960684776306
1772785755281848800,3.868848876953125,-0.1383485347032547,0.2597166895866394,-1.0329192876815796
1772785755291864800,3.87886474609375,-0.26475760340690613,0.18993176519870758,-0.9517184495925903
1772785755301879800,3.8888798828125,-0.2732718884944916,0.035065144300460815,-0.6826797127723694
1772785755311895800,3.898895751953125,-0.23559270799160004,-0.15710455179214478,-0.31468623876571655
1772785755321912000,3.908912109375,-0.2503397762775421,-0.43740910291671753,0.07742142677307129
1772785755331928000,3.918927978515625,-0.3377598822116852,-0.7827332019805908,0.44172561168670654
1772785755341943000,3.928943115234375,-0.4323733150959015,-0.9481943249702454,0.600069522857666
1772785755351959000,3.938958984375,-0.5213084816932678,-0.9419228434562683,0.6174631714820862
1772785755361975000,3.94897509765625,-0.5649959444999695,-0.8618336915969849,0.5232246518135071
1772785755371991000,3.958990966796875,-0.5767274498939514,-0.7330858111381531,0.36646032333374023
1772785755382006800,3.9690068359375,-0.609528124332428,-0.5504132509231567,0.20850619673728943
1772785755392022000,3.97902197265625,-0.6712833642959595,-0.37663182616233826,0.08105209469795227
1772785755402037800,3.989037841796875,-0.7266082763671875,-0.22120283544063568,0.008962125517427921
1772785755412054000,3.999053955078125,-0.7376710176467896,-0.14717841148376465,-0.002172018401324749
1772785755422070000,4.009070068359375,-0.683154821395874,-0.13297156989574432,0.060432691127061844
1772785755432086000,4.0190859375,-0.5623301267623901,-0.13736125826835632,0.18625959753990173
1772785755442101000,4.02910107421875,-0.3771248459815979,-0.05345525965094566,0.3549327850341797
1772785755452117000,4.039116943359375,-0.19469298422336578,0.1446905881166458,0.5308178067207336
1772785755462133000,4.049133056640625,-0.04696686565876007,0.4129115045070648,0.6787471771240234
1772785755472149000,4.05914892578125,0.05385056138038635,0.7152982950210571,0.7522386908531189
1772785755482164700,4.069164794921875,0.10063262283802032,0.90193772315979,0.6855159401893616
1772785755492180000,4.079179931640625,0.08979062736034393,0.8678383827209473,0.4343947172164917
1772785755502195700,4.08919580078125,0.009636246599256992,0.5445392727851868,0.041840922087430954
1772785755512212000,4.0992119140625,-0.06337591260671616,-0.04010770097374916,-0.36804434657096863
1772785755522228000,4.10922802734375,-0.08599990606307983,-0.4408043324947357,-0.7128761410713196
1772785755532244000,4.119243896484375,-0.03747311607003212,-0.8722870349884033,-1.1177784204483032
1772785755542259000,4.129259033203125,0.15593141317367554,-1.2448921203613281,-1.6922352313995361
1772785755552275000,4.13927490234375,0.39878585934638977,-1.1650683879852295,-2.275709390640259
1772785755562291000,4.149291015625,0.5257116556167603,-0.32417741417884827,-2.635477304458618
1772785755572307000,4.159306884765625,-0.32934409379959106,0.5106801390647888,-2.5391733646392822
1772785755582323000,4.169322998046875,-0.9558963775634766,0.8313674330711365,-1.5104488134384155
1772785755592338000,4.179337890625,-1.1367164850234985,0.9744812250137329,-0.42800331115722656
1772785755602354200,4.189354248046875,-1.181769847869873,1.1572582721710205,-0.018218878656625748
1772785755612370000,4.199369873046875,-0.9539569616317749,1.3449122905731201,0.10877875238656998
1772785755622386000,4.209385986328125,-0.9349811673164368,0.7393442988395691,0.2570718228816986
1772785755632402000,4.21940185546875,-0.9829620122909546,0.1661367118358612,0.3166049122810364
1772785755642417000,4.2294169921875,-0.9514747262001038,-0.02988193742930889,0.10010606050491333
1772785755652433000,4.239432861328125,-0.9574460387229919,0.05685322731733322,-0.2618984580039978
1772785755662449000,4.249448974609375,-1.1795624494552612,0.37643542885780334,-0.5409092307090759
1772785755672465000,4.25946484375,-1.530521035194397,0.7859753370285034,-0.7992643117904663
1772785755682481200,4.269481201171875,-1.8347617387771606,1.1647109985351562,-0.8877606391906738
1772785755692496100,4.27949609375,-2.106996774673462,1.3106213808059692,-0.7552459836006165
1772785755702512000,4.28951220703125,-2.224675178527832,1.1787433624267578,-0.3026927709579468
1772785755712528000,4.29952783203125,-2.160853624343872,0.9208604097366333,0.42164042592048645
1772785755722543900,4.3095439453125,-2.0660407543182373,0.712308406829834,1.1878072023391724
1772785755732560000,4.319559814453125,-1.9246959686279297,0.5116077661514282,1.8107869625091553
1772785755742574800,4.329574951171875,-1.6073123216629028,0.25609666109085083,2.190263032913208
1772785755752590800,4.3395908203125,-1.1318671703338623,0.09457620978355408,2.3150720596313477
1772785755762606800,4.34960693359375,-0.6633867621421814,0.19829747080802917,2.3157734870910645
1772785755772623000,4.359623046875,-0.391366183757782,0.6186777353286743,2.250339984893799
1772785755782639000,4.36963916015625,-0.3119150996208191,1.1435842514038086,2.088433265686035
1772785755792654000,4.379654052734375,-0.27851399779319763,1.5467567443847656,1.7540165185928345
1772785755802670000,4.389670166015625,-0.21868480741977692,1.6792490482330322,1.2944180965423584
1772785755812686000,4.39968603515625,-0.16705331206321716,1.355068325996399,0.9133104085922241
1772785755822701800,4.409701904296875,-0.05775615572929382,0.6708898544311523,0.8155092000961304
1772785755832717000,4.419717041015625,0.10123509168624878,0.05871992185711861,0.9053069949150085
1772785755842732800,4.42973291015625,0.341844379901886,-0.15342696011066437,0.9201321601867676
1772785755852748800,4.439748779296875,0.5896720290184021,-0.028617925941944122,0.6285892128944397
1772785755862764800,4.449764892578125,0.7550709247589111,0.08544239401817322,-0.0794382244348526
1772785755872781000,4.459781005859375,0.9401296973228455,0.042229410260915756,-0.9999670386314392
1772785755882796000,4.469796142578125,1.1961877346038818,-0.15016986429691315,-1.7770663499832153
1772785755892812000,4.47981201171875,1.4383082389831543,-0.4163144826889038,-2.1815478801727295
1772785755902828000,4.489828125,1.4921292066574097,-0.6385216116905212,-2.100862979888916
1772785755912844000,4.499843994140625,1.335282325744629,-0.7757253050804138,-1.5329035520553589
1772785755922860000,4.509860107421875,1.0913431644439697,-0.8435086607933044,-0.6357703804969788
1772785755932875000,4.519875,0.9139302968978882,-0.9929388761520386,0.15919439494609833
1772785755942891000,4.52989111328125,0.8056141138076782,-0.9997792840003967,0.7241045236587524
1772785755952906800,4.53990673828125,0.7340120673179626,-0.9304835796356201,1.0524418354034424
1772785755962923000,4.549923095703125,0.727011501789093,-0.8725447654724121,1.1646772623062134
1772785755972939000,4.55993896484375,0.7857600450515747,-0.8977574110031128,1.149600863456726
1772785755982954000,4.5699541015625,0.8716016411781311,-0.9075937271118164,1.0698038339614868
1772785755992970000,4.579969970703125,0.9124284386634827,-0.8502023220062256,0.9354548454284668
1772785756002986000,4.589986083984375,0.8932860493659973,-0.7477750778198242,0.7495072484016418
1772785756013002000,4.600001953125,0.8499082326889038,-0.7047942876815796,0.5038372874259949
1772785756023018000,4.61001806640625,0.7978073954582214,-0.6890098452568054,0.21740414202213287
1772785756033033000,4.620032958984375,0.7733798027038574,-0.6574044823646545,-0.10860084742307663
1772785756043049000,4.630049072265625,0.762071430683136,-0.5741978883743286,-0.4261937141418457
1772785756053065000,4.64006494140625,0.7401021718978882,-0.4698413908481598,-0.6799818277359009
1772785756063081000,4.6500810546875,0.7218815088272095,-0.33511728048324585,-0.8120756149291992
1772785756073097000,4.660096923828125,0.7051781415939331,-0.18776749074459076,-0.8119091987609863
1772785756083112000,4.67011181640625,0.6878001093864441,-0.04765845835208893,-0.7242584824562073
1772785756093128000,4.6801279296875,0.6515611410140991,0.04729655385017395,-0.6203003525733948
1772785756103144000,4.69014404296875,0.5918912887573242,0.0038168432656675577,-0.5806500911712646
1772785756113160000,4.700159912109375,0.5554163455963135,-0.1467931717634201,-0.6367014050483704
1772785756123176200,4.71017626953125,0.47109127044677734,-0.33854973316192627,-0.8088597059249878
1772785756133191200,4.720191162109375,0.2841844856739044,-0.635650634765625,-1.1231406927108765
1772785756143207200,4.730207275390625,-0.009178120642900467,-1.0725263357162476,-1.5778007507324219
1772785756153223000,4.740222900390625,-0.27042168378829956,-1.477763056755066,-2.0254690647125244
1772785756163239000,4.750239013671875,-0.22883820533752441,-1.2906204462051392,-2.3955039978027344
1772785756173255000,4.7602548828125,0.23489990830421448,0.9945602416992188,-3.303635358810425
1772785756183270000,4.770269775390625,-0.8808842897415161,4.026980400085449,-4.999093532562256
1772785756193286000,4.780285888671875,-1.4170862436294556,4.188340663909912,-5.147331714630127
1772785756203302100,4.79030224609375,-1.7394756078720093,3.840606451034546,-3.854018449783325
1772785756213318100,4.800318115234375,-2.4859683513641357,4.067309856414795,-2.421015501022339
1772785756223334100,4.810334228515625,-2.7509419918060303,2.936270236968994,-1.2726980447769165
1772785756233349000,4.82034912109375,-2.002610445022583,2.5901124477386475,-0.2370772510766983
1772785756243365000,4.830365234375,-1.1307284832000732,2.5603315830230713,0.6977262496948242
1772785756253381000,4.840381103515625,-0.7836552858352661,1.9138766527175903,1.4278923273086548
1772785756263396900,4.85039697265625,-0.49320361018180847,1.1182821989059448,1.6599253416061401
1772785756273412000,4.860412109375,-0.30865320563316345,0.42469120025634766,1.5292741060256958
1772785756283427800,4.870427734375,-0.2201767861843109,-0.09356823563575745,1.2102705240249634
1772785756293443800,4.88044384765625,-0.18071593344211578,-0.36854442954063416,0.8089447617530823
1772785756303460000,4.890460205078125,-0.23098094761371613,-0.4910118281841278,0.40937498211860657
1772785756313476000,4.90047607421875,-0.39119911193847656,-0.5518967509269714,0.13394899666309357
1772785756323492000,4.9104921875,-0.5558397769927979,-0.5505896806716919,0.10620974749326706
1772785756333507000,4.920507080078125,-0.6628338694572449,-0.7080006003379822,0.38285118341445923
1772785756343523000,4.930523193359375,-0.6086323857307434,-0.8850296139717102,0.8621422052383423
1772785756353539000,4.9405390625,-0.3933427035808563,-0.837756872177124,1.3065158128738403
1772785756363555000,4.95055517578125,-0.11412050575017929,-0.5618385672569275,1.6017922163009644
1772785756373570000,4.960570068359375,0.17877927422523499,-0.23613500595092773,1.7223678827285767
1772785756383586000,4.9705859375,0.4455445110797882,0.05278711020946503,1.7316583395004272
1772785756393602000,4.98060205078125,0.6583870053291321,0.30255138874053955,1.709183692932129
1772785756403618000,4.9906181640625,0.8089466094970703,0.5118139982223511,1.6614617109298706
1772785756413634000,5.000634033203125,0.9323923587799072,0.6010013818740845,1.580789566040039
1772785756423649000,5.01064892578125,1.0369601249694824,0.5802907347679138,1.46405827999115
1772785756433665000,5.0206650390625,1.1370859146118164,0.5041301846504211,1.298994541168213
1772785756443681000,5.030680908203125,1.2529351711273193,0.3642417788505554,1.10002863407135
1772785756453697000,5.040697021484375,1.3714834451675415,0.1979587823152542,0.9058266878128052
1772785756463713000,5.050713134765625,1.5009130239486694,-0.0041173482313752174,0.7293837070465088
1772785756473728000,5.06072802734375,1.6404458284378052,-0.20173367857933044,0.5901812314987183
1772785756483744300,5.070744140625,1.7362241744995117,-0.31265953183174133,0.4580523371696472
1772785756493760000,5.080760009765625,1.7230011224746704,-0.38874444365501404,0.3282192349433899
1772785756503776000,5.09077587890625,1.6206125020980835,-0.4371006190776825,0.252449095249176
1772785756513792000,5.1007919921875,1.4831353425979614,-0.49777302145957947,0.2203761339187622
1772785756523807000,5.110806884765625,1.302115797996521,-0.6700245141983032,0.1784801334142685
1772785756533823000,5.120822998046875,1.0606904029846191,-0.9477304220199585,0.07374360412359238
1772785756543839000,5.1308388671875,0.813352644443512,-1.16307532787323,-0.12304080277681351
1772785756553855000,5.14085498046875,0.6383268237113953,-1.2161086797714233,-0.3878735303878784
1772785756563871200,5.150871337890625,0.5711449384689331,-1.1043504476547241,-0.6846585869789124
1772785756573886000,5.160885986328125,0.5543537139892578,-0.9852692484855652,-0.9883697032928467
1772785756583902200,5.170902099609375,0.46592041850090027,-1.0550018548965454,-1.0719984769821167
1772785756593918200,5.180918212890625,0.3047312796115875,-1.2428349256515503,-0.9075059294700623
1772785756603934000,5.190933837890625,0.16111020743846893,-1.3275115489959717,-0.6493812799453735
1772785756613950000,5.200949951171875,-0.026476465165615082,-1.374326467514038,-0.4751218557357788
1772785756623965000,5.21096484375,-0.19395531713962555,-1.447627067565918,-0.4485616087913513
1772785756633981000,5.22098095703125,-0.33182501792907715,-1.4726160764694214,-0.5227476358413696
1772785756643997000,5.230996826171875,-0.44291940331459045,-1.3706510066986084,-0.5905406475067139
1772785756654013000,5.241012939453125,-0.5553022027015686,-1.325387954711914,-0.5258146524429321
1772785756664029200,5.251029296875,-0.6514782905578613,-1.3844213485717773,-0.2651410400867462
1772785756674044200,5.261044189453125,-0.7368102669715881,-1.4263650178909302,-0.03603328391909599
1772785756684060200,5.27106005859375,-0.8091287016868591,-1.3366913795471191,0.08245179057121277
1772785756694076200,5.281076171875,-0.8420107364654541,-1.0058857202529907,0.2285618633031845
1772785756704092000,5.291091796875,-0.8341150283813477,-0.5051432251930237,0.4156126379966736
1772785756714108000,5.30110791015625,-0.7960254549980164,-0.14384391903877258,0.4902013838291168
1772785756724123000,5.311122802734375,-0.7496544718742371,-0.065487802028656,0.38477569818496704
1772785756734139000,5.321138916015625,-0.6767531037330627,-0.04888645187020302,0.17450740933418274
1772785756744155000,5.33115478515625,-0.5351513624191284,0.03266929090023041,0.02401178888976574
1772785756754171100,5.341171142578125,-0.4125343859195709,0.0694933533668518,0.08040795475244522
1772785756764187100,5.351187255859375,-0.3443807363510132,0.14787447452545166,0.33253026008605957
1772785756774202000,5.3612021484375,-0.30837374925613403,0.24200603365898132,0.6482458710670471
1772785756784218000,5.371218017578125,-0.2474091649055481,0.19335311651229858,0.907832145690918
1772785756794234000,5.381234130859375,-0.15220248699188232,0.08080713450908661,1.075971245765686
1772785756804250000,5.39125,-0.0593876838684082,0.0012562137562781572,1.1704939603805542
1772785756814265000,5.40126513671875,0.003530026413500309,-0.08579346537590027,1.246664047241211
1772785756824281000,5.411281005859375,0.03776923939585686,-0.17090949416160583,1.3225432634353638
1772785756834296800,5.421296875,0.028031393885612488,-0.2816767692565918,1.4455146789550781
1772785756844313000,5.43131298828125,-0.02529207244515419,-0.2775997817516327,1.6427150964736938
1772785756854329000,5.4413291015625,-0.08939489722251892,-0.10027586668729782,1.8512134552001953
1772785756864344000,5.451343994140625,-0.12862159311771393,0.16171284019947052,2.003183364868164
1772785756874360000,5.461360107421875,-0.10791471600532532,0.4431503713130951,2.052642822265625
1772785756884376000,5.4713759765625,-0.05384756997227669,0.6748132705688477,1.993232011795044
1772785756894392000,5.48139208984375,0.0051829940639436245,0.8290625214576721,1.877142071723938
1772785756904408000,5.491407958984375,0.029863648116588593,0.8596102595329285,1.7957656383514404
1772785756914423000,5.501423095703125,-0.021028028801083565,0.7901265025138855,1.7908779382705688
1772785756924439000,5.51143896484375,-0.1392495036125183,0.7443310022354126,1.861595869064331
1772785756934455000,5.521455078125,-0.3002048432826996,0.8534175157546997,1.9146934747695923
1772785756944471000,5.531470947265625,-0.4030269384384155,1.0861374139785767,1.8326679468154907
1772785756954487000,5.541487060546875,-0.39876213669776917,1.3017767667770386,1.5961118936538696
1772785756964502000,5.551501953125,-0.3176831305027008,1.5390454530715942,1.3000903129577637
1772785756974518000,5.56151806640625,-0.18946363031864166,1.658142328262329,0.9824850559234619
1772785756984534000,5.571533935546875,-0.08058281242847443,1.561213731765747,0.7122303247451782
1772785756994550000,5.581550048828125,-0.031887978315353394,1.2876940965652466,0.5299555659294128
1772785757004566000,5.59156591796875,-0.05457939952611923,0.9159923195838928,0.43658140301704407
1772785757014581000,5.6015810546875,-0.14521315693855286,0.6374033093452454,0.4140681326389313
1772785757024597000,5.611596923828125,-0.2771889865398407,0.5182053446769714,0.3878992199897766
1772785757034613200,5.62161328125,-0.3794325292110443,0.42158743739128113,0.27906090021133423
1772785757044629000,5.63162890625,-0.40794041752815247,0.26378053426742554,0.06881388276815414
1772785757054645000,5.64164501953125,-0.385629802942276,-0.011888588778674603,-0.19265341758728027
1772785757064660000,5.651659912109375,-0.3516591191291809,-0.40183690190315247,-0.4195345938205719
1772785757074676000,5.661676025390625,-0.3342289924621582,-0.7929551601409912,-0.5610480904579163
1772785757084692000,5.67169189453125,-0.3601730465888977,-1.1169066429138184,-0.6110211610794067
1772785757094708000,5.6817080078125,-0.4282439947128296,-1.271986722946167,-0.5983303785324097
1772785757104724000,5.691723876953125,-0.5001394748687744,-1.2280216217041016,-0.5983396172523499
1772785757114739000,5.701739013671875,-0.5065483450889587,-1.2868596315383911,-0.6329159736633301
1772785757124755200,5.711755126953125,-0.3916585147380829,-1.4005228281021118,-0.7085592746734619
1772785757134771200,5.721771240234375,-0.221233531832695,-1.8371398448944092,-0.8006998300552368
1772785757144787200,5.731787109375,-0.1206827163696289,-2.123185873031616,-0.7763528227806091
1772785757154803000,5.741802978515625,-0.14242848753929138,-2.2090516090393066,-0.6008648872375488
1772785757164818200,5.751818115234375,-0.21606522798538208,-1.9660507440567017,-0.38229134678840637
1772785757174834000,5.761833984375,-0.2960684597492218,-1.566680669784546,-0.17029811441898346
1772785757184850000,5.771849853515625,-0.2582094669342041,-0.9449121952056885,-0.135850727558136
1772785757194866000,5.781865966796875,-0.07370191812515259,-0.27576744556427,-0.38938578963279724
1772785757204882200,5.791882080078125,-0.06562916934490204,-0.01166217215359211,-0.3088677227497101
1772785757214897000,5.80189697265625,-0.004965284839272499,0.1363736391067505,-0.25941789150238037
1772785757224913200,5.8119130859375,0.12613457441329956,0.03399629145860672,-0.24912621080875397
1772785757234929200,5.82192919921875,0.24071334302425385,-0.21401217579841614,-0.1472824066877365
1772785757244945200,5.831945068359375,0.3340492248535156,-0.35987353324890137,-0.04377712681889534
1772785757254961000,5.8419609375,0.3762371838092804,-0.41488325595855713,0.03530437499284744
1772785757264976100,5.85197607421875,0.30371636152267456,-0.5045843720436096,0.16324672102928162
1772785757274991900,5.861991943359375,0.16835986077785492,-0.6200166940689087,0.29232776165008545
1772785757285008000,5.8720078125,0.08042921125888824,-0.6521189212799072,0.3542482852935791
1772785757295023900,5.88202392578125,0.06390083581209183,-0.5875269174575806,0.3419913649559021
1772785757305038800,5.892038818359375,0.10382188856601715,-0.5145546793937683,0.24226127564907074
1772785757315055000,5.90205517578125,0.16211740672588348,-0.4832002520561218,0.09843780100345612
1772785757325071000,5.912071044921875,0.23171211779117584,-0.44884681701660156,-0.055138811469078064
1772785757335087000,5.922087158203125,0.28804197907447815,-0.39901214838027954,-0.19157227873802185
1772785757345103000,5.93210302734375,0.32292798161506653,-0.37916117906570435,-0.2996188998222351
1772785757355118000,5.9421181640625,0.3193633258342743,-0.4188324213027954,-0.3687606751918793
1772785757365134000,5.952134033203125,0.2780625820159912,-0.47420328855514526,-0.3749328851699829
1772785757375150000,5.962150146484375,0.22215111553668976,-0.4589273929595947,-0.30716103315353394
1772785757385165800,5.972165771484375,0.16995275020599365,-0.39910227060317993,-0.19127807021141052
1772785757395182000,5.98218212890625,0.08750313520431519,-0.3254554867744446,-0.03181224316358566
1772785757405197000,5.992197021484375,-0.01308395154774189,-0.2901163697242737,0.10912561416625977
1772785757415213000,6.002213134765625,-0.048494406044483185,-0.2882731854915619,0.3104028105735779
1772785757425229000,6.01222900390625,-0.017789853736758232,-0.21273404359817505,0.2943112552165985
1772785757435245000,6.0222451171875,0.04746345058083534,-0.09691529721021652,0.14431853592395782
1772785757445261000,6.032260986328125,0.12304230034351349,-0.003346704412251711,-0.09514867514371872
1772785757455276000,6.042276123046875,0.18891531229019165,0.0486038476228714,-0.32575124502182007
1772785757465292000,6.0522919921875,0.21140863001346588,0.1022559404373169,-0.46324023604393005
1772785757475308000,6.06230810546875,0.19480621814727783,0.13103139400482178,-0.47634005546569824
1772785757485324000,6.072323974609375,0.16911618411540985,0.2072645127773285,-0.38956552743911743
1772785757495340000,6.082340087890625,0.10796999931335449,0.3059178590774536,-0.22502823173999786
