time,seconds_elapsed,z,y,x
1772618907146307800,0.070307861328125,-0.17152151878774166,-0.0027189583688043057,-0.05796053299419582
1772618907156338000,0.080337890625,-0.14666414090692997,-0.009305204891320317,-0.07178303264686837
1772618907166369000,0.090369140625,-0.02330196513235569,-0.00493550190711394,-0.017421821052581072
1772618907176399000,0.100399169921875,0.2548515439033508,-0.015131536424625664,0.11331912159537896
1772618907186430000,0.110429931640625,0.008263385954499243,-0.008177388171479106,0.02120140352337621
1772618907196460000,0.1204599609375,-0.16167115590274334,0.006328581967018544,-0.05953454084526747
1772618907206491000,0.130490966796875,-0.11659165872633456,0.023418522450421003,-0.047147727418364954
1772618907216521000,0.14052099609375,0.03072539313137531,-0.003933430458791554,-0.00423101603272371
1772618907226552000,0.150552001953125,0.23718320074379443,-0.0048691038737073535,0.08862907223864458
1772618907236582100,0.16058203125,-0.02093698956668377,-0.014629870512802153,-0.005348311358550563
1772618907246613000,0.170613037109375,-0.141940034994483,-0.0028401553293690082,-0.04248995560724288
1772618907256643000,0.18064306640625,-0.10506605610549449,-0.000011051116976886986,-0.04432671518088318
1772618907266674000,0.190673828125,0.0397100790977478,-0.015229480373766272,0.02650360158472322
1772618907276704000,0.2007041015625,0.20216040267944335,-0.018275442207232116,0.08951979226698167
1772618907286735000,0.210735107421875,-0.0456400536686182,0.019565372419916092,-0.01608071777508594
1772618907296765000,0.220764892578125,-0.1223456922084093,0.006569386719260365,-0.04213362558339722
1772618907306796000,0.230796142578125,-0.09667933603227138,0.011697488589026033,-0.03174828817201778
1772618907316825900,0.240825927734375,0.032386604341864585,-0.007437894915789365,0.03838976287995465
1772618907326857000,0.25085693359375,0.17268471734821794,-0.027297318378835915,0.07190755407568067
1772618907336886800,0.26088671875,-0.04504150325357914,-0.01637616619085893,-0.004507988076889887
1772618907346918000,0.27091796875,-0.12503741551041603,0.013045998854842037,-0.044810854569170624
1772618907356948000,0.280947998046875,-0.08649345758259296,0.004107745846081525,-0.020259884889563543
1772618907366978800,0.290978759765625,0.03852291513979435,-0.014546630942448973,0.03755270013445988
1772618907377009000,0.3010087890625,0.14888298600018024,-0.0027414807278662917,0.07489953896589577
1772618907387040000,0.3110400390625,-0.032629180926084515,-0.003365750106051564,-0.0045596086662728335
1772618907397069800,0.32106982421875,-0.10872399409115314,-0.008293963755853473,-0.02734796172068454
1772618907407101000,0.331100830078125,-0.07017477546632289,0.003444039506651461,-0.036106008457485586
1772618907417131000,0.341131103515625,0.02908990088403225,-0.015409074724372475,0.01622898540566675
1772618907427161900,0.351161865234375,0.11894026767909525,-0.013484006679616868,0.0574655890841037
1772618907437192000,0.36119189453125,-0.035034488502144814,-0.0008326331655494868,-0.003089024657057598
1772618907447223000,0.37122314453125,-0.09555939209163189,-0.0027183555806055662,-0.041938897595740855
1772618907457252900,0.3812529296875,-0.0571557194173336,-0.0007039835508912801,-0.029173880239902063
1772618907467284000,0.391283935546875,0.03760755386054516,-0.0024970409801229835,0.01745971451071091
1772618907477314000,0.40131396484375,0.10396598590910434,-0.010426445739902555,0.0627537494869437
1772618907487345000,0.411344970703125,-0.00810673408806324,-0.001303063688892871,0.013256938191782683
1772618907497375000,0.421375,-0.08283493507504462,0.0037739655807614322,-0.032171153226587916
1772618907507406000,0.431406005859375,-0.07181845102012158,0.008973123392742127,-0.03704454968292266
1772618907517436000,0.441435791015625,0.014549334356188773,-0.00697164737721905,0.006421639678487554
1772618907527467000,0.451467041015625,0.08733750719130039,-0.015847100815456358,0.0607137954914011
1772618907537498000,0.461498046875,0.013436404678225516,-0.00655517553081736,0.024758173556346446
1772618907547528000,0.47152783203125,-0.07115326510965823,-0.006912281872797757,-0.019313617015397175
1772618907557559000,0.48155908203125,-0.07150982346236705,-0.004919902479182929,-0.02358754060808569
1772618907567589000,0.491589111328125,0.005856324812769889,-0.0019651808594353497,0.002391151186544448
1772618907577620000,0.501619873046875,0.07594049938619137,-0.024288327554892748,0.0387797759776935
1772618907587650000,0.511650146484375,0.029292729979753494,-0.0006727846950292587,0.02807358171464875
1772618907597681200,0.52168115234375,-0.0513870728880167,0.00023919731704518199,-0.0017449348380323497
1772618907607711000,0.5317109375,-0.07104395951628685,0.008869955279212444,-0.038157433695113284
1772618907617742000,0.5417421875,-0.018688918378949163,-0.0009279284998774528,-0.0017878971969243138
1772618907627772000,0.55177197265625,0.04524433234930038,0.0020920769084244967,0.020095652504870668
1772618907637803000,0.561802978515625,0.06010813948214054,-0.01316862058751285,0.03672173833618872
1772618907647832800,0.571832763671875,-0.014712415963411331,-0.018098843531310558,0.002181673154328018
1772618907657864000,0.581864013671875,-0.08269406529963017,0.003001282441522926,-0.012402385455369948
1772618907667893800,0.591893798828125,-0.04935936645269394,0.011262220710609108,-0.02349137762407772
1772618907677924900,0.6019248046875,0.02712006211578846,-0.008851780301705003,0.01581366433673538
1772618907687955000,0.611954833984375,0.042132922330498694,-0.017778160209581256,0.031135170375509186
1772618907697985800,0.62198583984375,0.020309213057160377,0.0026699315953068433,0.012915431277733296
1772618907708015900,0.632015869140625,-0.031491116806864734,0.0033002288554795085,-0.004258150634821504
1772618907718047000,0.642046875,-0.06924246305227279,-0.007698591678589582,-0.023724884985852984
1772618907728077000,0.6520771484375,-0.01942424691617489,-0.015296883054170757,0.0013212112669367343
1772618907738108000,0.66210791015625,0.025347207224369048,-0.009817629659175871,0.03398366427496075
1772618907748138000,0.672137939453125,0.04349193572402,-0.008240717464964836,0.023251212192652745
1772618907758168800,0.6821689453125,-0.002449146717786789,-0.010150788869988173,0.004968499994417652
1772618907768199000,0.692198974609375,-0.0629419016033411,-0.002371350507531315,-0.022806089640501886
1772618907778230000,0.70222998046875,-0.03887830444872379,0.007845653732772916,-0.0007198295739945024
1772618907788260000,0.712260009765625,-0.0005564648389816284,0.010586440340895205,0.010211076823016628
1772618907798291000,0.722291015625,0.03554068445861339,0.0002279087380506098,0.014051084244158117
1772618907808321000,0.732321044921875,0.014008651608228683,0.002736548824422061,0.01723133084862493
1772618907818351900,0.742351806640625,-0.03329612040221691,0.004068235819600522,-0.01108333874605596
1772618907828382000,0.7523818359375,-0.0521843607455492,-0.008591229669377207,-0.010423742326162755
1772618907838413000,0.7624130859375,0.011405191111564636,-0.0004409669668413698,-0.0036362284773495046
1772618907848443100,0.772443115234375,0.03297521788477897,-0.007769885082822292,0.012506960074696689
1772618907858474000,0.782473876953125,0.024618892949819563,-0.0074271360597573215,0.024072766841761767
1772618907868504000,0.792504150390625,-0.022816227442026136,-0.012858129866234958,-0.009097690487327054
1772618907878535000,0.802534912109375,-0.042892800787091255,-0.008170958430692554,-0.015962251627724616
1772618907888566000,0.81256591796875,-0.03453706037402153,-0.005613401168677956,-0.004333782287454233
1772618907898596000,0.82259619140625,0.02009118639230728,-0.009003920389804989,0.017077181466529145
1772618907908627000,0.832626953125,0.019818214669823645,-0.006869447378069162,0.021712476584361866
1772618907918657000,0.842656982421875,-0.009045476242899895,-0.005486249391362071,0.014701830637315288
1772618907928688000,0.852688232421875,-0.022827333357930184,0.0013443820799700914,-0.00871165031180717
1772618907938718200,0.86271826171875,-0.0382633874207735,-0.013350260764732957,-0.000663605874730274
1772618907948749000,0.8727490234375,-0.0037029461711645126,-0.007416377203725278,0.0023645280411001292
1772618907958779000,0.88277880859375,0.025793197426199913,0.009833064690325409,0.0077939509449992325
1772618907968810000,0.89281005859375,0.02536766549050808,0.003082476185262203,0.012928994012204929
1772618907978839800,0.90283984375,-0.012038228318095206,-0.0014740180753171443,0.0017984916561748832
1772618907988871000,0.912870849609375,-0.0382417601108551,0.001626194696035236,0.0005831701828166843
1772618907998901000,0.92290087890625,-0.027183775001764297,0.0013359978441148995,0.004010943541256711
1772618908008931800,0.932931884765625,0.00468903459906578,-0.0023132271121256054,0.012337795786559582
1772618908018962000,0.9429619140625,0.013236498191952705,-0.003904167831689119,0.013516548109194263
1772618908028993300,0.9529931640625,0.014147183296084402,-0.00948858036790043,0.008140545026119798
1772618908039023000,0.963023193359375,-0.01698679063618183,-0.010377747759968041,-0.012262739522662013
1772618908049054200,0.97305419921875,-0.025385201147198676,-0.005758654858265072,-0.002501379228523001
1772618908059084300,0.983084228515625,-0.025842297264933586,-0.00502813036032021,-0.0064636978550814085
1772618908069115100,0.993115234375,0.013821020081639289,-0.004906915133446455,0.003938745954725891
1772618908079145200,1.003145263671875,0.016685177341103554,-0.0037143443480134007,0.014993908919068053
1772618908089176000,1.013176025390625,-0.008900514814257621,0.002880962263792753,0.0052280642460566015
1772618908099206100,1.0232060546875,-0.008314823880791664,0.009186181621532888,-0.006967601389763876
1772618908109237200,1.0332373046875,-0.008180968368053435,-0.0018855945508927106,0.004507385288691148
1772618908119267300,1.043267333984375,0.0031938276052474973,0.010068846207577734,0.013398593418486416
1772618908129298200,1.053298095703125,0.022063947769999502,0.015347626860719173,0.009794504511915146
1772618908139328300,1.063328369140625,0.00007540332376956939,0.005119735900219529,0.004553525985358283
1772618908149359000,1.073359130859375,-0.018935002094507217,0.01843176528010517,-0.012828282717242836
1772618908159389200,1.08338916015625,-0.024786066210269925,-0.004066774514876306,-0.003379586835158989
1772618908169420300,1.093420166015625,0.00184825821518898,-0.007789539631363004,0.008592910169810055
1772618908179450400,1.103450439453125,0.00500058476626873,0.002118727453332394,0.008145696125272661
1772618908189481200,1.113481201171875,0.00800561180114746,0.012244126153737305,0.006226674228813499
1772618908199511300,1.12351123046875,0.0002262099713087082,-0.009111417618580161,0.014857030332181602
1772618908209542400,1.13354248046875,-0.022376666980981827,-0.005992993337102234,-0.006381398999644443
1772618908219573200,1.1435732421875,-0.0027817396730184553,-0.006403510366752743,0.0033930765043944117
1772618908229603300,1.153603271484375,-0.01594108097553253,-0.0061879679199308155,0.0015126787184271961
1772618908239634200,1.16363427734375,0.008010287976264954,0.0011717837257310747,0.006075940646510571
1772618908249664300,1.173664306640625,0.0018821604847908018,-0.008607943342160434,0.013748959492426365
1772618908259695400,1.1836953125,-0.015481062248349189,-0.006408697998523712,0.008638457211432977
1772618908269725400,1.193725341796875,-0.013695347875356673,-0.0026447240888141095,0.007710903170891106
1772618908279756300,1.20375634765625,-0.009812368962168694,-0.01290850834660232,-0.010668428669078274
1772618908289786400,1.213786376953125,-0.012648469170928,-0.0024770393717102705,0.01686762123592198
1772618908299817200,1.223817138671875,0.005315057542920112,-0.0037372685658745466,0.016253042134689165
1772618908309847300,1.233847412109375,0.0042681788384914396,-0.005379683744348585,0.0024319581209681926
1772618908319878400,1.24387841796875,-0.008759645038843154,-0.008752959569729863,0.008989800532907247
1772618908329908500,1.253908447265625,-0.015056114834547041,-0.0075821074257604775,-0.0003685410514473915
1772618908339939300,1.263939208984375,0.0020025719940662385,0.013912388159520924,0.010316564757796003
1772618908349969200,1.27396923828125,0.010685060143470763,-0.008183653515484184,0.006902618995308875
1772618908360000300,1.284000244140625,0.015924714362621308,0.00400435853684321,0.004638564787153155
1772618908370030000,1.294030029296875,-0.026430910807847974,0.006083064507041126,0.0012961590240709482
1772618908380061200,1.304061279296875,-0.017907997134327888,-0.004312584235798568,-0.004013911816477775
1772618908390091300,1.31409130859375,0.006185410636663437,0.0009663060151971876,0.006517072010133415
1772618908400122000,1.3241220703125,0.011276596295833587,-0.010906977532152086,0.027718776927608994
1772618908410152200,1.334152099609375,0.004850947162508964,0.002607004160620272,0.004971605266956612
1772618908420183300,1.344183349609375,-0.012206570622324943,-0.006909852453693747,-0.0003264920080080628
1772618908430213000,1.354213134765625,-0.013415946412086486,-0.009254936008807271,-0.006892700389493256
1772618908440244200,1.364244140625,-0.02044891378879547,-0.006335194370895624,-0.007542807461833581
1772618908450274300,1.3742744140625,0.0020078326910734174,-0.011638104818295686,0.008122022988740355
1772618908460305200,1.38430517578125,0.003810498198866844,-0.0062322637193836265,0.014267521740123629
1772618908470335200,1.394335205078125,-0.01579085884988308,0.008042820272687823,0.009235354525502771
1772618908480366300,1.404366455078125,-0.033007366588711735,0.01738771785357967,-0.005510507049784064
1772618908490396200,1.414396240234375,-0.0107183778911829,-0.0026436463765799998,0.007938565313769503
1772618908500427300,1.42442724609375,-0.012960603860020637,-0.004081478893663734,0.018021869304962454
1772618908510457300,1.434457275390625,0.00125613754093647,0.001289601419121027,-0.008636703645763919
1772618908520488200,1.44448828125,0.0033498949497938156,-0.015430208843946455,-0.002343530918844044
1772618908530518300,1.454518310546875,-0.007876432463526725,-0.013641005605924874,0.010142824759241192
1772618908540549400,1.46454931640625,-0.004439443752169609,-0.00834335585553199,-0.0007130253738723695
1772618908550579200,1.4745791015625,-0.016409283009171483,-0.002575951435230672,0.0016329258309211582
1772618908560610300,1.4846103515625,0.0055921209186315535,-0.010145619504526257,-0.002588600854249671
1772618908570640400,1.494640380859375,0.010385784935951232,-0.0020087460065260528,-0.0007710848371963948
1772618908580671200,1.504671142578125,-0.011913140633702277,-0.006470054530631751,0.0052727984369266775
1772618908590701300,1.514701416015625,-0.012364391532540321,-0.013344506877381354,-0.0016312361973337829
1772618908600732400,1.524732421875,-0.01939969699680805,0.0027579386723227796,0.007570060794940218
1772618908610762200,1.53476220703125,-0.011319850915670395,0.0011686419205740094,0.01635264831795357
1772618908620793300,1.54479345703125,0.0006552490383386611,-0.029571565187443045,-0.0028457813525572416
1772618908630824400,1.554824462890625,-0.0011427402943372726,-0.005722396234795451,0.0024669472359586508
1772618908640854300,1.564854248046875,0.004088146096467972,0.0016497765010222792,-0.0031769404025282708
1772618908650885400,1.574885498046875,0.0045329672545194625,-0.010838917264621705,-0.0018542312982492148
1772618908660915500,1.58491552734375,-0.010426701468229294,0.000897990019340068,-0.00047604741337709124
1772618908670946300,1.5949462890625,-0.0032400048345327375,-0.005322583262249827,0.01261929787537083
1772618908680976100,1.60497607421875,0.0009475099831819534,-0.0008681794029660522,0.018469649605080483
1772618908691007500,1.615007568359375,-0.0027981062859296795,-0.0049797429076395925,0.007578700759122148
1772618908701037000,1.625037109375,0.003932078751921654,-0.009225856044795363,0.0015832962692249564
1772618908711068200,1.635068115234375,-0.007133505141735077,-0.007888524760119616,0.001670216500852257
1772618908721098200,1.64509814453125,-0.008474982878565789,0.00020646409122273326,0.005176507588755339
1772618908731129000,1.655129150390625,0.0008043021202087402,0.00915542115708813,-0.0063797550318296994
1772618908741159200,1.6651591796875,-0.0032370822250843046,0.006124529028590768,0.008042317949188874
1772618908751190300,1.675190185546875,0.001550152051448822,-0.008706234351173042,-0.002297947344603017
1772618908761220000,1.68522021484375,0.0011024082839488983,0.002308952795807272,0.0035524683171883225
1772618908771251200,1.695251220703125,0.0005015197813510895,-0.00325109248412773,-0.011837499847915023
1772618908781281300,1.70528125,0.00229834007024765,-0.010037610819097608,-0.005230849858187139
1772618908791312100,1.71531201171875,-0.0069815294504165645,-0.013842044603358953,0.005035866142204031
1772618908801342200,1.72534228515625,-0.007135258707404136,-0.00764538192031905,0.014649278466170652
1772618908811373300,1.735373291015625,-0.0002495908468961716,0.00200116548826918,0.007382018276397138
1772618908821403400,1.7454033203125,-0.00025075989067554474,-0.019776896278746424,0.004696733848331496
1772618908831434200,1.755434326171875,0.007978723794221878,-0.012967563323769717,-0.0028004809061065315
1772618908841464300,1.76546435546875,-0.011471242085099219,-0.002635444803815335,0.0016752671353053301
1772618908851495200,1.7754951171875,-0.01206686989068985,-0.001980049635004252,0.003691785456333309
1772618908861525200,1.785525146484375,-0.012366729620099067,-0.006863255099300295,0.011068323840014636
1772618908871556400,1.795556396484375,-0.00473521182835102,-0.011340765839535742,0.011383828663127496
1772618908881586400,1.80558642578125,-0.0056336219727993,-0.012047799864038825,0.015055904771992935
1772618908891617300,1.8156171875,-0.006233925953507423,-0.006754223500564694,-0.0016090700312983244
1772618908901647400,1.8256474609375,0.0036380642414093017,-0.0023718071652576327,0.0060287222376093266
1772618908911678200,1.83567822265625,-0.010729483807086944,-0.0015581892274320124,-0.008230670994985848
1772618908921708300,1.845708251953125,0.002289572241902351,-0.014429854428675025,0.007227640565438196
1772618908931739400,1.855739501953125,-0.009077624946832657,-0.004647168218716979,0.005543249408761039
1772618908941769500,1.86576953125,-0.008927987343072891,0.003088522333558649,0.006289135872619226
1772618908951800300,1.87580029296875,-0.001003039562702179,-0.01150487036006525,0.007008590987278148
1772618908961830400,1.885830322265625,-0.009389175114035605,-0.0035002632059156894,0.008214304382074624
1772618908971861200,1.895861328125,-0.0081955814152956,-0.001407912302855402,0.01180024571060203
1772618908981892400,1.905892333984375,0.0003343465209007263,-0.005126677097659558,0.010548117624502628
1772618908991922400,1.91592236328125,-0.014478607207536697,0.0003913739377632737,0.0031675606528297063
1772618909001953300,1.925953369140625,0.002277297282218933,-0.009466788661200553,0.004074592495150864
1772618909011983000,1.935983154296875,-0.008795300874114035,-0.004737860443163663,0.018662642293376847
1772618909022014200,1.94601416015625,-0.012984569257497787,0.01228716157786548,0.027202032177662476
1772618909032043500,1.95604345703125,-0.0004138414978981018,-0.01167032658746466,0.009589976649452001
1772618909042074400,1.966074462890625,-0.0031102409750223157,-0.004821721068024635,0.006320243396935984
1772618909052104400,1.9761044921875,0.002273205628991127,-0.01245499242544174,0.007660753019386902
1772618909062135600,1.986135498046875,0.01603869613111019,0.0014663279592059552,-0.0008340031387284398
1772618909072165400,1.996165283203125,0.001974514943361282,0.0012926701590418815,-0.0013333857619203626
1772618909082196500,2.006196533203125,-0.019426585003733635,-0.006344199661258608,0.007267004461446776
1772618909092226300,2.016226318359375,-0.0022165070056915284,0.0069184010863304135,0.019394116639392448
1772618909102257400,2.02625732421875,-0.005205167427659034,-0.011573387285321951,-0.0006457962234038859
1772618909112287200,2.036287353515625,-0.01643207936286926,-0.005204984764568508,0.006770708844484761
1772618909122318300,2.046318359375,-0.0019189853638410567,-0.003971844506729394,0.021336619876138864
1772618909132348400,2.056348388671875,-0.009707739543914795,-0.006979922015219926,0.0020770894018467515
1772618909142379300,2.066379150390625,-0.022127076134085655,-0.0023066147082485256,0.011064908040221779
1772618909152409300,2.076409423828125,-0.0028238252490758895,-0.008266235498711466,0.0014166527317371219
1772618909162440200,2.086440185546875,-0.006120528706908226,-0.002549447020795196,-0.002102799231838435
1772618909172470300,2.09647021484375,0.0064496145308017725,-0.00813022456150502,-0.006000217662332579
1772618909182501400,2.10650146484375,-0.013901099580526351,-0.006474164450168609,0.009726736505329608
1772618909192531500,2.116531494140625,0.0065986676126718515,-0.011986096272058783,0.010580184130044653
1772618909202562300,2.126562255859375,-0.006877484554052352,-0.0035881606850773095,0.01239591918196529
1772618909212592400,2.13659228515625,-0.005231470912694931,-0.020837401649728415,0.007062586196837946
1772618909222623200,2.146623291015625,-0.012861819660663604,-0.0072769322004169225,0.006134538965951651
1772618909232653300,2.1566533203125,-0.008974749094247817,0.001997000769805163,0.0037291126588825134
1772618909242684400,2.166684326171875,0.0015010522127151488,-0.004243555853888392,-0.0006952613883186131
1772618909252714500,2.176714599609375,-0.013313655081391334,-0.00929557854644954,0.000052844432089477775
1772618909262745300,2.186745361328125,0.007333996149897575,-0.0011099157369695604,0.0008153806366492062
1772618909272775400,2.196775390625,-0.006435586005449295,0.004402271813247352,0.006648141910741106
1772618909282806300,2.20680615234375,-0.003443418452143669,-0.007993501238245517,0.008011530085280537
1772618909292836400,2.21683642578125,-0.004942132577300072,0.011390249270759522,0.014844088652217759
1772618909302867500,2.226867431640625,0.00433306076824665,-0.006766407128702849,0.014360972177237271
1772618909312897500,2.2368974609375,-0.010628361520171164,0.007360190037079155,0.00888491538632661
1772618909322928400,2.246928466796875,-0.005544190123677253,-0.004606927539873868,-0.010600989456055684
1772618909332958500,2.25695849609375,-0.0016530279040336607,0.010227854427881539,0.004199552315380424
1772618909342989600,2.266989501953125,-0.012877017229795455,0.01236256490163505,0.0068568070922046895
1772618909353020400,2.2770205078125,-0.0010538929671049118,-0.008640877497382462,0.0024575218204874543
1772618909363050500,2.287050537109375,-0.004199205255508423,0.004666183446440845,0.006354766721045598
1772618909373081300,2.297081298828125,-0.0016588731229305266,-0.012908544879220425,-0.003063625354319811
1772618909383111400,2.307111328125,-0.009442951127886772,-0.0022111732434481383,0.00936735600787215
1772618909393142500,2.317142578125,0.0016290625065565108,0.008539024558104574,-0.005344776827748865
1772618909403172600,2.327172607421875,0.002827332380414009,-0.0021074206080287693,0.007427656649565324
1772618909413203500,2.337203369140625,-0.027249825975298878,0.0045046910081058735,0.005123206498939543
1772618909423233300,2.3472333984375,-0.018269231662154196,-0.0033492556289769705,-0.005888939307583495
1772618909433264400,2.357264404296875,0.0010334347009658812,-0.005748498790431767,0.018759261935111134
1772618909443294200,2.367294189453125,0.0025327333480119705,-0.000953738794568926,0.000310216726642102
1772618909453325300,2.3773251953125,-0.013779519027471541,-0.0017416560355573891,-0.005482787925796583
1772618909463355400,2.38735546875,-0.006748305216431617,0.003524466065410524,0.0031073183655738828
1772618909473386200,2.39738623046875,-0.01393207924067974,-0.0003398812125436961,0.0018675291712395845
1772618909483416300,2.407416259765625,-0.0028588965624570845,0.005618040811177343,-0.000432482266286388
1772618909493447400,2.417447509765625,-0.00046001872718334194,-0.008614373082946986,-0.009836681419517844
1772618909503477200,2.427477294921875,-0.004199789777398109,-0.009211553524807094,0.0043630814471747725
1772618909513508400,2.43750830078125,-0.00016015899777412413,0.0015407997012138366,0.008151687474641948
1772618909523538400,2.447538330078125,0.0028337621212005614,0.0014722097107209265,-0.0058251716226805
1772618909533569300,2.4575693359375,-0.005844634374976158,-0.00630222368305549,-0.002715606501093134
1772618909543599400,2.467599365234375,-0.01856324617266655,-0.010796393297147005,0.00003213043762370944
1772618909553630500,2.47763037109375,-0.0004594342052936554,-0.009543762887548655,0.011128620926197617
1772618909563660300,2.487660400390625,0.0031277766317129134,0.0024533845014870167,0.008445144862728193
1772618909573691400,2.49769140625,-0.0031599253356456754,0.006458802484255284,0.0007611022992990911
1772618909583721500,2.507721435546875,-0.010196399843692779,0.0021732889184728262,0.008164802684541792
1772618909593752300,2.51775244140625,-0.0013654431343078613,-0.0017745901907794176,0.0012271032426971942
1772618909603782400,2.527782470703125,-0.0065986676126718515,-0.011080781462788581,0.012444251835718751
1772618909613813500,2.5378134765625,-0.01168517709672451,-0.003916351459827274,-0.002726474954979494
1772618909623843300,2.54784326171875,-0.011533785927295684,-0.010882811205275357,0.003100824692705646
1772618909633874400,2.55787451171875,-0.007191957330703735,-0.00867496243007481,0.020283612825023008
1772618909643904500,2.567904541015625,0.004632920497655868,0.0009570084638893604,0.00918567016487941
1772618909653935400,2.577935302734375,0.0010416180074214936,0.0007991510210558772,0.009214202139619737
1772618909663966500,2.587966552734375,0.007924947780370712,0.00018870923882350325,-0.00296070383596234
1772618909673996500,2.59799658203125,0.007623919007182121,-0.011169939317274839,0.014241857575904578
1772618909684027400,2.60802734375,-0.002403554010391235,-0.010831720338854938,-0.00333821364515461
1772618909694057500,2.618057373046875,-0.0010579846203327178,-0.011571761583816259,0.006305091493576765
1772618909704088600,2.628088623046875,-0.004646949023008346,0.007394019241444766,0.0025256368869449944
1772618909714118400,2.638118408203125,-0.0070434887707233424,0.0026467151165008545,0.0068810830169357354
1772618909724149500,2.6481494140625,-0.02140752968788147,-0.009089443248789757,0.00955159000097774
1772618909734179600,2.6581796875,-0.017961188626289367,0.006711096744891256,0.009528145193308591
1772618909744210400,2.66821044921875,0.0026888006925582884,0.0059749462237581605,-0.0009292254078201949
1772618909754240300,2.678240234375,-0.01332476099729538,-0.005432582975365221,0.007929980148514731
1772618909764271600,2.688271728515625,-0.0015068974316120147,0.010122786618210375,0.00045901408018544313
1772618909774301200,2.69830126953125,-0.016472411373257636,0.0004126907204277813,-0.0056587472809012974
1772618909784332300,2.708332275390625,-0.0293359845995903,0.0036392515514977273,0.001367872553411871
1772618909794362400,2.7183623046875,0.0019417817175388335,0.006193593943119049,-0.0011435166124720126
1772618909804393200,2.728393310546875,-0.0050911856591701506,-0.0005621821937151253,0.01017646216736175
1772618909814423300,2.73842333984375,-0.017509937727451325,0.007219301995355636,0.007290138741862028
1772618909824454400,2.748454345703125,-0.01077799912393093,-0.0039335583229549225,-0.003496016289060935
1772618909834484200,2.758484130859375,-0.016461889979243277,-0.018290475379582494,-0.007304706123331561
1772618909844515300,2.768515380859375,0.0005991349369287491,0.011414178135618567,0.004876757457200438
1772618909854545400,2.77854541015625,0.0103261637032032,0.006491243449132889,0.0020991733694914728
1772618909864576300,2.788576171875,-0.007175006195902824,0.0014542539289221167,0.007278585301386192
1772618909874606300,2.7986064453125,-0.010616671082377432,0.00010983531633391976,-0.004126203951379284
1772618909884637400,2.808637451171875,-0.01151741931438446,0.003479804939776659,-0.0034753388272132724
1772618909894667300,2.818667236328125,0.0027010756522417067,-0.007429802940879016,-0.007116955865733325
1772618909904698400,2.828698486328125,-0.006276011529564857,-0.013168492723349481,0.00007185965981334447
1772618909914728400,2.838728515625,-0.0230400993257761,-0.006653283876739442,0.00466334303538315
1772618909924759300,2.84875927734375,0.0004547580301761627,0.0004697729362174868,-0.0015739530521444976
1772618909934789400,2.858789306640625,0.00015606734454631804,0.0063358154254034155,0.0022528752270154656
1772618909944820500,2.868820556640625,-0.009873743760585784,0.008961615618038921,0.00492480698316358
1772618909954850600,2.8788505859375,-0.0056850598990917205,0.01483211508663371,-0.003400045101298019
1772618909964881400,2.88888134765625,-0.013164601999521255,0.010131280451919883,-0.0019291779642924664
1772618909974911500,2.898911376953125,0.0001502221256494522,0.0018910744436085223,0.002289727505529299
1772618909984942300,2.9089423828125,-0.012568974193930625,0.013012297514639793,0.008548212511558085
1772618909994973400,2.918973388671875,-0.005984335106611251,0.002588007199205458,0.002114699732186273
1772618910005003500,2.92900341796875,-0.0034440029740333555,-0.003554989067837596,0.002601122409105301
1772618910015034400,2.939034423828125,-0.004041968867182732,-0.0019447408596053718,0.003001054112659767
1772618910025064400,2.949064453125,-0.013918050715327262,0.004927464731130748,0.015388808254478498
1772618910035095600,2.959095458984375,-0.0011982698738574982,-0.00962501143021509,0.010554136373335495
1772618910045125000,2.969125,-0.007183774024248123,-0.003525032320991158,0.004820396760618314
1772618910055156200,2.97915625,-0.006737783822417259,0.011404332595039158,0.010920750329177826
1772618910065186300,2.989186279296875,0.0076291797041893004,-0.007912691086996347,0.010289758949261159
1772618910075217200,2.999217041015625,0.00717909784913063,0.014744528134725987,-0.006285829670680686
1772618910085247200,3.009247314453125,0.00717909784913063,0.0028918124513700604,0.0011232410094235091
1772618910095278300,3.0192783203125,0.005533084207773208,0.0010797215281054377,-0.004581546503445133
1772618910105308400,3.029308349609375,-0.004346504771709442,-0.004811729396972805,0.005920174696063623
1772618910115339300,3.03933935546875,-0.004798340192437172,0.010055621399823576,-0.0023589476836845275
1772618910125369300,3.049369384765625,-0.015718378135561942,-0.007907539987843484,0.0018417828086297959
1772618910135400200,3.059400146484375,-0.017362053689360616,-0.017841142443194985,0.014329590658284723
1772618910145430300,3.06943017578125,-0.01571487100422382,-0.006820037012081593,0.0011898673716932535
1772618910155461400,3.07946142578125,-0.0010492167919874192,0.0005125160994008183,0.008466735640028492
1772618910165491500,3.089491455078125,0.004939209967851638,-0.009616481063887477,-0.001938639912381768
1772618910175522300,3.099522216796875,-0.00912321765422821,0.0024058738316409286,-0.004521231150953099
1772618910185552400,3.109552490234375,-0.004185176730155945,-0.005238576506916433,-0.009490644460823386
1772618910195583200,3.119583251953125,0.0022509937971830368,-0.006631108577549457,0.0056983760383911425
1772618910205613300,3.12961328125,-0.016903788527846336,-0.004792038315813988,0.008948436476057395
1772618910215644400,3.13964453125,-0.015560557225346563,-0.0055461811513639984,0.0077676565931178625
1772618910225674500,3.149674560546875,-0.00329085823893547,0.0015316117477603257,0.006294734496343881
1772618910235705300,3.159705322265625,0.0011976853519678114,-0.00928341318462044,0.004057878822367638
1772618910245735400,3.1697353515625,-0.011372457885742187,0.0013566753059625625,0.002512329880800098
1772618910255766300,3.179766357421875,-0.01137362692952156,-0.0017857874382287264,0.0034525607398245483
1772618910265796400,3.18979638671875,0.0011976853519678114,0.0016824914605356753,-0.0026275811577681453
1772618910275827500,3.199827392578125,-0.0029921675533056257,-0.000286561856418848,0.014042243350576609
1772618910285858300,3.2098583984375,0.00658697717487812,-0.01968147308025509,0.008526092011295259
1772618910295888400,3.219888427734375,-0.01376607502400875,-0.01387422983990982,0.009318110038666054
1772618910305919500,3.22991943359375,0.0056838908553123475,-0.002494940354581922,0.02168354275082238
1772618910315949600,3.239949462890625,0.0059784898877143855,0.00475492117581889,-0.0014560622935183346
1772618910325980400,3.24998046875,0.005827683240175247,-0.0003936024274677038,-0.012745938196033238
1772618910336010500,3.260010498046875,0.005831190371513366,-0.008427271279320121,0.00909624744891189
1772618910346041300,3.270041259765625,-0.009577975684404372,0.000439962319843471,0.008998239567689597
1772618910356071200,3.2800712890625,0.003739771050214767,0.007783055091649294,-0.008155678663169965
1772618910366102500,3.2901025390625,-0.0023994623571634292,0.007185691986698657,0.007057170236203819
1772618910376132400,3.30013232421875,-0.013473229557275772,-0.006031590048130601,0.0011896664422936737
1772618910386163200,3.3101630859375,-0.006439677658677101,-0.0017388978228904306,-0.009943466262239962
1772618910396193300,3.320193359375,0.0022416414469480514,-0.0037239889591932293,0.0015627192720770835
1772618910406224100,3.33022412109375,-0.00898293240070343,0.0015888766266405582,0.011271737457625568
1772618910416254200,3.340254150390625,-0.013922726890444754,0.0019203370707109569,-0.011418114525219425
1772618910426285300,3.350285400390625,-0.016917817053198815,0.0030045521108433603,0.0019303561412263661
1772618910436315400,3.3603154296875,-0.014675591084361075,-0.0048330461796373125,0.0032616230112966146
1772618910446346200,3.37034619140625,-0.005697334858775139,-0.008463749098498374,0.006744752419320866
1772618910456376300,3.380376220703125,-0.017967033845186234,0.0003523936342447996,-0.015691471862327305
1772618910466407400,3.390407470703125,-0.010033318236470221,0.01958053345642984,-0.0004537807826418429
1772618910476437200,3.400437255859375,0.012112462598085403,0.004678677601832896,0.022514869875274596
1772618910486468400,3.41046826171875,-0.004350596424937248,-0.00013756357347592712,0.011150567896524443
1772618910496498400,3.42049853515625,-0.002853635865449905,0.0013250197923742233,0.004431013850541785
1772618910506529300,3.430529296875,0.0010381108760833739,-0.01420691412668675,0.004310602341266349
1772618910516559400,3.440559326171875,-0.009289806392788886,-0.0012168649764731526,0.0008269158108159899
1772618910526590500,3.450590576171875,0.0067179100781679145,0.00547470508404076,-0.007336882226727902
1772618910536620300,3.460620361328125,-0.022460253611207008,-0.0026208865555003283,-0.0035000074775889513
1772618910546651400,3.4706513671875,0.0022328736186027526,0.002518595224805176,-0.00969846025891602
1772618910556682200,3.48068212890625,-0.004645779979228973,0.005174845354631543,0.007840484367311001
1772618910566712300,3.49071240234375,-0.016316928550601004,-0.004105462557449937,0.010398343023424968
1772618910576743400,3.500743408203125,-0.0016530279040336607,-0.004255520286317914,0.004691637548105791
1772618910586773500,3.5107734375,-0.0037508769661188123,0.0073808857652358706,-0.012842713101394473
1772618910596804400,3.520804443359375,0.0064233110457658765,0.007885145492944865,-0.00942735169995576
1772618910606834400,3.53083447265625,-0.009292144480347634,-0.0018511625583283603,0.01583442399697378
1772618910616865300,3.540865234375,0.005521978291869163,0.0028006087702699004,0.0007469459097832441
1772618910626895400,3.550895263671875,0.0037269115686416623,-0.009488452503737062,0.0003325838220771402
1772618910636926500,3.560926513671875,-0.0009083470165729522,0.0025883359927684067,0.004440357067622244
1772618910646956500,3.57095654296875,-0.010935820034146308,-0.003181753574963659,0.01037349170995876
1772618910656987400,3.5809873046875,0.017047580912709234,0.00263480548299849,0.01210255312542431
1772618910667017500,3.591017578125,-0.002103109759092331,0.00508868317482993,0.009466423335019498
1772618910677048300,3.60104833984375,-0.0034498481929302214,0.010457589796837419,0.00000424691685475409
1772618910687078100,3.611078125,-0.014971943682432173,0.0010065284277312456,0.006547384950006381
1772618910697109500,3.621109619140625,-0.011083119550347327,0.006040595338493585,-0.001060523637291044
1772618910707139300,3.631139404296875,0.008072831818461417,-0.0026155345269478856,0.003526493625715375
1772618910717170200,3.641170166015625,-0.007637947532534599,-0.014885489241685717,0.005321998740360141
1772618910727200300,3.6512001953125,-0.0025520225703716277,-0.0019580569989047945,-0.0027879045523237435
1772618910737231400,3.6612314453125,-0.004948562318086624,-0.00799041423201561,0.0021418526005931196
1772618910747261200,3.67126123046875,-0.008089198431372641,0.005379793342202901,-0.0004734992632642388
1772618910757292300,3.681292236328125,-0.005244330394268036,0.004970500155258924,0.01234240802959539
1772618910767322400,3.691322265625,0.0008890577942132949,-0.001997110367659479,0.002102132511558011
1772618910777353200,3.701353271484375,-0.006739537388086319,0.003540083759650588,0.0014685199162922798
1772618910787383300,3.71138330078125,-0.004342997640371322,0.0033167781314812597,0.005845063633238896
1772618910797414400,3.721414306640625,-0.018259294790029523,-0.002228325307648629,0.009271530950581655
1772618910807444200,3.7314443359375,-0.014666823256015777,-0.0040532209135591985,0.004560887307906523
1772618910817475300,3.741475341796875,-0.00479191045165062,-0.00771309512797743,0.012991409990238024
1772618910827505400,3.75150537109375,0.006282441270351409,-0.0023202779074199494,0.0035920696752145885
1772618910837536300,3.761536376953125,0.0059866731941699974,-0.003373074895981699,-0.006746898710634559
1772618910847567400,3.7715673828125,0.008376198679208755,-0.005322017006669193,-0.004228833208791911
1772618910857597400,3.781597412109375,-0.0025485154390335082,-0.009043046823795885,0.014584113408625124
1772618910867628300,3.791628173828125,-0.019457564663887022,-0.014850034335814416,0.010030596556421368
1772618910877658400,3.801658447265625,-0.004342997640371322,0.0006267170635983348,0.006762945663137361
1772618910887689500,3.811689453125,0.002393032616376877,-0.008853533867374062,0.019168061931710688
1772618910897719300,3.82171923828125,-0.0035942250996828075,-0.0018780322989448903,-0.002956402120180428
1772618910907750400,3.83175048828125,-0.01316869365274906,-0.004225691403634846,0.006197804327355698
1772618910917780500,3.841780517578125,-0.004639934760332107,-0.013130845860391854,0.004918769968021661
1772618910927811300,3.851811279296875,-0.003147650375962257,-0.019311616854555905,0.01701042724009603
1772618910937841400,3.86184130859375,-0.0031529110729694365,-0.007307674398552626,0.008125648851087316
1772618910947872500,3.87187255859375,-0.012732055801153183,-0.0009459573469124733,0.0023980558513663707
1772618910957902300,3.88190234375,-0.0022562544941902157,-0.007006462962273508,-0.0054755910000298166
1772618910967933400,3.891933349609375,-0.008839140015840529,-0.0036615729811601337,0.004762967484956607
1772618910977963500,3.901963623046875,0.0046294133663177485,-0.002916106642410159,0.010825948185194284
1772618910987994400,3.911994384765625,0.005077741655707359,0.006583944967575371,-0.007298915703361854
1772618910998024200,3.922024169921875,0.0019330138891935347,-0.010400763309374452,-0.002434734599944204
1772618911008055600,3.9320556640625,-0.005250175613164902,-0.0041328620210289956,-0.0019247209848836063
1772618911018085000,3.942085205078125,-0.003007365122437477,-0.02071415886254981,-0.005910009495075792
1772618911028116200,3.9521162109375,0.010461188259720802,-0.008048373230639845,-0.006846961551625281
1772618911038146800,3.962146728515625,-0.014677344650030136,0.0024677418204024433,0.007345092932647093
1772618911048178000,3.972177978515625,-0.011534370449185372,0.003681483258027583,0.01652894559977576
1772618911058207700,3.982207763671875,0.008368015372753142,-0.0039319326214492314,-0.001450070944149047
1772618911068238800,3.99223876953125,-0.000009352350234985351,-0.005303513235598802,-0.0011412789896130561
1772618911078270000,4.00227001953125,-0.013174538871645927,-0.003153185067605227,-0.0006224153478164226
1772618911088299800,4.0122998046875,-0.0073369187593460075,-0.0059561501917429266,0.0020663853447418657
1772618911098330600,4.02233056640625,-0.008536357676982879,0.002207647845800966,0.014189058809587731
1772618911108360700,4.032360595703125,0.0007405892342329024,-0.0071757368482649325,0.009564814808731899
1772618911118391800,4.042391845703125,0.006278349617123604,-0.004849357993621379,0.0030956918598618356
1772618911128422000,4.052421875,-0.00973579659461975,0.012127166976872831,0.014630719896173103
1772618911138452700,4.06245263671875,-0.00120820674598217,-0.0051763066593557595,0.0007900178665295243
1772618911148482800,4.07248291015625,0.0013315408647060394,0.006890453633479773,0.004057860556058585
1772618911158513700,4.082513671875,-0.005099953487515449,-0.0003701667529530823,0.01791498399754055
1772618911168543700,4.092543701171875,-0.0015074819535017012,-0.008275624381564557,-0.012609132674383
1772618911178574800,4.102574951171875,-0.019616554617881775,-0.0015923289590515195,0.00915795104089193
1772618911188605000,4.11260498046875,-0.009893617504835129,-0.007287124800868332,-0.010014120345655828
1772618911198635800,4.1226357421875,-0.0007703998506069183,-0.0008101656054146588,0.006297346578538417
1772618911208665900,4.132665771484375,-0.0003197334736585617,0.004476049435511231,0.001887028456153348
1772618911218697000,4.142697021484375,0.0005810147583484649,-0.0030868053005076944,0.00020417166943661867
1772618911228726800,4.152726806640625,-0.016625556108355522,-0.0017970942835323512,0.006215248652501031
1772618911238758000,4.1627578125,-0.005702595555782318,-0.008976557458844035,-0.00011050203661434352
1772618911248788000,4.1727880859375,-0.003158171769976616,0.004779745089821518,0.004546265127509832
1772618911258818800,4.18281884765625,0.006268997266888618,0.004468322786781937,0.0063166449340526015
1772618911268849000,4.192848876953125,-0.0015104045629501341,0.010404106043931096,0.0011452153792139142
1772618911278880000,4.2028798828125,0.003573182311654091,0.0015696239368990063,0.003013064210861921
1772618911288909800,4.212909912109375,-0.006452537140250206,-0.007439173557423055,-0.006334564183233305
1772618911298941000,4.22294091796875,0.0035749358773231503,-0.01063177731996402,0.003759562596073374
1772618911308971000,4.232970947265625,0.012404139021039009,-0.0010596103218384087,0.009945904814498498
1772618911319001900,4.243001953125,0.002978139027953148,0.006547722876723856,-0.00675463449251838
1772618911329032000,4.253031982421875,0.0037257425248622893,0.004219188597612083,0.00742573868711479
1772618911339063000,4.26306298828125,0.0008808744877576828,0.011335377278365194,0.01114136167676188
1772618911349094000,4.273093994140625,-0.0003115501672029495,-0.003698817985318601,-0.005370651054522022
1772618911359124000,4.2831240234375,-0.010037994411587715,0.0012139058344066143,0.0005969155803788453
1772618911369154800,4.29315478515625,-0.002856558474898338,-0.0038261706920340653,0.006702812973735854
1772618911379185000,4.303184814453125,-0.020365911680459974,0.0005056844998151064,0.001768571441946551
1772618911389216000,4.313216064453125,-0.01483399651646614,0.00841910623917356,0.0014839366811327636
1772618911399245800,4.323245849609375,-0.0010679214924573899,0.013540924498625099,-0.0035904622400179504
1772618911409276700,4.333276611328125,-0.015432546931505203,0.0009067213150672614,0.002580682409275323
1772618911419306800,4.343306640625,-0.009146014007925987,-0.0006186250886879861,0.017369953868025912
1772618911429337900,4.353337890625,-0.011689853271842002,-0.00299854249516502,0.0012577997750602662
1772618911439367700,4.36336767578125,-0.004054243826866149,0.004009199108742177,-0.0035531259043142197
1772618911449398800,4.373398681640625,-0.004353519034385681,-0.014424210139177739,-0.004977304355381056
1772618911459428900,4.383428955078125,-0.01407937875688076,-0.003537215949129313,0.008026882918039336
1772618911469459700,4.393459716796875,-0.006595745003223419,-0.000044679391942918296,0.019917839119397103
1772618911479489800,4.40348974609375,-0.009440613040328026,-0.0066159475410357115,0.0028683402442373335
1772618911489521000,4.41352099609375,-0.011384732845425604,0.0032012437267228957,0.011396405016910284
1772618911499550700,4.42355078125,-0.007339841368794441,0.008100450477749108,0.0007933606010861695
1772618911509581800,4.433581787109375,-0.005394552519917488,0.004397960964310914,-0.006885156403854489
1772618911519612000,4.44361181640625,-0.0025502690047025677,-0.000539349307399243,0.0013207820086739957
1772618911529642800,4.453642822265625,0.0097205990254879,-0.0018596015931107103,0.003964136124309152
1772618911539672800,4.4636728515625,-0.017367314386367797,0.0060608892078511415,-0.008484545291354879
1772618911549704000,4.473703857421875,-0.0033037177205085754,0.0037544206300750373,0.004813473829487339
1772618911559734800,4.48373486328125,0.0034299744486808773,-0.011349168341699988,0.017891182996844873
1772618911569764900,4.493764892578125,-0.007646130838990211,-0.009833722277451306,0.001504888137616217
1772618911579795700,4.503795654296875,-0.006601005700230598,-0.007524111894518137,0.0021493600536137817
1772618911589825800,4.51382568359375,-0.005853986725211143,0.002038611421827227,0.0018807539789937435
1772618911599857000,4.52385693359375,-0.011090718334913253,0.012801339911390095,-0.0009433361315634101
1772618911609887000,4.533886962890625,-0.0015139116942882538,0.0017348244359716772,0.006693542821891605
1772618911619917800,4.543917724609375,-0.005103460618853569,-0.0017892580369487405,0.002670205589942634
1772618911629948000,4.553947998046875,-0.005251344656944275,-0.014585574713349342,-0.0006244429081212729
1772618911639979000,4.56397900390625,-0.004055412870645523,0.0017830292255617676,-0.0012259433320723472
1772618911650008800,4.5740087890625,-0.001662380254268646,0.004033986490126699,-0.0007430551859550177
1772618911660040000,4.5840400390625,0.008364508241415023,0.001133588873501867,-0.002564717655163258
1772618911670070000,4.594070068359375,0.007613982135057449,0.004399239605944604,-0.00025325324186123904
1772618911680100900,4.604100830078125,-0.00016834230422973633,0.001182506049145013,-0.004052654657978564
1772618911690131000,4.614130859375,-0.0013660276561975478,0.0009324768108315766,0.001344290748424828
1772618911700162000,4.624162109375,-0.002265606844425201,-0.00004208557605743408,-0.0022089082211256025
1772618911710191600,4.634191650390625,-0.003914543095231056,0.002460508362017572,0.007011175670009106
1772618911720223000,4.644222900390625,-0.002867079868912697,0.008322879323083907,-0.0071561096991878
1772618911730252800,4.654252685546875,0.0010246668726205826,-0.0013030271562747657,0.004526692777359858
1772618911740283600,4.66428369140625,-0.000021627309918403625,-0.0066155456822365516,0.0007492657310329377
1772618911750313700,4.674313720703125,-0.006903788039088248,0.0018381752125918864,0.005901643525529653
1772618911760344800,4.6843447265625,-0.010047346761822699,0.007813176235277206,-0.0038058585563674565
1772618911770374700,4.694374755859375,-0.010046762239933013,-0.0005704750980250537,0.0039900468837004155
1772618911780405800,4.70440576171875,-0.002859481084346771,0.005077504193689674,0.00553478297451511
1772618911790435800,4.714435791015625,-0.010039747977256774,0.002219886272866279,0.014870876194443553
1772618911800466700,4.724466796875,0.010759878945350645,-0.011805990464799106,0.008412685631541534
1772618911810497800,4.734497802734375,0.004921674311161041,-0.0005623100578784942,0.003927064650086686
1772618911820527900,4.74452783203125,-0.0010655834048986434,0.006848514187894761,0.009320466392533854
1772618911830558700,4.754558837890625,-0.006153261932730674,-0.008137348422035574,-0.006578711670031771
1772618911840588800,4.7645888671875,-0.00869359406530857,-0.00860244518313557,-0.017725936831999568
1772618911850620000,4.774619873046875,0.006870470291376113,0.00040169440237805245,0.009565207534376532
1772618911860649700,4.784649658203125,-0.005250175613164902,-0.007727324582729488,0.01140197624117136
1772618911870680800,4.794680908203125,0.002229366487264633,-0.0037749336951412257,-0.0009613375791348517
1772618911880711000,4.8047109375,-0.0010632453173398972,-0.0002952931521460414,-0.002139267917862162
1772618911890741800,4.81474169921875,-0.014981880554556846,-0.012010700990352778,0.0014728124989196658
1772618911900771800,4.824771728515625,-0.015727730485796926,0.0013843852967955171,-0.011482978188665583
1772618911910803000,4.834802978515625,-0.0019616554617881772,-0.006181574711762368,-0.0010809088381938635
1772618911920832800,4.844832763671875,-0.02216214744746685,0.0012947890508919954,-0.002531801766250282
1772618911930863900,4.85486376953125,-0.01797112549841404,0.0005190919706597924,-0.00469865181078203
1772618911940894000,4.86489404296875,-0.008546879070997238,-0.0025936514887027443,-0.011006464984407648
1772618911950924800,4.8749248046875,0.0026730186015367506,0.008365184094849973,0.0014713694605045019
1772618911960955000,4.884954833984375,-0.00900339066684246,-0.0007348901458084583,0.014593621022487058
1772618911970986000,4.894986083984375,-0.006156769064068794,0.0063201794648543,0.003725998253189027
1772618911981015800,4.905015869140625,-0.003762567403912544,0.0040398317090235645,-0.001417018057918176
1772618911991047000,4.915046875,-0.013787117812037467,0.00329281273400411,0.02141529286922887
1772618912001077000,4.925076904296875,-0.010196984365582466,-0.007709734127111733,0.009497777454508468
1772618912011107800,4.93510791015625,0.008655015620589256,-0.004945201317220926,-0.005097231807466596
1772618912021138000,4.945137939453125,-0.0003191489517688751,-0.008323701306991279,0.009735011143330485
1772618912031168500,4.95516845703125,-0.0024129063606262205,-0.010917882518656552,0.0004748144375160336
1772618912041199400,4.965199462890625,0.0025227964758872986,-0.006790719586052,0.0038853444002103056
1772618912051229200,4.975229248046875,-0.014386837270855903,-0.0018006744801066816,0.008433125631371512
1772618912061260500,4.985260498046875,-0.01618424208164215,-0.00025463234819471836,0.012258547404734418
1772618912071290400,4.995290283203125,-0.009453472521901131,-0.0049134544720873235,0.006603864377597347
1772618912081321200,5.0053212890625,-0.0010725976675748825,-0.001370612499769777,0.014192657272471114
1772618912091351300,5.015351318359375,-0.007356792503595352,-0.0019822598583996293,0.008731268327729776
1772618912101382100,5.025382080078125,0.008353402325510979,-0.0075487531454302365,0.01568229304202832
1772618912111412200,5.035412109375,-0.014395605099201202,0.004557078782469034,0.0023190083989407867
1772618912121443300,5.045443359375,-0.0054179333955049515,-0.0006911058030091225,0.015374560533417387
1772618912131473400,5.055473388671875,-0.008111410263180732,-0.0038510676712729033,0.002890725605981424
1772618912141504300,5.065504150390625,0.0056564183264970775,0.004347856478579342,0.009840389480255543
1772618912151534300,5.075534423828125,0.003266308319568634,-0.011591123871412128,-0.007622503368230536
1772618912161565200,5.085565185546875,-0.0033212533771991726,0.0027411154016852377,0.006940137994103133
1772618912171595300,5.09559521484375,-0.01738543456494808,-0.0035233335542492568,0.006188561574975028
1772618912181626400,5.10562646484375,-0.001076104798913002,-0.006744158764276653,0.0016019370376132427
1772618912191656400,5.115656494140625,-0.000775076025724411,-0.005961867546476423,-0.002352015619399026
1772618912201687300,5.125687255859375,-0.006760580176115035,-0.00133161392994225,0.008073617269750684
1772618912211717400,5.13571728515625,-0.0018266309052705765,0.005998802023380994,0.015353673009015618
1772618912221748500,5.14574853515625,-0.007664251017570495,0.013550441245641559,-0.0005103058760054409
1772618912231778300,5.1557783203125,-0.00796294170320034,-0.005633329711854458,0.003225857578171417
1772618912241809400,5.165809326171875,-0.014550503399968146,-0.012413418306037783,0.009217060816986486
1772618912251840300,5.17584033203125,-0.00871931302845478,0.020079459421895443,0.008407781127560883
1772618912261870300,5.185870361328125,0.0062421092599630355,0.009534520135167986,0.01611862949952483
1772618912271901400,5.1959013671875,0.003994038072228432,-0.01739588289372623,0.007323429090110585
1772618912281931500,5.205931640625,0.0009995324313640593,-0.009933072732388974,0.005917416483396664
1772618912291962400,5.21596240234375,-0.014707739788293837,-0.0015920366981066762,-0.0026264212471432983
1772618912301992400,5.225992431640625,-0.005427870267629623,0.002592500711232424,-0.00046643933481536805
1772618912312023300,5.236023193359375,-0.005279986229538917,-0.0007603716469369829,-0.002523307932540774
1772618912322053400,5.246053466796875,-0.012916180196404456,0.005076134220510721,-0.009383585623465477
1772618912332084500,5.25608447265625,-0.007528057417273521,0.004127838786039501,0.0012343367010820656
1772618912342114600,5.266114501953125,-0.005132686713337898,0.00044721404453739523,-0.0051460576515644785
1772618912352145400,5.2761455078125,0.007138181316852569,-0.0004924231594428419,0.0028730529519729315
1772618912362175200,5.28617529296875,-0.007226444122195244,-0.001640223221387714,0.005679479541676118
1772618912372206300,5.296206298828125,-0.014256488889455795,0.0045223362626507875,0.011523958653025329
1772618912382236200,5.306236083984375,0.007738485297560691,0.0029674715034663677,0.008593494691699743
1772618912392267300,5.316267333984375,0.004890110129117965,0.010422646347619592,0.007924774250434712
1772618912402298400,5.32629833984375,0.0033908114820718764,0.0021540910276584327,0.013319938691705465
1772618912412328200,5.336328125,0.004588496834039688,-0.003567812016792595,0.0028086276799440383
1772618912422359300,5.346359375,-0.0033434652090072628,0.0002313245378434658,0.010291978305811062
1772618912432389400,5.356389404296875,0.003091536274552345,0.009700560884457081,0.005362312484439462
1772618912442420200,5.366420166015625,-0.003786532801389694,-0.000056168900337070226,-0.005432500776974484
1772618912452450300,5.3764501953125,0.00010930559337139129,-0.0021762845931574703,0.0038347375909797846
1772618912462481200,5.386481201171875,-0.006321604236960411,0.009838800311367957,-0.0038844584842212494
1772618912472511200,5.39651123046875,0.00684884298145771,0.011960395575221628,0.013001977050025015
1772618912482542300,5.406542236328125,-0.00855856950879097,-0.0005200052861124277,0.0008741342197172344
1772618912492572400,5.416572509765625,-0.015441314759850501,0.003193042153958231,-0.00003431326155550778
1772618912502603300,5.426603271484375,-0.010055530068278312,-0.004727247717604041,-0.004451106790499762
1772618912512633300,5.43663330078125,-0.01693944436311722,0.004077460305672138,0.013842912253038957
1772618912522664200,5.446664306640625,0.0002688800692558288,0.0033192258168943225,-0.008017238306859508
1772618912532694300,5.4566943359375,-0.01035363623201847,0.0005568118988536298,-0.006384248543856665
1772618912542725400,5.466725341796875,-0.0021229835033416745,0.007531838543247431,0.01868327408945188
1772618912552755500,5.47675537109375,-0.0010766893208026885,0.012093429104052483,0.00016784911388531326
1772618912562786300,5.486786376953125,-0.011698036578297615,0.003934453372098505,0.004966508966730908
1772618912572816400,5.49681640625,-0.011546645408868789,0.00487677572350949,0.0142058912133798
1772618912582847200,5.50684716796875,-0.00032557869255542754,0.005607318487763404,0.00940145920687355
1772618912592878300,5.51687841796875,-0.005562310302257538,0.0017235723895952105,-0.010435231834556908
1772618912602908400,5.526908447265625,-0.006609773528575897,0.0010353526634164154,0.012467650977615267
1772618912612939300,5.536939208984375,0.0011707973450422286,0.007978285402804612,0.00045007272190414365
1772618912622969300,5.54696923828125,0.003416530445218086,-0.002234828113671392,0.00602135178190656
1772618912633000400,5.55700048828125,0.0001274257719516754,0.0023417956194840372,0.010617648329911753
1772618912643030500,5.567030517578125,0.006108253747224807,-0.013937869660649449,0.0029584114141762256
1772618912653061400,5.577061279296875,-0.010802549043297766,-0.0034150691404938698,-0.00469932766421698
1772618912663091500,5.587091552734375,-0.00706102442741394,-0.007802508710790425,0.00018209683494642377
1772618912673122300,5.597122314453125,-0.00047580081820487974,-0.009617558776121585,-0.0025968937585595995
1772618912683152400,5.60715234375,0.00012450316250324248,0.01099321277718991,-0.006278769742231816
1772618912693183500,5.61718359375,-0.008256371691823005,0.004100311458297074,0.0019751451310236006
1772618912703213600,5.627213623046875,-0.008258125257492066,0.007932382168155163,0.010707007113797589
1772618912713244400,5.637244384765625,-0.009905892464518546,-0.010327716339472682,0.011514441906008869
1772618912723274200,5.647274169921875,-0.001976268509030342,-0.007910590461455286,-0.003201042797323316
1772618912733305300,5.657305419921875,-0.00916062705516815,-0.004571143840439617,0.001238647550018504
1772618912743335200,5.667335205078125,0.0007189619243144989,0.009709200848639011,0.004816706966189667
1772618912753365200,5.677365234375,0.0017670096725225448,-0.0012312040290795266,0.000800804122025147
1772618912763396400,5.687396240234375,-0.006166705936193466,-0.0022189546911045906,0.0006826393687631935
1772618912773426200,5.69742626953125,-0.012297171515226364,0.011380622925888746,0.0055454139663837845
1772618912783457300,5.707457275390625,-0.012148702955245972,0.008110478681419044,0.0033793311068322507
1772618912793487400,5.7174873046875,-0.011102408772706985,0.006091302612423896,-0.004649990363465622
1772618912803518200,5.727518310546875,-0.01140109945833683,0.0012877565219067035,0.0061283466871827836
1772618912813548300,5.73754833984375,-0.008859598281979561,-0.004618599711358547,0.007162813434610143
1772618912823579400,5.747579345703125,-0.007515197935700416,-0.0038022235608659682,0.003190822797408327
1772618912833610200,5.7576103515625,-0.005720715734362602,-0.016831581808160988,-0.0046828149208333345
1772618912843640300,5.767640380859375,-0.012002572482824325,0.010583992655482143,0.004443124413443729
1772618912853671400,5.77767138671875,-0.013199088791012763,0.0004097681109793484,0.01331794766401872
1772618912863701200,5.787701171875,-0.0025771570116281508,-0.00537498930292204,0.01274631265536882
1772618912873732400,5.797732421875,0.011336802050471306,-0.0018674013070762157,0.0023470928491093218
1772618912883762400,5.807762451171875,-0.012457330513000488,-0.0016602978950366377,-0.0054289114472456275
1772618912893793300,5.817793212890625,-0.004079378268122673,-0.00579624692229554,0.0027454536500852553
1772618912903823400,5.8278232421875,-0.00438099156320095,-0.007511818668525665,0.013911584441922604
1772618912913854500,5.8378544921875,0.004444119927287101,-0.0009396372039802372,0.002233101947465911
1772618912923884300,5.84788427734375,-0.0031897359520196913,-0.001671458609867841,0.00791839017542079
1772618912933915400,5.857915283203125,-0.011268412989377976,0.007913567869830876,0.008780824824189766
1772618912943945500,5.867945556640625,-0.003938508492708206,0.0014209179149009287,-0.0006412205129861831
1772618912953976300,5.877976318359375,-0.0178507139891386,-0.007803604689333587,0.017466016387334093
1772618912964006400,5.88800634765625,-0.009168225839734078,0.015372249845322221,-0.002768925857217982
1772618912974037500,5.89803759765625,0.0020540099203586576,-0.0027179537218064067,-0.008893418353190645
1772618912984067300,5.9080673828125,-0.012160977914929389,0.00045072117587551474,0.0052660947015043345
1772618912994098400,5.918098388671875,-0.011263152292370796,0.001956102503836155,-0.0054500912325922395
1772618913004128500,5.92812841796875,-0.015006430473923683,0.0019050847026519477,0.0027777667507994917
1772618913014159400,5.938159423828125,-0.00722527507841587,-0.00378887088894844,0.002278904717415571
1772618913024190500,5.9481904296875,0.011627893951535224,0.013666487107053399,-0.019921017457172275
1772618913034220800,5.958220703125,-0.010965630650520324,-0.009277787161432205,-0.013433445536158979
1772618913044251600,5.968251708984375,-0.021587562429904936,-0.0023793694172054526,-0.00032435484984889623
1772618913054281700,5.97828173828125,-0.0019873744249343872,0.004850417439546436,0.0043580125464126465
1772618913064312600,5.9883125,-0.012909750455617904,-0.005007525963708758,0.00465665756626986
1772618913074342400,5.99834228515625,0.0035480478703975677,-0.002464271221682429,0.003719915572274476
1772618913084373500,6.00837353515625,-0.006176642808318138,0.0037540370375849304,0.0017914317277260123
1772618913094403600,6.018403564453125,-0.013358078745007515,0.008534037855733185,0.00505394978816621
1772618913104434400,6.028434326171875,-0.007973463097214698,-0.008421024201624095,0.0035479474056977775
1772618913114464500,6.038464599609375,-0.012014262920618057,0.006747702428232878,-0.0003738839468453079
1772618913124495600,6.04849560546875,-0.0173977095246315,-0.014335545475035905,-0.001834805078571662
1772618913134525400,6.058525390625,0.0060942252218723295,0.008936992633435874,0.012408860861929133
1772618913144556500,6.068556640625,-0.000339022696018219,0.004396298730187118,0.002528632561629638
1772618913154586600,6.078586669921875,-0.006171382111310958,-0.005621219148952514,0.0028897300921380516
1772618913164617500,6.088617431640625,-0.0025800796210765837,0.006924301104154438,-0.005901442596130073
1772618913174647600,6.0986474609375,-0.003326514074206352,0.00941836467590183,-0.003863607492437586
1772618913184678700,6.1086787109375,-0.000633037206530571,0.0024202128842473027,0.013713175792992114
1772618913194708500,6.11870849609375,-0.014548749834299086,0.00540934823025018,0.004642985233943909
1772618913204739600,6.128739501953125,0.0004132569760084152,-0.003659709817636758,0.009715329195326194
1772618913214769700,6.138769775390625,-0.02248012735545635,0.011032357477489858,0.0013113291937392204
1772618913224800500,6.148800537109375,-0.002727379137277603,-0.007062686661537736,0.00332967414567247
1772618913234831600,6.15883154296875,0.004455225843191146,0.004191405541542917,0.021342154567781834
1772618913244861700,6.16886181640625,-0.012753098589181899,0.006321859965287149,0.015627603712724522
1772618913254892500,6.178892578125,-0.006167874979972839,-0.007903612731397152,0.01582405786658637
1772618913264922600,6.188922607421875,-0.022178514060378074,-0.005064699511043727,-0.0038358975016046315
1772618913274953700,6.19895361328125,-0.0070651160806417465,0.0010360285168513656,-0.006157938107848167
1772618913284983600,6.208983642578125,0.0020610241830348965,0.004860555241070688,-0.0020973650048952547
1772618913295014700,6.2190146484375,-0.0034790742874145505,0.0006762370274402201,-0.012855773512367158
1772618913305044700,6.229044677734375,-0.010814239481091498,-0.0032303784896619615,0.0015150990043766796
1772618913315075600,6.23907568359375,-0.020544190856814384,-0.0012962686219252645,0.004500690686423331
1772618913325105700,6.249105712890625,0.0038432314246892928,-0.0077287858874537044,0.0037166915687266737
1772618913335136800,6.25913671875,-0.010672785183787345,0.0007165507715195417,0.0024240031433757393
1772618913345166600,6.26916650390625,-0.006929507002234459,-0.013449976545851677,0.006780700515536591
1772618913355197700,6.27919775390625,-0.0003419453054666519,-0.010748097176011651,0.01772330648349598
1772618913365227800,6.289227783203125,0.008485504272580146,-0.002508603553753346,0.004325955174025148
1772618913375258600,6.299258544921875,-0.01036883380115032,-0.013406155670434235,0.01408766252803616
1772618913385288400,6.309288330078125,-0.011118775385618208,-0.0162153130733408,0.005765185063751414
1772618913395319800,6.31931982421875,-0.00348608855009079,0.001252539078053087,0.009393705158680677
1772618913405350700,6.3293505859375,0.0015986673682928084,-0.004927062872331589,0.016802026920113712
1772618913415380500,6.33938037109375,-0.01620996104478836,-0.003173314540181309,0.006278139554569497
1772618913425411600,6.34941162109375,0.01267068100273609,-0.008111227600090205,0.004554019175702705
1772618913435441400,6.35944140625,0.0013005612045526504,0.004957859869394451,0.008694735709624365
1772618913445472500,6.369472412109375,-0.001986205381155014,0.0003200622672215104,0.0045415432866197075
1772618913455502600,6.379502685546875,-0.03191840230822563,0.007535656201839446,0.021001314374012873
1772618913465533400,6.389533447265625,-0.019500234761834143,0.009602525603771209,0.002685786751564592
1772618913475563500,6.3995634765625,0.006386486166715622,-0.0012771620626561343,-0.0009764986156485974
1772618913485594600,6.4095947265625,-0.0009428338080644607,-0.00944496042188257,0.005971950549073517
1772618913495624400,6.41962451171875,-0.007528057417273521,0.005287968606594949,0.023095026117097586
1772618913505655600,6.429655517578125,0.0014496142864227294,0.00936752953780815,0.013423088538926094
1772618913515685600,6.439685546875,0.00982990461885929,-0.00079984514079988,-0.0019438732099253684
1772618913525716500,6.449716552734375,-0.009323708662390708,0.0020821035036817192,-0.00016427805046550928
1772618913535746600,6.45974658203125,0.0038449849903583523,-0.0026070406932383774,0.0005091733648441731
1772618913545777700,6.469777587890625,-0.006180734461545944,0.004957932934630662,-0.007084295705147087
1772618913555807500,6.479807373046875,-0.005433130964636802,-0.0028975115397945044,-0.0043324488468933844
1772618913565838600,6.489838623046875,0.0030927053183317185,-0.01166479189582169,0.006663220748864114
1772618913575869400,6.499869384765625,-0.016063830572366714,-0.0017064568580128251,-0.00226360668358393
1772618913585899500,6.5098994140625,-0.015171850168704986,-0.0022153744945302605,0.006714594743074849
1772618913595930600,6.5199306640625,0.0014361702829599379,0.0029372224956750867,0.007729489140352234
1772618913605960700,6.529960693359375,-0.00035831191837787623,-0.017060349062737075,-0.01019151360602118
1772618913615991600,6.539991455078125,-0.00544715948998928,-0.004153302020858973,-0.007371323352446779
1772618913626021600,6.550021728515625,-0.0024555764585733413,0.010337689744215457,0.009180071541154756
1772618913636052700,6.560052734375,-0.0009603694647550582,0.012603296588640659,0.005552272965433076
1772618913646082600,6.57008251953125,0.007268529698252677,0.0006188442843966186,-0.009449645730154587
1772618913656113700,6.58011376953125,-0.00769581519961357,-0.0020067184462212026,-0.016085841474775223
1772618913666143700,6.590143798828125,-0.004401449829339981,-0.003114551823958754,-0.0029576624955050647
1772618913676174600,6.600174560546875,-0.0009603694647550582,0.005442099722381681,-0.004124468652019277
1772618913686204700,6.61020458984375,-0.005751110872626304,0.0021434052368625995,0.00013194668344222008
1772618913696235800,6.62023583984375,-0.00395662867128849,0.022172778439335523,-0.005034633166342973
1772618913706265600,6.630265625,-0.011738368588685988,-0.006209083773195743,-0.005891734052868559
1772618913716296700,6.640296630859375,-0.012782324683666229,-0.00293373363064602,0.009179541818192229
1772618913726326800,6.650326904296875,0.0011328034222126005,0.006936959656327963,-0.003515935699082911
1772618913736357600,6.660357666015625,-0.006644844841957092,-0.0058882177883759134,0.00512854939433746
1772618913746387500,6.670387451171875,0.006076105043292045,-0.00748471146589145,-0.0015177841518074274
1772618913756418800,6.680418701171875,0.014753917017579077,0.010518599269073456,-0.004793472221074626
1772618913766449700,6.69044970703125,-0.0017038813084363936,0.0008711202787235379,-0.0010114968637935818
1772618913776479500,6.7004794921875,0.0011398176848888397,-0.007981938664615154,0.00780915764728561
1772618913786510600,6.710510498046875,0.00158814597427845,0.008934435350168496,0.00012943506594747305
1772618913796540400,6.72054052734375,0.0018856676161289215,-0.010896255208738147,-0.0022721096504479646
1772618913806571500,6.730571533203125,-0.0020078326910734174,-0.0022816081311553714,-0.00681255695852451
1772618913816601600,6.7406015625,-0.010239654463529587,-0.016752653086744246,0.0023657153511885552
1772618913826632400,6.750632568359375,-0.013535773399472236,-0.004860902300942689,-0.004744491113349795
1772618913836662500,6.76066259765625,-0.003809329155087471,-0.000876015649549663,-0.0012893365576397626
1772618913846693600,6.770693603515625,0.00008475567400455475,0.0019640118156559762,-0.010290443935850635
1772618913856723500,6.780723388671875,0.001129296290874481,0.01792049128971994,-0.005278159598633646
1772618913866754600,6.790754638671875,-0.0030628947019577025,-0.00390714524006471,0.004565444752015173
1772618913876784600,6.80078466796875,0.009506079491972923,0.011028740748297423,-0.011425978171266615
1772618913886815500,6.8108154296875,-0.006660042411088943,-0.009628390697389841,-0.011197293115081264
1772618913896845600,6.820845458984375,0.00007072714865207672,0.0027736659644171592,-0.00025666904165409505
1772618913906876700,6.830876708984375,-0.013549801924824714,0.0038241613980382677,0.0030511768647003916
1772618913916906500,6.840906494140625,-0.007262099957466125,0.008150244436226785,0.006398067006655037
1772618913926937600,6.8509375,-0.01279576868712902,0.008127411549910903,0.012287106778938323
1772618913936968400,6.860968505859375,-0.012343348744511604,-0.00365344447363168,0.0030915819403249767
1772618913946998500,6.87099853515625,-0.012944237247109412,-0.005201441100612283,-0.00722810635631904
1772618913957029600,6.881029541015625,0.011150924089550972,-0.004385412009991705,0.0008288885721936821
1772618913967059700,6.891059814453125,-0.011596914291381835,0.007413363262731581,0.0084597031110432
1772618913977090600,6.901090576171875,-0.005458849927783012,0.00259173352625221,0.011632679724507032
1772618913987120600,6.91112060546875,0.002024199303984642,-0.0011808986139483749,-0.006270138911204412
1772618913997151500,6.9211513671875,0.00037760114073753353,-0.00021605390347540377,0.0017477478496264666
1772618914007181600,6.931181640625,-0.0011187748968601225,-0.0060271330687217415,-0.0020722031641751525
1772618914017212700,6.941212646484375,0.0005295768320560455,0.005532243957556784,-0.005372925209999084
1772618914027242800,6.95124267578125,-0.01622691217958927,0.007961462132167071,0.01064560491591692
1772618914037274400,6.9612744140625,-0.019370470902323723,0.008753379694838076,-0.00448792253639549
1772618914047304200,6.97130419921875,0.0026268413722515104,0.0018138262226246296,-0.003970675462950021
1772618914057335300,6.981335205078125,-0.014136661902070045,0.008387213263567537,-0.014672202684031799
1772618914067365000,6.991365234375,0.00800736536681652,-0.005069138224143534,-0.003615998540073633
1772618914077396200,7.001396240234375,-0.008305471530556678,0.000840505944751203,-0.003843962077051401
1772618914087426300,7.01142626953125,0.005015197813510895,0.015058489454723894,0.017397426396841182
1772618914097457200,7.02145703125,-0.007401800689101219,0.007167699672281742,0.006034713586978614
1772618914107488300,7.03148828125,0.00561842440366745,0.011258823177125303,0.011516834792494773
1772618914117518000,7.04151806640625,-0.011290040299296379,0.012294395036250351,0.008854748576926067
1772618914127549200,7.051549072265625,-0.010244330638647079,-0.005481116558518261,0.005151007821317762
1772618914137579300,7.061579345703125,0.012951251509785652,0.004682111667934805,-0.003549326512031257
1772618914147610000,7.071610107421875,-0.005908347260951996,0.003981543916836381,0.00104220252931118
1772618914157640200,7.08164013671875,-0.0035170682102441788,-0.0075809383819811045,0.017637299567321314
1772618914167671300,7.09167138671875,-0.0014221417576074599,-0.007800024492759257,0.011338720012921839
1772618914177701000,7.101701171875,-0.011449614775180816,0.008306074318755418,0.00043887547445483504
1772618914187732200,7.111732177734375,-0.014292729246616363,0.009181267984397709,-0.0049828938459511845
1772618914197762300,7.12176220703125,-0.006211714121699333,-0.007585212698299437,0.009391312272194773
1772618914207793200,7.131793212890625,0.0003717559218406677,-0.012035470105428247,-0.001772553497320041
1772618914217823200,7.1418232421875,-0.018185645031929015,0.004689418191555887,-0.008621770938113331
1772618914227854300,7.151854248046875,-0.010257190120220184,-0.002536112615186721,0.0011462748251389711
1772618914237884200,7.16188427734375,-0.004573883786797523,0.007584299382846802,0.015855594649165868
1772618914247915300,7.171915283203125,-0.015348375779390334,-0.0085959058444947,-0.0036736196119803934
1772618914257945300,7.1819453125,-0.013698270484805106,-0.005347498507797718,0.008067388458363712
1772618914267976200,7.19197607421875,0.0006651859104633331,-0.012580755963269621,-0.00698487218497321
1772618914278007300,7.20200732421875,-0.0012830255478620527,-0.005632946119364351,0.00010107662114314734
1772618914288037400,7.212037353515625,0.0026063831061124802,0.0074330178112722925,0.0005415686639491468
1772618914298068200,7.222068115234375,-0.0060737669557332985,-0.0031503720560111105,-0.0009871204743627459
1772618914308098300,7.232098388671875,-0.0075683894276618955,0.005601710730884224,-0.0030994821189902723
1772618914318129400,7.24212939453125,-0.007416413736343383,-0.015343297745473682,-0.006079959234502166
1772618914328159200,7.2521591796875,0.009192191237211227,0.005915617251954972,0.012527244810899719
1772618914338190300,7.2621904296875,0.005904255607724189,-0.0007113631397485733,-0.009366716687055304
1772618914348220400,7.272220458984375,-0.002474281159043312,-0.002522650345414877,0.01569882405172102
1772618914358251300,7.282251220703125,-0.013245266020298003,0.019381759481318293,0.013862110143853352
1772618914368281300,7.29228125,0.0036620296388864514,-0.005667104117292911,0.0026572456436697394
1772618914378312400,7.3023125,0.011292378386855125,0.00035069486750289794,0.008789574386226013
1772618914388342000,7.312342041015625,-0.001129296290874481,0.0022279234488494695,-0.004097745041875168
1772618914398373400,7.322373291015625,-0.009514262798428534,0.009216430629324167,0.003352424833597615
1772618914408403200,7.3324033203125,-0.008765490257740021,0.0012703669956885277,0.0035171778080984946
1772618914418434000,7.34243408203125,-0.009964344653487205,-0.0038533144272863864,0.0018034235596191136
1772618914428464000,7.352464111328125,0.0038011458486318585,-0.0005243526676669717,0.01748188067674637
1772618914438495200,7.3624951171875,-0.010260112729668617,-0.004131345917377621,0.025628535783244297
1772618914448526000,7.372526123046875,-0.010708441019058226,-0.00011173501247540115,-0.006052559770923107
1772618914458556200,7.38255615234375,-0.0035281741261482236,0.005401511983666569,0.0019354250419884918
1772618914468587300,7.392587158203125,-0.013399579799175262,-0.007648249730840325,0.011668271627696231
1772618914478617000,7.4026171875,-0.0202776488751173,-0.00657057402934879,0.011620523495832457
1772618914488648200,7.412648193359375,-0.005465864190459251,-0.0019946809485554694,-0.0018653554804623127
1772618914498678300,7.42267822265625,-0.00696340927183628,-0.006315156229864806,0.006741674546245485
1772618914508709000,7.432709228515625,0.002613397368788719,-0.004409687934722751,-0.00833198507814668
1772618914518739200,7.4427392578125,-0.0023217209458351136,0.004228796676173806,0.004970938546676188
1772618914528770300,7.452770263671875,-0.011150339567661285,-0.007752185029350221,0.012027469462063163
1772618914538800000,7.462800048828125,0.006205868902802467,-0.007120316866599023,-0.0014298136074095964
1772618914548831200,7.472831298828125,-0.0017290157496929167,0.0012677549134939908,0.01051443455060944
1772618914558861300,7.482861328125,-0.00741699825823307,0.0080139777706936,-0.00041533933524042367
1772618914568892200,7.49289208984375,-0.002029460000991821,0.00552985107107088,-0.020897881399001925
1772618914578922200,7.502922119140625,-0.004427753314375877,-0.011373334668576717,0.00704840240785852
1772618914588953300,7.512953369140625,0.0055979661375284194,0.0025677498624660073,0.004274919106531888
1772618914598984200,7.522984130859375,-0.007720365118980407,-0.00564839941682294,0.013200239568483084
1772618914609014300,7.53301416015625,0.00694295100569725,-0.00775676987292245,0.010056151122786103
1772618914619045400,7.54304541015625,-0.003082768446207046,-0.0005884674124419689,0.010008138129441067
1772618914629075200,7.5530751953125,-0.00891629690527916,0.008147668886650352,-0.010154843990597873
1772618914639106300,7.563106201171875,-0.014299743509292601,0.0006557787613011896,-0.0044933019644115115
1772618914649136400,7.573136474609375,0.004251812225580215,-0.001055737864319235,-0.001192808247450739
1772618914659167200,7.583167236328125,-0.00158814597427845,-0.007684709283709526,0.0033926289798226206
1772618914669197300,7.593197265625,-0.006976268753409385,0.006749748254846781,-0.0036320272262673823
1772618914679228400,7.603228515625,-0.014156535646319388,-0.0030544556671753525,-0.004924733917927369
1772618914689258200,7.61325830078125,-0.016997896552085875,0.0025450265740044413,0.001335723849479109
1772618914699289300,7.623289306640625,-0.003677811729907989,0.010879888595826923,0.004263959321100265
1772618914709319400,7.6333193359375,-0.0030798458367586132,0.007932345635537057,0.007626138363732025
1772618914719350300,7.643350341796875,-0.008017302238941192,0.006286149331089109,-0.009389549573371186
1772618914729380400,7.65338037109375,-0.019865560942888258,-0.0006785020497627556,-0.01007526681520976
1772618914739411500,7.663411376953125,-0.16770751345753668,0.016032522118650375,-0.06657988364635967
1772618914749441000,7.67344091796875,0.32317280045747754,-0.010709902323782444,0.11774714890439063
1772618914759472400,7.683472412109375,-0.15938742887973784,0.01421655873786658,-0.04282942582783289
1772618914769503200,7.693503173828125,-0.019524200159311292,0.008776870168279856,-0.022641446263855322
1772618914779533000,7.703532958984375,0.22722587035298347,-0.007969535840768366,0.07957998839970677
1772618914789564400,7.713564453125,-0.14214929383099079,0.021482549419160932,-0.06738923640102147
1772618914799594200,7.72359423828125,-0.1305062023103237,0.002606017779931426,-0.03602781952158548
1772618914809625000,7.733625,-0.04531096784472465,0.0015460969308391213,-0.01616972036594525
