time,seconds_elapsed,z,y,x
1772618907146307800,0.070307861328125,-0.003764460328966379,0.10180491954088211,0.024433311074972153
1772618907156338000,0.080337890625,-0.001966027542948723,0.05351914465427399,0.008592029102146626
1772618907166369000,0.090369140625,0.0012785820290446281,-0.10109856724739075,-0.020866133272647858
1772618907176399000,0.100399169921875,0.0007701846770942211,-0.059929024428129196,-0.013078251853585243
1772618907186430000,0.110429931640625,-0.0014624875038862228,0.034311048686504364,0.007573271635919809
1772618907196460000,0.1204599609375,-0.0033940784633159637,0.09628387540578842,0.02146911434829235
1772618907206491000,0.130490966796875,-0.0005435594357550144,0.023349354043602943,0.00520727876573801
1772618907216521000,0.14052099609375,0.0021672723814845085,-0.09203210473060608,-0.019781161099672318
1772618907226552000,0.150552001953125,0.0010509311687201262,-0.047954339534044266,-0.008980345912277699
1772618907236582100,0.16058203125,-0.00114484503865242,0.03796722739934921,0.007601827383041382
1772618907246613000,0.170613037109375,-0.001739483792334795,0.08893512934446335,0.01966775208711624
1772618907256643000,0.18064306640625,0.0009548361413180828,0.0028183567337691784,0.001752668060362339
1772618907266674000,0.190673828125,0.0014951766934245825,-0.08436796069145203,-0.016132239252328873
1772618907276704000,0.2007041015625,0.002121552126482129,-0.03918183967471123,-0.00865594856441021
1772618907286735000,0.210735107421875,-0.0010874643921852112,0.037823520600795746,0.008083177730441093
1772618907296765000,0.220764892578125,-0.0013409974053502083,0.08137047290802002,0.018039671704173088
1772618907306796000,0.230796142578125,-0.0010122782550752163,-0.003632195992395282,0.0008649945957586169
1772618907316825900,0.240825927734375,0.0046333568170666695,-0.07750801742076874,-0.018800053745508194
1772618907326857000,0.25085693359375,-0.00001541152596473694,-0.03378048166632652,-0.007456938736140728
1772618907336886800,0.26088671875,0.00029404787346720695,0.0385160855948925,0.011199835687875748
1772618907346918000,0.27091796875,-0.0019281208515167236,0.07221519201993942,0.016836341470479965
1772618907356948000,0.280947998046875,-0.002050892449915409,-0.008943838998675346,0.0003471135860309005
1772618907366978800,0.290978759765625,0.0014668535441160202,-0.06682341545820236,-0.016497483476996422
1772618907377009000,0.3010087890625,0.0013113250024616718,-0.02902756631374359,-0.00836711935698986
1772618907387040000,0.3110400390625,-0.0004412578418850899,0.0367133766412735,0.00897138100117445
1772618907397069800,0.32106982421875,0.0002908450551331043,0.06428348273038864,0.015724092721939087
1772618907407101000,0.331100830078125,0.0000632135197520256,-0.0014355299063026905,-0.0012594771105796099
1772618907417131000,0.341131103515625,0.002068041358143091,-0.06106796860694885,-0.013094298541545868
1772618907427161900,0.351161865234375,0.0000920458696782589,-0.032070059329271317,-0.005877457093447447
1772618907437192000,0.36119189453125,-0.000545781571418047,0.03209561109542847,0.006812771782279015
1772618907447223000,0.37122314453125,0.0006527774967253208,0.059274908155202866,0.012438127771019936
1772618907457252900,0.3812529296875,-0.0008921222761273384,0.008490558713674545,0.0017191704828292131
1772618907467284000,0.391283935546875,0.003406339790672064,-0.054094113409519196,-0.010425764136016369
1772618907477314000,0.40131396484375,-0.002791368868201971,-0.03527701646089554,-0.005253372248262167
1772618907487345000,0.411344970703125,0.0018970626406371593,0.021010924130678177,0.0062722088769078255
1772618907497375000,0.421375,-0.0018729083240032196,0.05286445841193199,0.011693338863551617
1772618907507406000,0.431406005859375,-0.0011880621314048767,0.015496490523219109,0.0025033713318407536
1772618907517436000,0.441435791015625,-0.0004093535244464874,-0.04431411251425743,-0.010408698581159115
1772618907527467000,0.451467041015625,0.0013312865048646927,-0.039644792675971985,-0.00863263662904501
1772618907537498000,0.461498046875,0.0009853420779109001,0.011190159246325493,0.003226952161639929
1772618907547528000,0.47152783203125,-0.001853330060839653,0.04602722078561783,0.00965031050145626
1772618907557559000,0.48155908203125,0.00013498589396476746,0.025240980088710785,0.0075666531920433044
1772618907567589000,0.491589111328125,0.0020922350231558084,-0.028141438961029053,-0.0043608020059764385
1772618907577620000,0.501619873046875,0.001945228548720479,-0.04045696184039116,-0.010313233360648155
1772618907587650000,0.511650146484375,0.0022004018537700176,-0.00616473751142621,-0.0029659224674105644
1772618907597681200,0.52168115234375,-0.0016537248156964779,0.03530121222138405,0.011992520652711391
1772618907607711000,0.5317109375,0.0005133533850312233,0.03358406946063042,0.004631829913705587
1772618907617742000,0.5417421875,0.0003514331765472889,-0.008602266199886799,-0.0039573973044753075
1772618907627772000,0.55177197265625,0.00259221694432199,-0.03832447528839111,-0.00743282213807106
1772618907637803000,0.561802978515625,0.000605232547968626,-0.02344113402068615,-0.005206685978919268
1772618907647832800,0.571832763671875,-0.0029726410284638405,0.019381258636713028,0.0053507424890995026
1772618907657864000,0.581864013671875,0.0015515375416725874,0.037832971662282944,0.008000587113201618
1772618907667893800,0.591893798828125,0.0004363451153039932,0.007185721769928932,0.0021567726507782936
1772618907677924900,0.6019248046875,0.0017498163506388664,-0.025352247059345245,-0.0073693543672561646
1772618907687955000,0.611954833984375,0.000802263617515564,-0.030650604516267776,-0.006693710573017597
1772618907697985800,0.62198583984375,-0.00263614347204566,0.0002580410800874233,0.0021314723417162895
1772618907708015900,0.632015869140625,-0.0022330908104777336,0.029688742011785507,0.008419050835072994
1772618907718047000,0.642046875,-0.0030895639210939407,0.023609545081853867,0.004716724622994661
1772618907728077000,0.6520771484375,0.0031903735361993313,-0.011959697119891644,-0.0007462377543561161
1772618907738108000,0.66210791015625,0.0011887417640537024,-0.0318782776594162,-0.009579143486917019
1772618907748138000,0.672137939453125,-0.0012469110079109669,-0.01237507164478302,-0.005118143744766712
1772618907758168800,0.6821689453125,-0.0028879507444798946,0.018879253417253494,0.004724632948637009
1772618907768199000,0.692198974609375,0.00033508287742733955,0.026716751977801323,0.008021831512451172
1772618907778230000,0.70222998046875,0.0008618561550974846,0.005809071008116007,0.0008542001014575362
1772618907788260000,0.712260009765625,0.00016095442697405815,-0.022061411291360855,-0.004629332572221756
1772618907798291000,0.722291015625,0.00041235703974962234,-0.02672727033495903,-0.0038847126998007298
1772618907808321000,0.732321044921875,0.0010724361054599285,0.002615063451230526,-0.0009313882328569889
1772618907818351900,0.742351806640625,-0.001960105262696743,0.022663339972496033,0.00437549315392971
1772618907828382000,0.7523818359375,-0.0017568282783031464,0.018129387870430946,0.005242290440946817
1772618907838413000,0.7624130859375,0.0009846296161413193,-0.008043627254664898,-0.0009218620834872127
1772618907848443100,0.772443115234375,0.002058447105810046,-0.023692332208156586,-0.004337798338383436
1772618907858474000,0.782473876953125,0.0028249048627913,-0.012893745675683022,-0.001037875423207879
1772618907868504000,0.792504150390625,0.00022493349388241768,0.010146120563149452,0.0021276595070958138
1772618907878535000,0.802534912109375,0.003068124409765005,0.019536426290869713,0.005199083127081394
1772618907888566000,0.81256591796875,-0.0005394010804593563,0.004777721595019102,0.0015766514698043466
1772618907898596000,0.82259619140625,0.00031360937282443047,-0.013471856713294983,-0.004138492047786713
1772618907908627000,0.832626953125,-0.0015919595025479794,-0.020390810444951057,-0.003936911001801491
1772618907918657000,0.842656982421875,-0.0007304269820451736,-0.0003422684967517853,-0.0008814661996439099
1772618907928688000,0.852688232421875,0.0015878444537520409,0.01902795024216175,0.005072375759482384
1772618907938718200,0.86271826171875,-0.002499575261026621,0.014199107885360718,0.003925885073840618
1772618907948749000,0.8727490234375,-0.0008001876994967461,-0.004877881146967411,-0.0011377426562830806
1772618907958779000,0.88277880859375,0.0005931779742240906,-0.020174279808998108,-0.002528711687773466
1772618907968810000,0.89281005859375,-0.0002483944408595562,-0.0120301004499197,-0.004220458213239908
1772618907978839800,0.90283984375,-0.00016557006165385246,0.005189633462578058,0.001578841358423233
1772618907988871000,0.912870849609375,-0.0012391465716063976,0.016434768214821815,0.005086204968392849
1772618907998901000,0.92290087890625,0.0005494323559105396,0.008982710540294647,0.0032821798231452703
1772618908008931800,0.932931884765625,-0.00007144967094063759,-0.01138683408498764,-0.0019213056657463312
1772618908018962000,0.9429619140625,0.0009908853098750114,-0.015042821876704693,-0.0028190570883452892
1772618908028993300,0.9529931640625,0.00044729793444275856,-0.004449879750609398,0.0009651920991018414
1772618908039023000,0.963023193359375,-0.0005303481593728065,0.012914730235934258,0.005247821565717459
1772618908049054200,0.97305419921875,0.00007542874664068222,0.010772354900836945,0.0011415306944400072
1772618908059084300,0.983084228515625,-0.00045454036444425583,0.00031891558319330215,0.0003311309264972806
1772618908069115100,0.993115234375,-0.001494081225246191,-0.010519443079829216,-0.005863582715392113
1772618908079145200,1.003145263671875,0.00017652008682489395,-0.010451799258589745,-0.0029937606304883957
1772618908089176000,1.013176025390625,-0.0002725357189774513,0.004419778008013964,-0.0009456260013394058
1772618908099206100,1.0232060546875,0.0011317492462694645,0.012680638581514359,0.005546095315366983
1772618908109237200,1.0332373046875,0.00006720656529068947,0.004689744208008051,0.0005982703296467662
1772618908119267300,1.043267333984375,0.0004983721300959587,-0.006421496160328388,-0.0021642267238348722
1772618908129298200,1.053298095703125,0.000842465553432703,-0.009722720831632614,-0.0021302225068211555
1772618908139328300,1.063328369140625,0.0018472764641046524,-0.0026522944681346416,-0.0008484429563395679
1772618908149359000,1.073359130859375,0.0006930623203516006,0.009156428277492523,0.0003081678878515959
1772618908159389200,1.08338916015625,0.0021836336236447096,0.00871594250202179,0.0007784821791574359
1772618908169420300,1.093420166015625,-0.0002755718305706978,0.0010678456164896488,-0.00038283830508589745
1772618908179450400,1.103450439453125,-0.0027650948613882065,-0.0088353855535388,-0.0019863275811076164
1772618908189481200,1.113481201171875,0.0005339430645108223,-0.00401968602091074,-0.002365419641137123
1772618908199511300,1.12351123046875,-0.0010983082465827465,0.0019993246532976627,-0.00016405072528868914
1772618908209542400,1.13354248046875,0.0010527530685067177,0.011588631197810173,0.0046837218105793
1772618908219573200,1.1435732421875,0.0008309115655720234,0.0011418485082685947,-0.000018622027710080147
1772618908229603300,1.153603271484375,0.0017743015196174383,-0.0042487806640565395,0.0003382014110684395
1772618908239634200,1.16363427734375,-0.0014925980940461159,-0.009646475315093994,-0.003546551801264286
1772618908249664300,1.173664306640625,0.00013550277799367905,-0.0020262310281395912,0.0006015475373715162
1772618908259695400,1.1836953125,-0.0012637223117053509,0.004186924081295729,0.0035565909929573536
1772618908269725400,1.193725341796875,-0.0007832804694771767,0.0028305756859481335,0.0005485506262630224
1772618908279756300,1.20375634765625,-0.0010685049928724766,-0.003946103621274233,-0.0013058084296062589
1772618908289786400,1.213786376953125,0.001257055439054966,-0.006922687403857708,-0.003078572452068329
1772618908299817200,1.223817138671875,0.0003020460717380047,-0.0056861815974116325,-0.000038307858631014824
1772618908309847300,1.233847412109375,-0.0018520359881222248,0.0028126072138547897,0.0021685108076781034
1772618908319878400,1.24387841796875,0.0019086138345301151,0.007876608520746231,0.0031887677032500505
1772618908329908500,1.253908447265625,-0.00008258363232016563,-0.00021185260266065598,0.0031628699507564306
1772618908339939300,1.263939208984375,-0.00021733948960900307,-0.004396477714180946,-0.00045716483145952225
1772618908349969200,1.27396923828125,0.002261036541312933,-0.008324513211846352,-0.00027530838269740343
1772618908360000300,1.284000244140625,0.000008800998330116272,0.0010229158215224743,0.0011276447912678123
1772618908370030000,1.294030029296875,0.0005294885486364365,0.0037578721530735493,0.005465625785291195
1772618908380061200,1.304061279296875,-0.0011877180077135563,0.003388491924852133,-0.0025158680509775877
1772618908390091300,1.31409130859375,0.0022427993826568127,-0.002279294189065695,0.0017349687404930592
1772618908400122000,1.3241220703125,0.0010856559965759516,-0.004046834073960781,-0.0026408713310956955
1772618908410152200,1.334152099609375,0.002536686137318611,-0.0021668928675353527,-0.004407427739351988
1772618908420183300,1.344183349609375,0.00032493099570274353,0.0018728561699390411,0.001069096615538001
1772618908430213000,1.354213134765625,-0.0018664263188838959,0.004291914869099855,0.002203991636633873
1772618908440244200,1.364244140625,-0.00020860880613327026,-0.0001529008150100708,-0.003483188571408391
1772618908450274300,1.3742744140625,-0.0004240507259964943,-0.0037484813947230577,-0.00218180357478559
1772618908460305200,1.38430517578125,-0.00071353605017066,-0.002953793853521347,-0.003371171187609434
1772618908470335200,1.394335205078125,0.0018425323069095612,0.003561174962669611,0.0005609242944046855
1772618908480366300,1.404366455078125,-0.0000722804106771946,0.00391537556424737,0.0008610625518485904
1772618908490396200,1.414396240234375,0.0009122174233198166,0.0014566346071660519,-0.0009802894201129675
1772618908500427300,1.42442724609375,0.0002096756361424923,-0.0024662017822265625,-0.0008857471984811127
1772618908510457300,1.434457275390625,0.0004918426275253296,-0.0019258009269833565,-0.000965010083746165
1772618908520488200,1.44448828125,0.000909692607820034,0.0025893221609294415,-0.0022606379352509975
1772618908530518300,1.454518310546875,-0.0005614636465907097,0.0039043459109961987,0.00035315530840307474
1772618908540549400,1.46454931640625,0.00018954789265990257,0.001379136461764574,0.0015768777811899781
1772618908550579200,1.4745791015625,0.00159681704826653,-0.002164292149245739,-0.0002606402849778533
1772618908560610300,1.4846103515625,0.0014375599566847086,-0.002955783624202013,0.001117545529268682
1772618908570640400,1.494640380859375,-0.0019941916689276695,0.0006948285736143589,-0.00007450836710631847
1772618908580671200,1.504671142578125,-0.000004277564585208893,0.0019638254307210445,-0.001819677883759141
1772618908590701300,1.514701416015625,0.0009472728706896305,0.003055737353861332,0.0016314323293045163
1772618908600732400,1.524732421875,-0.001597377471625805,0.00008977483958005905,-0.0020157666876912117
1772618908610762200,1.53476220703125,0.0032321081962436438,-0.0025776303373277187,0.0012515843845903873
1772618908620793300,1.54479345703125,0.0007444494403898716,-0.0009286012500524521,-0.00030263629741966724
1772618908630824400,1.554824462890625,0.0012170856352895498,0.0010035685263574123,0.0025611617602407932
1772618908640854300,1.564854248046875,0.001017082016915083,0.003168452065438032,0.00309885386377573
1772618908650885400,1.574885498046875,0.000092347152531147,0.0014652353711426258,-0.0016094432212412357
1772618908660915500,1.58491552734375,0.0009906310588121414,-0.00252497848123312,-0.0021649785339832306
1772618908670946300,1.5949462890625,-0.00005992269143462181,-0.0005279364995658398,-0.0005869723972864449
1772618908680976100,1.60497607421875,-0.0019430438987910748,0.0009802118875086308,0.0012506087077781558
1772618908691007500,1.615007568359375,-0.000713658519089222,0.0027950135990977287,0.002944029401987791
1772618908701037000,1.625037109375,-0.0016537541523575783,-0.001212510745972395,-0.0010504457168281078
1772618908711068200,1.635068115234375,0.0002946690656244755,-0.0023371009156107903,-0.0030208947136998177
1772618908721098200,1.64509814453125,-0.0000645914115011692,-0.0015069935470819473,-0.0021031692158430815
1772618908731129000,1.655129150390625,0.0006289645098149776,-0.0008812136948108673,0.0020117470994591713
1772618908741159200,1.6651591796875,0.0001693028025329113,0.003687439486384392,-0.00006019242573529482
1772618908751190300,1.675190185546875,0.0010003442876040936,-0.00007687602192163467,-0.00009580620098859072
1772618908761220000,1.68522021484375,0.0009635924361646175,-0.003255625255405903,-0.00047317612916231155
1772618908771251200,1.695251220703125,-0.0002686232328414917,-0.0013701533898711205,0.0002654115669429302
1772618908781281300,1.70528125,-0.0007669003680348396,-0.00021008029580116272,0.00043745175935328007
1772618908791312100,1.71531201171875,0.0009649968706071377,0.002471315208822489,0.0008795717731118202
1772618908801342200,1.72534228515625,-0.00014234520494937897,0.0017304238863289356,0.0011402952950447798
1772618908811373300,1.735373291015625,0.00176495430059731,0.0014416580088436604,-0.0005416930071078241
1772618908821403400,1.7454033203125,-0.003652447834610939,-0.00006995163857936859,0.0019265245646238327
1772618908831434200,1.755434326171875,0.001137138344347477,-0.0010932176373898983,-0.0020972718484699726
1772618908841464300,1.76546435546875,0.00006921077147126198,0.00019761687144637108,-0.0019366831984370947
1772618908851495200,1.7754951171875,0.0011914358474314213,0.0004618186503648758,0.001026088953949511
1772618908861525200,1.785525146484375,-0.001661608461290598,-0.00033286865800619125,0.001181351370178163
1772618908871556400,1.795556396484375,0.0025070197880268097,-0.0014335834421217442,-0.001903989352285862
1772618908881586400,1.80558642578125,-0.00008769799023866653,0.0005616568960249424,0.00033839221578091383
1772618908891617300,1.8156171875,0.0013733848463743925,-0.0007495279423892498,-0.00002651906106621027
1772618908901647400,1.8256474609375,-0.0014716698788106441,0.0008345204405486584,-0.0015687557170167565
1772618908911678200,1.83567822265625,0.000726963859051466,0.0012550679966807365,0.0008707332890480757
1772618908921708300,1.845708251953125,0.0005999309942126274,0.00027582375332713127,-0.001969527918845415
1772618908931739400,1.855739501953125,0.0016557476483285427,-0.001245800405740738,0.0002492995699867606
1772618908941769500,1.86576953125,0.002118605189025402,0.00014277175068855286,0.001511637819930911
1772618908951800300,1.87580029296875,0.0002905800938606262,0.0010190261527895927,0.0005223581101745367
1772618908961830400,1.885830322265625,-0.0008569755591452122,-0.0005093617364764214,0.0023958918172866106
1772618908971861200,1.895861328125,0.0020428162533789873,0.000058389268815517426,0.0018874092493206263
1772618908981892400,1.905892333984375,-0.002870982512831688,-0.001955226995050907,-0.0003690872108563781
1772618908991922400,1.91592236328125,-0.001989373005926609,-0.0006941687315702438,0.0012189870467409492
1772618909001953300,1.925953369140625,-0.000009579118341207504,-0.00010907230898737907,-0.0009597449679858983
1772618909011983000,1.935983154296875,0.0032689040526747704,0.000582600012421608,-0.00025949906557798386
1772618909022014200,1.94601416015625,0.0007508853450417519,-0.0019167764112353325,-0.002297616098076105
1772618909032043500,1.95604345703125,0.000942546408623457,-0.0027244780212640762,-0.0010990900918841362
1772618909042074400,1.966074462890625,-0.0014694789424538612,0.0016670743934810162,0.0019968347623944283
1772618909052104400,1.9761044921875,-0.001155216246843338,-0.0002503604628145695,0.002259843982756138
1772618909062135600,1.986135498046875,0.000661591999232769,-0.00035102805122733116,0.00012984778732061386
1772618909072165400,1.996165283203125,0.0030446965247392654,-0.0029119793325662613,-9.569339454174042e-7
1772618909082196500,2.006196533203125,-0.0007945164106786251,-0.001351366750895977,0.0008517872774973512
1772618909092226300,2.016226318359375,0.0003951340913772583,-0.0000902828760445118,-0.0028957719914615154
1772618909102257400,2.02625732421875,0.0006545260548591614,0.0006356947124004364,-0.0001615043729543686
1772618909112287200,2.036287353515625,-0.0003299708478152752,-0.0003465046174824238,0.0012158071622252464
1772618909122318300,2.046318359375,0.001585640711709857,0.0003933217376470566,0.0010128743015229702
1772618909132348400,2.056348388671875,0.00006104959174990654,-0.0007348530925810337,-0.0004895152524113655
1772618909142379300,2.066379150390625,-0.002203702460974455,-0.0014078342355787754,-0.001946264412254095
1772618909152409300,2.076409423828125,0.0012525562196969986,-0.0014017480425536633,0.00045817834325134754
1772618909162440200,2.086440185546875,0.0002924865111708641,0.00005926191806793213,0.0009436727268621325
1772618909172470300,2.09647021484375,-0.0009822971187531948,-0.0005976432003080845,-0.0015238429186865687
1772618909182501400,2.10650146484375,-0.0016222544945776463,0.00004018377512693405,0.001310559455305338
1772618909192531500,2.116531494140625,0.00043859053403139114,-0.000122173223644495,0.001080100890249014
1772618909202562300,2.126562255859375,-0.00047567253932356834,0.00047304341569542885,0.0026361860800534487
1772618909212592400,2.13659228515625,0.0002931361086666584,0.00028048688545823097,-0.002598377875983715
1772618909222623200,2.146623291015625,0.0007783640176057816,0.0010461453348398209,0.00079022825229913
1772618909232653300,2.1566533203125,0.00007671304047107697,0.00014082854613661766,0.0016771361697465181
1772618909242684400,2.166684326171875,-0.0019795135594904423,0.002774694934487343,0.001166874310001731
1772618909252714500,2.176714599609375,0.001721712527796626,0.0005086427554488182,0.00016239064279943705
1772618909262745300,2.186745361328125,-0.000494836363941431,-0.000259945634752512,-0.0007020714110694826
1772618909272775400,2.196775390625,-0.00015324633568525314,0.0010537407360970974,0.0011834007455036044
1772618909282806300,2.20680615234375,-0.0015567322261631489,-0.00226855231449008,-0.0004853360587731004
1772618909292836400,2.21683642578125,-0.00029309792444109917,0.0019448725506663322,-0.001284926082007587
1772618909302867500,2.226867431640625,-0.0014712805859744549,-0.0007286751642823219,0.0016139246290549636
1772618909312897500,2.2368974609375,0.0010588443838059902,-0.001786431297659874,-0.0023606857284903526
1772618909322928400,2.246928466796875,0.0005560396239161491,0.00040295347571372986,0.00024095643311738968
1772618909332958500,2.25695849609375,-0.0007773516699671745,0.000024934764951467514,0.00043994386214762926
1772618909342989600,2.266989501953125,0.000687919557094574,-0.0006525730714201927,-0.0005470236064866185
1772618909353020400,2.2770205078125,-0.0008225413039326668,0.0004709945060312748,0.0017815175233408809
1772618909363050500,2.287050537109375,0.0004927939735352993,0.0006603458896279335,0.000976177747361362
1772618909373081300,2.297081298828125,0.0005841236561536789,0.0003060312010347843,-0.0007949071587063372
1772618909383111400,2.307111328125,0.000554296188056469,0.002525243442505598,-0.0005648100050166249
1772618909393142500,2.317142578125,-0.00044484762474894524,0.00027903448790311813,0.0008495143847540021
1772618909403172600,2.327172607421875,-0.00035430025309324265,-0.0016869110986590385,-0.001461843028664589
1772618909413203500,2.337203369140625,0.0013384365011006594,-0.003237841185182333,0.000339147518388927
1772618909423233300,2.3472333984375,-0.002166816033422947,0.0012285462580621243,-0.0006680600345134735
1772618909433264400,2.357264404296875,0.00019126245751976967,0.00019670510664582253,-0.0007226383895613253
1772618909443294200,2.367294189453125,-0.0010857232846319675,0.00010535866022109985,0.001265677739866078
1772618909453325300,2.3773251953125,0.0009373193606734276,-0.000286872498691082,-0.0006703924154862761
1772618909463355400,2.38735546875,0.002066766144707799,-0.0006410731002688408,0.0008566640317440033
1772618909473386200,2.39738623046875,0.0005520391277968884,0.00031987763941287994,-0.00040056253783404827
1772618909483416300,2.407416259765625,0.0012686958070844412,0.0006972472183406353,-0.0016663629794493318
1772618909493447400,2.417447509765625,-0.0022945296950638294,-0.0019691013731062412,-0.0017106893938034773
1772618909503477200,2.427477294921875,-0.0014961143024265766,-0.0005283313803374767,0.0002374128671362996
1772618909513508400,2.43750830078125,0.0005276184529066086,0.0017050071619451046,-0.0015381850535050035
1772618909523538400,2.447538330078125,0.0003587743267416954,0.0003811498172581196,0.0008962105493992567
1772618909533569300,2.4575693359375,0.001104447990655899,-0.001919472124427557,0.0019640326499938965
1772618909543599400,2.467599365234375,-0.0010423259809613228,0.002107227686792612,-0.0016781063750386238
1772618909553630500,2.47763037109375,0.0013128749560564756,-0.0003093886189162731,0.0012860874412581325
1772618909563660300,2.487660400390625,0.0008630668744444847,-0.0003967401571571827,0.0009736985666677356
1772618909573691400,2.49769140625,-0.000699970405548811,0.0016581881791353226,-0.001973409904167056
1772618909583721500,2.507721435546875,0.0010004579089581966,0.0007772147655487061,0.00012303050607442856
1772618909593752300,2.51775244140625,-0.004788228776305914,-0.0000537307932972908,-0.0015440838178619742
1772618909603782400,2.527782470703125,0.0034177699126303196,0.00029807258397340775,0.00006366649176925421
1772618909613813500,2.5378134765625,-0.0011953851208090782,-0.0017822780646383762,-0.0008420562953688204
1772618909623843300,2.54784326171875,0.0005844053812325001,-0.0007617548108100891,0.0004152220208197832
1772618909633874400,2.55787451171875,-0.0005292696878314018,-0.001748405396938324,-0.0018418682739138603
1772618909643904500,2.567904541015625,0.0005453159101307392,-0.0008296146988868713,-0.002646409207955003
1772618909653935400,2.577935302734375,-0.0006734426133334637,-0.0028737327083945274,0.0014222207246348262
1772618909663966500,2.587966552734375,-0.0012473538517951965,0.002565773669630289,0.00044750364031642675
1772618909673996500,2.59799658203125,0.00010872446000576019,-0.00037776678800582886,-0.0006263721734285355
1772618909684027400,2.60802734375,-0.000957871787250042,0.0005831015296280384,0.0013584818225353956
1772618909694057500,2.618057373046875,0.002356225624680519,-0.00056507159024477,-0.002299325540661812
1772618909704088600,2.628088623046875,-0.001898174174129963,0.00029539549723267555,-0.0007469688425771892
1772618909714118400,2.638118408203125,0.0021859456319361925,0.00009398814290761948,0.0009456119732931256
1772618909724149500,2.6481494140625,-0.00017041945829987526,-0.0003678039647638798,-0.003390546888113022
1772618909734179600,2.6581796875,-0.0005694725550711155,0.00046436022967100143,-0.0004914453020319343
1772618909744210400,2.66821044921875,0.0006822133436799049,-0.0014421967789530754,0.0020758421160280704
1772618909754240300,2.678240234375,0.0023201557341963053,-0.00237587234005332,0.001284326077438891
1772618909764271600,2.688271728515625,-0.0028533004224300385,0.0007051387801766396,-0.0017767113167792559
1772618909774301200,2.69830126953125,0.0012978606391698122,0.0016774036921560764,-0.00020739866886287928
1772618909784332300,2.708332275390625,0.00008905166760087013,-0.0022877766750752926,-0.0029717599973082542
1772618909794362400,2.7183623046875,-0.001623210497200489,0.0007788022048771381,-0.0005325301317498088
1772618909804393200,2.728393310546875,0.0012032024096697569,-0.00039591826498508453,-0.00031255302019417286
1772618909814423300,2.73842333984375,0.001852892804890871,-0.0015404121950268745,0.0007119193905964494
1772618909824454400,2.748454345703125,0.00004380755126476288,-0.0003590341657400131,0.0010006058728322387
1772618909834484200,2.758484130859375,0.0008153184317052364,-0.0014680386520922184,-0.0016234384384006262
1772618909844515300,2.768515380859375,0.0015506171621382236,0.0001407768577337265,0.0005571579094976187
1772618909854545400,2.77854541015625,0.0013044385705143213,0.0002291458658874035,-0.0017892909236252308
1772618909864576300,2.788576171875,0.0001835138536989689,-0.000420399010181427,-0.0015533348778262734
1772618909874606300,2.7986064453125,0.0028498179744929075,0.001345539465546608,0.001277591334655881
1772618909884637400,2.808637451171875,0.00024897465482354164,-0.00019296864047646523,0.0003100648755207658
1772618909894667300,2.818667236328125,-0.0004576323553919792,0.00004420895129442215,-0.0018908099737018347
1772618909904698400,2.828698486328125,0.0018135111313313246,-0.0009635309688746929,0.0022211107425391674
1772618909914728400,2.838728515625,-0.00030515342950820923,0.0002993023954331875,0.003117450512945652
1772618909924759300,2.84875927734375,0.0022339043207466602,-0.0023473468609154224,-0.00032841379288583994
1772618909934789400,2.858789306640625,-0.0008653486147522926,0.0025657638907432556,-0.0011968167964369059
1772618909944820500,2.868820556640625,0.0009160395711660385,0.0007300470024347305,-0.0008295667939819396
1772618909954850600,2.8788505859375,-0.002532227896153927,-0.0016340347938239574,-0.0000064319465309381485
1772618909964881400,2.88888134765625,0.0006353356875479221,-0.00021297205239534378,-0.0004759471630677581
1772618909974911500,2.898911376953125,0.0022331797517836094,-0.0006140908226370811,0.0007968564750626683
1772618909984942300,2.9089423828125,0.0007058568298816681,-0.00148041732609272,-0.0020319530740380287
1772618909994973400,2.918973388671875,-0.0006665987893939018,-0.003312529996037483,0.0038342378102242947
1772618910005003500,2.92900341796875,-0.0007366398349404335,-0.000983063131570816,0.0005769252311438322
1772618910015034400,2.939034423828125,-0.00003768736496567726,0.0015681199729442596,-0.0007685444434173405
1772618910025064400,2.949064453125,-0.00016578566282987595,0.000010437332093715668,0.0009292206959798932
1772618910035095600,2.959095458984375,-0.000317311380058527,0.0010990086011588573,-0.0005445554270409048
1772618910045125000,2.969125,-0.0007596625946462154,0.0015631974674761295,0.002319674240425229
1772618910055156200,2.97915625,0.002197482157498598,-0.00019310368224978447,0.0033356361091136932
1772618910065186300,2.989186279296875,0.0004195556975901127,-0.003260000143200159,0.0002919090911746025
1772618910075217200,2.999217041015625,0.0011348235420882702,0.00019652023911476135,0.001080466085113585
1772618910085247200,3.009247314453125,-0.00031766481697559357,-0.00043464871123433113,0.0005467684241011739
1772618910095278300,3.0192783203125,0.0014607051853090525,-0.00023446884006261826,0.001057152170687914
1772618910105308400,3.029308349609375,-0.001763317734003067,0.0016963230445981026,-0.00042729382403194904
1772618910115339300,3.03933935546875,-0.0014602853916585445,0.0015470287762582302,-0.001457422273233533
1772618910125369300,3.049369384765625,0.0005424120463430882,0.00007350137457251549,-0.0019442480988800526
1772618910135400200,3.059400146484375,-0.0017867102287709713,-0.002128059044480324,-0.00045268877875059843
1772618910145430300,3.06943017578125,0.0009883036836981773,0.0005068723112344742,0.00045837857760488987
1772618910155461400,3.07946142578125,-0.0025321547873318195,0.001038342248648405,0.0005494568031281233
1772618910165491500,3.089491455078125,0.0025105404201895,-0.00038218777626752853,-0.0025712354108691216
1772618910175522300,3.099522216796875,0.0006503639742732048,0.0004287082701921463,0.00018837698735296726
1772618910185552400,3.109552490234375,-0.0007784217596054077,-0.00024187564849853516,-0.0008076452650129795
1772618910195583200,3.119583251953125,0.0006962190382182598,0.0002532140351831913,-0.0006289740558713675
1772618910205613300,3.12961328125,0.0003073974512517452,0.000026312656700611115,0.0026102287229150534
1772618910215644400,3.13964453125,0.0007669059559702873,-0.0011098254472017288,-0.0009222859516739845
1772618910225674500,3.149674560546875,-0.0015881271101534367,0.000015892554074525833,0.0016521918587386608
1772618910235705300,3.159705322265625,0.0007055345922708511,0.0002463865093886852,-0.00026206288021057844
1772618910245735400,3.1697353515625,-0.0008460232056677341,0.001461321022361517,-0.0025752848014235497
1772618910255766300,3.179766357421875,-0.0014510960318148136,0.00229033175855875,-0.00027835159562528133
1772618910265796400,3.18979638671875,-0.0002502766437828541,0.002614704892039299,0.0007323179161176085
1772618910275827500,3.199827392578125,-0.000393714290112257,-0.001054998952895403,-0.0004521133378148079
1772618910285858300,3.2098583984375,-0.0016011917032301426,-0.00022276118397712708,0.0019173009786754847
1772618910295888400,3.219888427734375,0.0023330342955887318,-0.0027590044774115086,0.002461398020386696
1772618910305919500,3.22991943359375,0.0010664351284503937,-0.0022008055821061134,0.0015023936284705997
1772618910315949600,3.239949462890625,0.0008291471749544144,-0.00023197196424007416,0.00047118356451392174
1772618910325980400,3.24998046875,0.0020195799879729748,-0.0033822250552475452,-0.0006135220755822957
1772618910336010500,3.260010498046875,0.0014089560136198997,-0.0007301927544176579,0.00039006525184959173
1772618910346041300,3.270041259765625,0.0015716752968728542,0.0007220292463898659,-0.0030110576190054417
1772618910356071200,3.2800712890625,0.0018231847789138556,-0.001301837619394064,0.0021966202184557915
1772618910366102500,3.2901025390625,0.0009744353592395782,0.00030804332345724106,-0.0007738695130683482
1772618910376132400,3.30013232421875,0.002524211071431637,0.00048025883734226227,0.00026360107585787773
1772618910386163200,3.3101630859375,0.000368382316082716,-0.00016955239698290825,-0.0008591876248829067
1772618910396193300,3.320193359375,0.0002769739367067814,-0.00010632863268256187,0.002634812844917178
1772618910406224100,3.33022412109375,-0.002222402486950159,0.003508911933749914,0.001035318011417985
1772618910416254200,3.340254150390625,-0.000037361402064561844,-0.0006989059038460255,-0.0012138193706050515
1772618910426285300,3.350285400390625,-0.0014538969844579697,0.0009306827560067177,0.0018394947983324528
1772618910436315400,3.3603154296875,-0.0017351903952658176,0.00006467988714575768,0.0006207174155861139
1772618910446346200,3.37034619140625,-0.000256603118032217,-0.00015636254101991653,0.00153684476390481
1772618910456376300,3.380376220703125,0.0019508406985551119,0.00016849488019943237,0.00009821436833590269
1772618910466407400,3.390407470703125,0.0029071818571537733,-0.0012192782014608383,-0.0016517487820237875
1772618910476437200,3.400437255859375,0.0007086033001542091,-0.003461956512182951,0.0007169465534389019
1772618910486468400,3.41046826171875,-0.0006868932396173477,-0.000012364238500595093,0.0008905846625566483
1772618910496498400,3.42049853515625,-0.00014289189130067825,0.0014839963987469673,0.0005478938110172749
1772618910506529300,3.430529296875,-0.0013096225447952747,-0.0005996609106659889,0.0007875782903283834
1772618910516559400,3.440559326171875,0.0020412285812199116,0.000559546984732151,-0.0008501973352394998
1772618910526590500,3.450590576171875,0.0002960590645670891,0.0017252126708626747,0.0021551798563450575
1772618910536620300,3.460620361328125,0.0005541658028960228,0.0006848233751952648,0.00019765656907111406
1772618910546651400,3.4706513671875,-0.00034039001911878586,-0.0016497038304805756,-0.00467566167935729
1772618910556682200,3.48068212890625,-0.0016774083487689495,-0.0019080941565334797,0.00021689420100301504
1772618910566712300,3.49071240234375,0.0005255588330328465,0.00047170650213956833,-0.0030510707292705774
1772618910576743400,3.500743408203125,0.0011952221393585205,-0.0006034239195287228,0.0011557304533198476
1772618910586773500,3.5107734375,-0.0006167925894260406,-0.0001485561951994896,0.0006305550923570991
1772618910596804400,3.520804443359375,-0.0013259537518024445,0.00037905480712652206,0.0017270926618948579
1772618910606834400,3.53083447265625,0.00035396823659539223,0.00019343243911862373,-0.0009014473180286586
1772618910616865300,3.540865234375,0.0006806999444961548,0.0010138279758393764,3.789318725466728e-7
1772618910626895400,3.550895263671875,0.0001850854605436325,0.001382941845804453,-0.0012592963175848126
1772618910636926500,3.560926513671875,-0.0006529609672725201,0.0006099813617765903,-0.0010808194056153297
1772618910646956500,3.57095654296875,-0.0013677533715963364,0.0006299549713730812,0.0009003061568364501
1772618910656987400,3.5809873046875,0.0030014978256076574,0.00020476942881941795,-0.002777012065052986
1772618910667017500,3.591017578125,-0.0026878132484853268,0.0013826857320964336,0.0006416878895834088
1772618910677048300,3.60104833984375,0.002512200502678752,0.0021157986484467983,-0.00045922095887362957
1772618910687078100,3.611078125,-0.00017919018864631653,0.0016918233595788479,0.00015916500706225634
1772618910697109500,3.621109619140625,-0.0003320639953017235,-0.00021681515499949455,-0.001300989300943911
1772618910707139300,3.631139404296875,0.002082890598103404,-0.00003305729478597641,-0.0007883307989686728
1772618910717170200,3.641170166015625,0.00109795480966568,-0.0028127962723374367,0.0035894487518817186
1772618910727200300,3.6512001953125,0.0031760195270180702,-0.0020221034064888954,-0.00014270527753978968
1772618910737231400,3.6612314453125,0.0009736358188092709,-0.0007060114294290543,0.0024112886749207973
1772618910747261200,3.67126123046875,-0.0029899468645453453,0.002483124379068613,-0.00007317436393350363
1772618910757292300,3.681292236328125,0.0017614527605473995,0.00013414490967988968,0.002112362300977111
1772618910767322400,3.691322265625,0.0000034999102354049683,0.0003836830146610737,-0.0015446905745193362
1772618910777353200,3.701353271484375,-0.0007088575512170792,0.0007016398012638092,-0.00032660248689353466
1772618910787383300,3.71138330078125,0.00016359379515051842,-0.0005449862219393253,-0.00004057888872921467
1772618910797414400,3.721414306640625,0.0007365001365542412,0.0005296091549098492,0.001796224620193243
1772618910807444200,3.7314443359375,0.0009484877809882164,0.00018339836969971657,0.00022948684636503458
1772618910817475300,3.741475341796875,0.0018826257437467575,0.00023372936993837357,0.00045495026279240847
1772618910827505400,3.75150537109375,0.0011593112722039223,-0.0017868108116090298,-0.0016638606321066618
1772618910837536300,3.761536376953125,0.0025340495631098747,0.000412138644605875,0.002302090171724558
1772618910847567400,3.7715673828125,-0.0021757506765425205,0.002598061691969633,0.00006716547068208456
1772618910857597400,3.781597412109375,0.003007985185831785,-0.00006563682109117508,0.0005895228823646903
1772618910867628300,3.791628173828125,-0.00009912485256791115,-0.0017253188416361809,-0.0008848031866364181
1772618910877658400,3.801658447265625,-0.0012554344721138477,0.00009486638009548187,-0.0017628066707402468
1772618910887689500,3.811689453125,0.0012194409500807524,-0.0015943767502903938,0.0003370959311723709
1772618910897719300,3.82171923828125,-0.0003326740115880966,-0.00021484773606061935,0.001850282889790833
1772618910907750400,3.83175048828125,0.0004127449356019497,-0.0003466741181910038,-0.0025034528225660324
1772618910917780500,3.841780517578125,0.0022756748367100954,0.0017240839079022408,-0.0011339574120938778
1772618910927811300,3.851811279296875,0.001715079415589571,0.0027038613334298134,0.002616039477288723
1772618910937841400,3.86184130859375,-0.001743348315358162,-0.002119968645274639,0.001767538720741868
1772618910947872500,3.87187255859375,0.0011304686777293682,-0.0003487002104520798,-0.00019547715783119202
1772618910957902300,3.88190234375,0.0011574316304177046,0.001458185724914074,-0.00033062812872231007
1772618910967933400,3.891933349609375,-0.0011832206510007381,0.0005644289776682854,0.001103750430047512
1772618910977963500,3.901963623046875,0.0017596727702766657,-0.003309668507426977,0.00006703019607812166
1772618910987994400,3.911994384765625,0.0005974695086479187,-0.0008920510299503803,-0.0011167449411004782
1772618910998024200,3.922024169921875,-0.0007395762950181961,0.0012399940751492977,-0.00032528885640203953
1772618911008055600,3.9320556640625,0.0011664482299238443,0.00019257329404354095,0.0018518452998250723
1772618911018085000,3.942085205078125,-0.0020497669465839863,0.0001341286115348339,-0.0005172601086087525
1772618911028116200,3.9521162109375,0.0006703860126435757,0.002096079755574465,-0.0023327369708567858
1772618911038146800,3.962146728515625,-0.001937739085406065,0.0019966643303632736,-0.0014319607289507985
1772618911048178000,3.972177978515625,-0.00010175583884119987,-0.0021714488975703716,0.0007891155546531081
1772618911058207700,3.982207763671875,-0.0012600128538906574,-0.001832424197345972,0.00193994480650872
1772618911068238800,3.99223876953125,0.0005472083576023579,-0.001020160038024187,-0.001930427155457437
1772618911078270000,4.00227001953125,0.0007879268378019333,-0.0021265409886837006,-0.00019322452135384083
1772618911088299800,4.0122998046875,-0.0012725605629384518,0.0002098502591252327,0.00036524038296192884
1772618911098330600,4.02233056640625,-0.002723097801208496,0.0006201043725013733,0.0018733121687546372
1772618911108360700,4.032360595703125,-0.0005363761447370052,-0.00003849528729915619,0.0001848679967224598
1772618911118391800,4.042391845703125,0.0007422580383718014,-0.001786289270967245,0.0007284828461706638
1772618911128422000,4.052421875,0.00022560497745871544,0.002470507752150297,0.001719178631901741
1772618911138452700,4.06245263671875,0.00008187489584088326,0.0005847150459885597,-0.000555696664378047
1772618911148482800,4.07248291015625,0.0010097203776240349,0.0016702190041542053,-0.00019483838696032763
1772618911158513700,4.082513671875,0.002149558160454035,0.0009439890272915363,-0.0023148495238274336
1772618911168543700,4.092543701171875,0.0010789674706757069,0.001808983739465475,-0.00005409203004091978
1772618911178574800,4.102574951171875,-0.000697726383805275,-0.0006133005954325199,0.002223426476120949
1772618911188605000,4.11260498046875,-0.00028733303770422935,-0.0006857383996248245,0.0019246196607127786
1772618911198635800,4.1226357421875,0.0003396878018975258,0.000008246395736932755,-0.0005681410548277199
1772618911208665900,4.132665771484375,-0.00008535245433449745,-0.0015851226635277271,-0.0002922374987974763
1772618911218697000,4.142697021484375,0.000617660116404295,-0.0013552950695157051,-0.000879885395988822
1772618911228726800,4.152726806640625,-0.0006484063342213631,-0.0005544824525713921,0.000863952562212944
1772618911238758000,4.1627578125,0.0014747544191777706,0.0001750737428665161,-0.002649944741278887
1772618911248788000,4.1727880859375,-0.0019596582278609276,0.0026606018655002117,-0.0004967791028320789
1772618911258818800,4.18281884765625,0.0014375997707247734,-0.0008023101836442947,-0.0010025008814409375
1772618911268849000,4.192848876953125,-0.001120100263506174,0.0007108976133167744,0.00021935743279755116
1772618911278880000,4.2028798828125,0.0005455133505165577,0.0017096130177378654,0.00004639627877622843
1772618911288909800,4.212909912109375,-0.0001314622350037098,0.0003628525882959366,-0.0012502968311309814
1772618911298941000,4.22294091796875,0.0008428962901234627,-0.0015467489138245583,0.002455691806972027
1772618911308971000,4.232970947265625,-0.0014519495889544487,-0.0010074586607515812,-0.0010612787446007133
1772618911319001900,4.243001953125,-0.0028081764467060566,-0.00038750702515244484,0.0002124729799106717
1772618911329032000,4.253031982421875,-0.001654761377722025,0.00008893245831131935,0.0017666936619207263
1772618911339063000,4.26306298828125,-0.0009564915671944618,-0.00007101520895957947,-0.0015553983394056559
1772618911349094000,4.273093994140625,0.0007809544913470745,-0.0005866033025085926,-0.0026068142615258694
1772618911359124000,4.2831240234375,0.0016190537717193365,0.00024118926376104355,0.0016480268677696586
1772618911369154800,4.29315478515625,0.0020030816085636616,-0.00047440221533179283,-0.0006721190293319523
1772618911379185000,4.303184814453125,0.0010871919803321362,0.0002081776037812233,0.003013010136783123
1772618911389216000,4.313216064453125,0.0011039699893444777,-0.0002887686714529991,-0.0005004980484955013
1772618911399245800,4.323245849609375,-0.0028790454380214214,0.0008090869523584843,0.0004764014156535268
1772618911409276700,4.333276611328125,0.000685062725096941,0.0010514347814023495,-0.0012080479646101594
1772618911419306800,4.343306640625,0.00018684426322579384,-0.002415220718830824,0.0009988100500777364
1772618911429337900,4.353337890625,-0.0009247590787708759,0.0012745894491672516,-0.0017825954128056765
1772618911439367700,4.36336767578125,0.0008403216488659382,0.0010479637421667576,-0.0019214573549106717
1772618911449398800,4.373398681640625,0.0014515169896185398,-0.000953401904553175,-0.0006849516648799181
1772618911459428900,4.383428955078125,-0.0009873313829302788,-0.0018078703433275223,-0.0010551336454227567
1772618911469459700,4.393459716796875,-0.00006614392623305321,0.0016686199232935905,0.0018024382879957557
1772618911479489800,4.40348974609375,0.001433562021702528,-0.00019839033484458923,0.001756452489644289
1772618911489521000,4.41352099609375,0.0005829483270645142,-0.0022024186328053474,-0.0011898026568815112
1772618911499550700,4.42355078125,0.0010020961053669453,-0.0005317493341863155,0.0008128703339025378
1772618911509581800,4.433581787109375,-0.002873868215829134,0.001207028515636921,0.00012444332242012024
1772618911519612000,4.44361181640625,0.0006678844802081585,-0.0016510928981006145,0.0001663292059674859
1772618911529642800,4.453642822265625,0.0010116985067725182,-0.0004457463510334492,0.0002470230683684349
1772618911539672800,4.4636728515625,-0.000261770561337471,0.0005030822940170765,0.0031768474727869034
1772618911549704000,4.473703857421875,-0.001622113399207592,0.0005869721062481403,-0.0008479878306388855
1772618911559734800,4.48373486328125,0.003021596698090434,0.0006896811537444592,0.0014068554155528545
1772618911569764900,4.493764892578125,-0.0004769982770085335,-0.0014365864917635918,0.002318721730262041
1772618911579795700,4.503795654296875,-0.00099183339625597,0.00241549639031291,0.0001401623012498021
1772618911589825800,4.51382568359375,0.0001993984915316105,-0.0014551416970789433,0.0005497564561665058
1772618911599857000,4.52385693359375,0.0010767290368676186,0.0019976128824055195,0.000011282390914857388
1772618911609887000,4.533886962890625,-0.0008138488046824932,0.00021436018869280815,0.0014834778849035501
1772618911619917800,4.543917724609375,-0.00024492060765624046,-0.000350369606167078,-0.0017106147715821862
1772618911629948000,4.553947998046875,-0.00007714144885540009,-0.0014920667745172977,-0.00015266553964465857
1772618911639979000,4.56397900390625,-0.0015683681704103947,0.00047273095697164536,-0.0016147687565535307
1772618911650008800,4.5740087890625,-0.0001992369070649147,0.0007451726123690605,-0.002945283893495798
1772618911660040000,4.5840400390625,0.000543287955224514,0.00027496321126818657,0.0009280593367293477
1772618911670070000,4.594070068359375,0.001102818176150322,-0.0042175231501460075,0.0002572090597823262
1772618911680100900,4.604100830078125,0.00055655837059021,-0.0006741178222000599,-0.000036742654629051685
1772618911690131000,4.614130859375,0.001651650294661522,0.00006437674164772034,0.0015552949625998735
1772618911700162000,4.624162109375,0.0007859212346374989,-0.0002689827233552933,0.0006150569533929229
1772618911710191600,4.634191650390625,-0.0004660305567085743,0.0016508903354406357,0.0019290606724098325
1772618911720223000,4.644222900390625,0.0012285835109651089,-0.000647316686809063,0.0008365741232410073
1772618911730252800,4.654252685546875,0.0015838493127375841,0.0002919803373515606,-0.0016148657305166125
1772618911740283600,4.66428369140625,-0.0013231276534497738,-0.00033719930797815323,0.0011974875815212727
1772618911750313700,4.674313720703125,-0.0007667932659387589,0.001551514957100153,-0.0006645945250056684
1772618911760344800,4.6843447265625,-0.000354948453605175,-0.001384521834552288,0.002350966911762953
1772618911770374700,4.694374755859375,-0.0004548169672489166,0.0013548051938414574,-0.0015694723697379231
1772618911780405800,4.70440576171875,0.002314097946509719,-0.0011204010806977749,-0.001557332114316523
1772618911790435800,4.714435791015625,0.0014791968278586864,-0.0013973698951303959,0.00024003523867577314
1772618911800466700,4.724466796875,-0.0008804765529930592,-0.0026969900354743004,0.0014600149588659406
1772618911810497800,4.734497802734375,0.0005746749229729176,-0.00144530413672328,0.0005883622216060758
1772618911820527900,4.74452783203125,0.0006195679306983948,0.0004951772280037403,-0.0003165856469422579
1772618911830558700,4.754558837890625,0.00027815066277980804,0.0008088969625532627,-0.0007293755770660937
1772618911840588800,4.7645888671875,0.0008106515742838383,0.0020487974397838116,-0.001596736954525113
1772618911850620000,4.774619873046875,-0.0008402420207858086,0.001443461049348116,-0.0007732875528745353
1772618911860649700,4.784649658203125,-0.003267821855843067,0.0021376567892730236,0.0009691044688224792
1772618911870680800,4.794680908203125,0.001010014209896326,-0.0020735999569296837,0.0011145130265504122
1772618911880711000,4.8047109375,-0.001088922843337059,-0.000026172026991844177,0.0014103978173807263
1772618911890741800,4.81474169921875,0.002165459794923663,-0.0008328435942530632,0.0013888260582461953
1772618911900771800,4.824771728515625,0.0022437775041908026,0.00007399497553706169,-0.0013578127836808562
1772618911910803000,4.834802978515625,0.00004240823909640312,-0.0023239152505993843,0.0019389144144952297
1772618911920832800,4.844832763671875,-0.0010327138006687164,0.0014088512398302555,-0.0004929167334921658
1772618911930863900,4.85486376953125,-0.001732060220092535,0.00025996332988142967,-0.000002895132638514042
1772618911940894000,4.86489404296875,0.0013570045121014118,0.0005149617791175842,0.0005402074893936515
1772618911950924800,4.8749248046875,0.0016709913033992052,0.0020619919523596764,0.0002722934586927295
1772618911960955000,4.884954833984375,-0.0008140061981976032,0.00042708637192845345,0.0002470382023602724
1772618911970986000,4.894986083984375,-0.0019325334578752518,0.001080892514437437,-0.002696820069104433
1772618911981015800,4.905015869140625,0.001966682029888034,-0.001095503568649292,0.0013523799134418368
1772618911991047000,4.915046875,-0.0010991492308676243,0.0004163729026913643,-0.0008231563842855394
1772618912001077000,4.925076904296875,-0.00259741535410285,0.00006320793181657791,0.00005216838326305151
1772618912011107800,4.93510791015625,0.0007248781621456146,0.001403310801833868,-0.0013401322066783905
1772618912021138000,4.945137939453125,-0.001119039487093687,0.0009607048705220222,-0.002138288225978613
1772618912031168500,4.95516845703125,0.0013102958910167217,0.0005636271089315414,0.0017512585036456585
1772618912041199400,4.965199462890625,0.0006531216204166412,-0.0012546675279736519,-0.0017356497701257467
1772618912051229200,4.975229248046875,-0.0008156117983162403,-0.0011223084293305874,0.0014806498074904084
1772618912061260500,4.985260498046875,-0.0015342910774052143,0.0021563544869422913,0.0032667899504303932
1772618912071290400,4.995290283203125,0.0022404734045267105,0.0013933591544628143,-0.00023233704268932343
1772618912081321200,5.0053212890625,0.00016797427088022232,0.0002824850380420685,-0.0010584350675344467
1772618912091351300,5.015351318359375,-0.0006416267715394497,-0.002003306057304144,0.0007083059754222631
1772618912101382100,5.025382080078125,0.0016392008401453495,-0.0010592350736260414,0.0020692613907158375
1772618912111412200,5.035412109375,-0.0004207543097436428,0.0008651646785438061,-0.0005792523152194917
1772618912121443300,5.045443359375,0.0018224637024104595,-0.00015761423856019974,-0.0015745142009109259
1772618912131473400,5.055473388671875,0.0012003493029624224,-0.002312910743057728,0.001710228738375008
1772618912141504300,5.065504150390625,0.0015951294917613268,-0.000406747218221426,-0.001669131452217698
1772618912151534300,5.075534423828125,0.0006065638735890388,-0.00001899106428027153,-0.0006086606881581247
1772618912161565200,5.085565185546875,0.0006669340655207634,0.0016971062868833542,-0.00013910268899053335
1772618912171595300,5.09559521484375,-0.001367188524454832,-0.0017117401584982872,-0.00156336126383394
1772618912181626400,5.10562646484375,-0.0013670139014720917,-0.0012525878846645355,0.0018961967434734106
1772618912191656400,5.115656494140625,0.001129433512687683,-0.0010461932979524136,-0.0004425913793966174
1772618912201687300,5.125687255859375,0.00032032327726483345,0.0014964956790208817,-0.0006517345318570733
1772618912211717400,5.13571728515625,-0.0007537296041846275,0.000043209176510572433,0.0010292527731508017
1772618912221748500,5.14574853515625,-0.0002623670734465122,0.00018207961693406105,0.00010474107693880796
1772618912231778300,5.1557783203125,0.0009640185162425041,0.0003141723573207855,0.0012312582693994045
1772618912241809400,5.165809326171875,0.0006628367118537426,-0.0006146561354398727,0.0012888149358332157
1772618912251840300,5.17584033203125,-0.0005520973354578018,0.0024586315266788006,0.000691467896103859
1772618912261870300,5.185870361328125,0.0008000894449651241,-0.00057192612439394,0.0012618786422535777
1772618912271901400,5.1959013671875,0.0009753257036209106,0.0016611344181001186,0.00024428486358374357
1772618912281931500,5.205931640625,0.0017369852866977453,0.0012598857283592224,0.0009951030369848013
1772618912291962400,5.21596240234375,-0.0028796042315661907,0.000774923712015152,-0.0014352976577356458
1772618912301992400,5.225992431640625,-0.0013661948032677174,0.0024052318185567856,-0.0009873739909380674
1772618912312023300,5.236023193359375,-0.00009000813588500023,-0.002467287704348564,0.0015468900091946125
1772618912322053400,5.246053466796875,0.000355742871761322,0.001454784069210291,-0.0011983246076852083
1772618912332084500,5.25608447265625,-0.001985708251595497,-0.0009196898899972439,0.0010262137511745095
1772618912342114600,5.266114501953125,-0.0025915754958987236,0.0008088117465376854,-0.002022339031100273
1772618912352145400,5.2761455078125,0.0002127331681549549,0.0009073494002223015,0.000840825610794127
1772618912362175200,5.28617529296875,-0.0005980334244668484,0.00191821763291955,0.0001934055471792817
1772618912372206300,5.296206298828125,-0.002818576991558075,-0.001083964016288519,-0.00010220531839877367
1772618912382236200,5.306236083984375,0.0020792086143046618,-0.0009033903479576111,0.0044563570991158485
1772618912392267300,5.316267333984375,-0.0022689346224069595,-0.0006698309443891048,0.001489862217567861
1772618912402298400,5.32629833984375,-0.0019486160017549992,0.0008680857717990875,0.000953555922023952
1772618912412328200,5.336328125,-0.001430631149560213,-0.0003694845363497734,0.000552217592485249
1772618912422359300,5.346359375,-0.0003904826007783413,-0.0014347159303724766,0.0007259295089170337
1772618912432389400,5.356389404296875,0.0007219198159873486,-0.0009460258297622204,-0.0019241820555180311
1772618912442420200,5.366420166015625,-0.0008158320561051369,-0.0030943970195949078,-0.0005449249874800444
1772618912452450300,5.3764501953125,0.0003740680404007435,0.0005378886125981808,-0.0010993951000273228
1772618912462481200,5.386481201171875,0.0007191956974565983,-0.0006503360345959663,0.00003059464506804943
1772618912472511200,5.39651123046875,-0.00005152309313416481,0.0012389104813337326,-0.0018458686536177993
1772618912482542300,5.406542236328125,0.0014876271598041058,-0.0013797702267765999,-0.0006953715928830206
1772618912492572400,5.416572509765625,-0.0013640858232975006,-0.00032755499705672264,-0.002907126909121871
1772618912502603300,5.426603271484375,-0.0008101384155452251,0.0017263470217585564,-0.00006891170050948858
1772618912512633300,5.43663330078125,-0.0018639513291418552,0.0011031674221158028,-0.0012894384562969208
1772618912522664200,5.446664306640625,0.0006097070872783661,-0.000051612500101327896,-0.0019265320152044296
1772618912532694300,5.4566943359375,0.000898127444088459,0.002724733203649521,-0.0017118812538683414
1772618912542725400,5.466725341796875,-0.00016464851796627045,0.0013430765829980373,0.0014555451925843954
1772618912552755500,5.47675537109375,-0.0009273779578506947,-0.0024487320333719254,0.00042889651376754045
1772618912562786300,5.486786376953125,-0.00013457564637064934,-0.0017840121872723103,-0.000753715867176652
1772618912572816400,5.49681640625,0.00040285009890794754,-0.0022615166381001472,0.000590381445363164
1772618912582847200,5.50684716796875,-0.0014079166576266289,0.0011847494170069695,0.0005148116033524275
1772618912592878300,5.51687841796875,0.000009950250387191772,-0.0022797565907239914,-0.00034352520015090704
1772618912602908400,5.526908447265625,0.001268294407054782,-0.001073822844773531,0.0003482283791527152
1772618912612939300,5.536939208984375,-0.0010574441403150558,-0.001312442123889923,0.0001349091762676835
1772618912622969300,5.54696923828125,0.0007545738480985165,0.0013273297809064388,-0.001635203487239778
1772618912633000400,5.55700048828125,0.0011252861004322767,-0.0007456745952367783,-0.0003949693636968732
1772618912643030500,5.567030517578125,0.004339814186096191,0.0016290131025016308,-0.0000035100383684039116
1772618912653061400,5.577061279296875,0.0011240474414080381,0.0007589575834572315,0.0021334104239940643
1772618912663091500,5.587091552734375,-0.00043217604979872704,-0.0002626529894769192,-0.0016417487058788538
1772618912673122300,5.597122314453125,-0.0010337838903069496,0.0005416218191385269,-0.0023413612507283688
1772618912683152400,5.60715234375,0.001898325514048338,-0.0013802126049995422,0.0025449965614825487
1772618912693183500,5.61718359375,-0.000258835032582283,0.0006083701737225056,0.0011135474778711796
1772618912703213600,5.627213623046875,-0.0015039523132145405,0.0005016913637518883,-0.0008173020323738456
1772618912713244400,5.637244384765625,-0.00038649002090096474,-0.0008714348077774048,0.00011347269173711538
1772618912723274200,5.647274169921875,-0.0003696396015584469,0.0015994766727089882,0.0012657372280955315
1772618912733305300,5.657305419921875,-0.0007885550148785114,0.0008940054103732109,-0.001885581179521978
1772618912743335200,5.667335205078125,-0.0007785572670400143,-0.00002466375008225441,-0.0006111593102104962
1772618912753365200,5.677365234375,0.0017818056512624025,0.0007409951649606228,0.0018772983457893133
1772618912763396400,5.687396240234375,0.001994097838178277,-0.001424029003828764,-0.0008454722701571882
1772618912773426200,5.69742626953125,0.0008694450370967388,0.0015997239388525486,-0.0014263077173382044
1772618912783457300,5.707457275390625,-0.0007063476368784904,-0.00004036910831928253,0.0006801695562899113
1772618912793487400,5.7174873046875,0.0006635822355747223,0.00001475820317864418,0.0008085339795798063
1772618912803518200,5.727518310546875,0.0009195799939334393,-0.0005375519394874573,-0.0016877130838111043
1772618912813548300,5.73754833984375,0.00047270162031054497,0.0008819126524031162,0.00023721973411738873
1772618912823579400,5.747579345703125,0.002756608184427023,-0.0011808853596448898,0.0012390497140586376
1772618912833610200,5.7576103515625,-0.002802207600325346,0.0000779908150434494,0.0007516914047300816
1772618912843640300,5.767640380859375,0.000045122113078832626,0.0002813776955008507,-0.0014338047476485372
1772618912853671400,5.77767138671875,-0.0006627459079027176,-0.0014472799375653267,0.0011678372975438833
1772618912863701200,5.787701171875,0.0021674982272088528,0.002696990966796875,-0.0013982485979795456
1772618912873732400,5.797732421875,0.0020713580306619406,-0.0013550091534852982,0.00013653107453137636
1772618912883762400,5.807762451171875,-0.0008488609455525875,-0.0014002001844346523,0.0024087373167276382
1772618912893793300,5.817793212890625,-0.0009106462821364403,0.0020049172453582287,0.0014252319233492017
1772618912903823400,5.8278232421875,0.000045128632336854935,-0.00018934067338705063,0.0008062539855018258
1772618912913854500,5.8378544921875,0.001375111285597086,-0.001888437196612358,-0.0005578171694651246
1772618912923884300,5.84788427734375,0.0008422210812568665,0.0008883662521839142,0.0031840912997722626
1772618912933915400,5.857915283203125,-0.0012086792849004269,-0.0005651875399053097,0.0008325200760737062
1772618912943945500,5.867945556640625,0.00044687697663903236,-0.0006373315118253231,-0.0038781054317951202
1772618912953976300,5.877976318359375,0.001723862485960126,-0.0035241981968283653,-0.00014834839385002851
1772618912964006400,5.88800634765625,0.0007165251299738884,-0.00006826454773545265,-0.001771191949956119
1772618912974037500,5.89803759765625,-0.0008278419263660908,0.0003008497878909111,0.0007148688891902566
1772618912984067300,5.9080673828125,-0.00008643651381134987,-0.001980625092983246,-0.0014397113118320704
1772618912994098400,5.918098388671875,0.0016984138637781143,0.0005182190798223019,0.0021640784107148647
1772618913004128500,5.92812841796875,-0.002301424276083708,0.00003486825153231621,0.001701718894764781
1772618913014159400,5.938159423828125,0.0006594783626496792,-0.000636780634522438,0.0023334205616265535
1772618913024190500,5.9481904296875,0.0010037911124527454,0.0002507227472960949,0.0009729077573865652
1772618913034220800,5.958220703125,0.0009318855591118336,-0.0009176060557365417,-0.00039915298111736774
1772618913044251600,5.968251708984375,-0.0018460368737578392,0.0029869424179196358,0.0011418646899983287
1772618913054281700,5.97828173828125,0.00020539620891213417,0.00044335750862956047,0.0016997969942167401
1772618913064312600,5.9883125,0.00035946397110819817,0.00009116530418395996,0.0023331381380558014
1772618913074342400,5.99834228515625,-0.0008448176085948944,0.0007018283940851688,0.0021160906180739403
1772618913084373500,6.00837353515625,-0.0005158162675797939,-0.0026998715475201607,0.000013452256098389626
1772618913094403600,6.018403564453125,0.0008242861367762089,-0.00039330730214715004,0.001028649159707129
1772618913104434400,6.028434326171875,-0.000002252403646707535,0.0013665687292814255,0.0026452033780515194
1772618913114464500,6.038464599609375,0.00000999821349978447,-0.0012419973500072956,-0.003650509286671877
1772618913124495600,6.04849560546875,0.0010507889091968536,-0.0012745782732963562,-0.0005930464249104261
1772618913134525400,6.058525390625,-0.00002832384780049324,0.00013423385098576546,0.00033186946529895067
1772618913144556500,6.068556640625,0.001286955550312996,-0.0005802060477435589,-0.002079540863633156
1772618913154586600,6.078586669921875,0.00045551685616374016,0.0008661570027470589,-0.00011412810999900103
1772618913164617500,6.088617431640625,-0.0017911018803715706,0.00012924522161483765,-0.00006772717460989952
1772618913174647600,6.0986474609375,0.0003948207013309002,-0.001987168565392494,-0.002496530069038272
1772618913184678700,6.1086787109375,-0.00022328319028019905,0.00014541903510689735,-0.00029630272183567286
1772618913194708500,6.11870849609375,0.00043877866119146347,-0.0015374324284493923,-0.00012506137136369944
1772618913204739600,6.128739501953125,0.0015189177356660366,0.0024258014746010303,-0.001158753875643015
1772618913214769700,6.138769775390625,0.0032148188911378384,0.0002840873785316944,0.0005371469305828214
1772618913224800500,6.148800537109375,-0.0030053071677684784,0.0005004564300179482,0.000003770226612687111
1772618913234831600,6.15883154296875,-0.000719782430678606,-0.0015014414675533772,0.00004531559534370899
1772618913244861700,6.16886181640625,0.0008526383899152279,-0.0006634420715272427,-0.003328129183501005
1772618913254892500,6.178892578125,-0.0002581663429737091,-0.0013769026845693588,0.0003955027787014842
1772618913264922600,6.188922607421875,0.0007653324864804745,-0.001002766191959381,0.0001707533374428749
1772618913274953700,6.19895361328125,0.0029240907169878483,0.0012992704287171364,-0.0007850551628507674
1772618913284983600,6.208983642578125,0.0021424093283712864,-0.0007416922599077225,0.0020808300469070673
1772618913295014700,6.2190146484375,0.00012000463902950287,0.002070073504000902,0.0024294378235936165
1772618913305044700,6.229044677734375,-0.0001573646441102028,0.0011383448727428913,0.000892305513843894
1772618913315075600,6.23907568359375,-0.000022076070308685303,-0.0015647634863853455,0.002088597510010004
1772618913325105700,6.249105712890625,-0.000441892072558403,-0.001349959522485733,0.002330068266019225
1772618913335136800,6.25913671875,0.0007890211418271065,-0.000019710510969161987,-0.002228198107331991
1772618913345166600,6.26916650390625,-0.0004091761074960232,-0.0008091675117611885,-0.0018725726986303926
1772618913355197700,6.27919775390625,0.0004121428355574608,0.000871553085744381,0.0017964642029255629
1772618913365227800,6.289227783203125,-0.0030654901638627052,-0.000742817297577858,-0.0014892423059791327
1772618913375258600,6.299258544921875,0.0009265881963074207,-0.00011644186452031136,0.0020405114628374577
1772618913385288400,6.309288330078125,-0.00031695282086730003,-0.0012825927697122097,-0.0007554243202321231
1772618913395319800,6.31931982421875,-0.0017254985868930817,-0.0005917688831686974,-0.0003487595822662115
1772618913405350700,6.3293505859375,0.0015587357338517904,-0.00045774830505251884,0.0007744778413325548
1772618913415380500,6.33938037109375,-0.000605881679803133,-0.0011166147887706757,0.001691137906163931
1772618913425411600,6.34941162109375,-0.0007259729318320751,-0.0008027167059481144,-0.00009202980436384678
1772618913435441400,6.35944140625,-0.0004498031921684742,-0.0009907358326017857,-0.0029554604552686214
1772618913445472500,6.369472412109375,0.0000805957242846489,-0.0023032240569591522,0.001294945366680622
1772618913455502600,6.379502685546875,-0.00033725425601005554,-0.0014331694692373276,0.0008099835831671953
1772618913465533400,6.389533447265625,0.00001310836523771286,-0.0012751356698572636,0.0007654004730284214
1772618913475563500,6.3995634765625,0.0007577282376587391,-0.0023252200335264206,-0.0005193084361962974
1772618913485594600,6.4095947265625,-0.000010863412171602249,-0.0006934739649295807,-0.0007321690791286528
1772618913495624400,6.41962451171875,0.000947341788560152,-0.00002315593883395195,0.0016020915936678648
1772618913505655600,6.429655517578125,0.0005445717833936214,0.0009979326277971268,-0.0003396900137886405
1772618913515685600,6.439685546875,0.0010681492276489735,-0.0010708109475672245,-0.000502142880577594
1772618913525716500,6.449716552734375,0.0008217743597924709,-0.0017317007295787334,0.0001752703683450818
1772618913535746600,6.45974658203125,-0.00159025052562356,-0.00019026314839720726,-0.0004867914831265807
1772618913545777700,6.469777587890625,0.0002340385690331459,0.001217805314809084,-0.0014411000302061439
1772618913555807500,6.479807373046875,0.0019379290752112865,0.002873492892831564,0.00017969985492527485
1772618913565838600,6.489838623046875,-0.0009584403596818447,0.000547636765986681,-0.0017326095839962363
1772618913575869400,6.499869384765625,-0.0005232798866927624,0.0011492450721561909,0.0014261656906455755
1772618913585899500,6.5098994140625,0.00010614609345793724,0.00032591819763183594,0.0023532938212156296
1772618913595930600,6.5199306640625,0.0014526403974741697,0.002125948201864958,-0.0018984428606927395
1772618913605960700,6.529960693359375,-0.0027460861019790173,0.0005559236742556095,-0.0019014611607417464
1772618913615991600,6.539991455078125,-0.0014065159484744072,0.00114474818110466,0.001223491970449686
1772618913626021600,6.550021728515625,-0.0011917720548808575,-0.00010650511831045151,-0.0005262978374958038
1772618913636052700,6.560052734375,0.002118537435308099,0.0010591605678200722,0.0009959650924429297
1772618913646082600,6.57008251953125,0.00027201883494853973,-0.0005158064886927605,-0.0006549967802129686
1772618913656113700,6.58011376953125,-0.00012319441884756088,0.0007987292483448982,-0.00023980997502803802
1772618913666143700,6.590143798828125,0.0008065304718911648,-0.001573601271957159,-0.0021438580006361008
1772618913676174600,6.600174560546875,-0.00043503521010279655,-0.00008409516885876656,0.0006612495053559542
1772618913686204700,6.61020458984375,0.0007937219925224781,-0.0015559219755232334,0.0009471136145293713
1772618913696235800,6.62023583984375,0.005172225181013346,-0.0024310369044542313,0.0029878937639296055
1772618913706265600,6.630265625,-0.001338559202849865,0.0026088361628353596,-0.0006721316021867096
1772618913716296700,6.640296630859375,-0.00042429612949490547,0.0009917649440467358,0.0008088522590696812
1772618913726326800,6.650326904296875,0.0002551199868321419,-0.0008533839136362076,-0.0008126439643092453
1772618913736357600,6.660357666015625,0.001258066389709711,-0.0004320717416703701,-0.000811312347650528
1772618913746387500,6.670387451171875,-0.0009079049341380596,0.0016587073914706707,-0.00022621545940637589
1772618913756418800,6.680418701171875,-0.001100984402000904,-0.00020337523892521858,-0.001607064506970346
1772618913766449700,6.69044970703125,0.000880042091012001,-0.00010890606790781021,0.00017077545635402203
1772618913776479500,6.7004794921875,-0.0019823238253593445,0.0028804922476410866,0.002273607300594449
1772618913786510600,6.710510498046875,-0.0005357703194022179,0.0008690417744219303,-0.0006709272274747491
1772618913796540400,6.72054052734375,0.0021095473784953356,-0.0006010234355926514,0.005333169363439083
1772618913806571500,6.730571533203125,-0.0025271084159612656,-0.0001010773703455925,0.00003236636985093355
1772618913816601600,6.7406015625,0.0008612312376499176,0.000039803795516490936,-0.0021780573297291994
1772618913826632400,6.750632568359375,-0.00022050552070140839,0.0013481439091265202,0.00171047099865973
1772618913836662500,6.76066259765625,-0.0009792405180633068,-0.000021519605070352554,-0.0007026192615740001
1772618913846693600,6.770693603515625,0.0008025830611586571,0.00022781500592827797,-0.00063102669082582
1772618913856723500,6.780723388671875,-0.0027945488691329956,0.0010944074019789696,-0.0004989339504390955
1772618913866754600,6.790754638671875,-0.0007415814325213432,0.0013508675619959831,0.0010514578316360712
1772618913876784600,6.80078466796875,-0.00014876201748847961,0.0020353002473711967,-0.001579479081556201
1772618913886815500,6.8108154296875,0.0004405267536640167,0.0002599107101559639,0.0011442917166277766
1772618913896845600,6.820845458984375,0.00086583336815238,-0.0011225361377000809,0.0009600009070709348
1772618913906876700,6.830876708984375,-0.0003941426984965801,0.00045147817581892014,0.0006746932631358504
1772618913916906500,6.840906494140625,0.001156616024672985,0.0002709156833589077,-0.0019543792586773634
1772618913926937600,6.8509375,-0.0008499901741743088,0.0012939129956066608,-0.0027930738870054483
1772618913936968400,6.860968505859375,0.0019513890147209167,-0.0015021399594843388,0.0029191405046731234
1772618913946998500,6.87099853515625,-0.001572547946125269,-0.00020768307149410248,-0.0019382585305720568
1772618913957029600,6.881029541015625,-0.000754691194742918,-0.0007152813486754894,0.00036351161543279886
1772618913967059700,6.891059814453125,0.00008322624489665031,-0.0006182286888360977,-0.0008973614894784987
1772618913977090600,6.901090576171875,-0.00031438330188393593,-0.0012973346747457981,-0.0026419982314109802
1772618913987120600,6.91112060546875,0.0013566608540713787,0.0007088175043463707,-0.0016408901428803802
1772618913997151500,6.9211513671875,-0.0008034291677176952,-0.0021434281952679157,0.0015184179646894336
1772618914007181600,6.931181640625,0.0012996792793273926,-0.000826873816549778,-0.0007475532474927604
1772618914017212700,6.941212646484375,0.000141204334795475,0.0002114931121468544,-0.002333998214453459
1772618914027242800,6.95124267578125,-0.002019159495830536,0.00003304844722151756,-0.0000755885848775506
1772618914037274400,6.9612744140625,0.0008671744726598263,0.0010048365220427513,-0.0010396528523415327
1772618914047304200,6.97130419921875,0.0010271265637129545,0.00007978593930602074,0.0009399405680596828
1772618914057335300,6.981335205078125,-0.0009545315988361835,0.0005018971860408783,0.001035814406350255
1772618914067365000,6.991365234375,-0.0014950851909816265,0.0004788595251739025,0.0037670570891350508
1772618914077396200,7.001396240234375,0.0010868494864553213,0.00027885567396879196,-0.0007659094408154488
1772618914087426300,7.01142626953125,0.00005540112033486366,0.00029778992757201195,-0.0026851780712604523
1772618914097457200,7.02145703125,-0.0025616874918341637,0.0006655724719166756,-0.0018044707830995321
1772618914107488300,7.03148828125,0.0009600508492439985,-0.0017427997663617134,-0.0004793175030499697
1772618914117518000,7.04151806640625,-0.00218301173299551,0.002071645576506853,-0.0009424412273801863
1772618914127549200,7.051549072265625,0.0020669710356742144,0.0010851998813450336,0.0014590371865779161
1772618914137579300,7.061579345703125,-0.000032665207982063293,-0.0012136409059166908,0.0034508155658841133
1772618914147610000,7.071610107421875,0.0009918070863932371,0.0018041874282062054,0.000358718098141253
1772618914157640200,7.08164013671875,0.0013412139378488064,-0.0003694845363497734,0.0004495318280532956
1772618914167671300,7.09167138671875,0.0009739662054926157,-0.0020573376677930355,0.0029699867591261864
1772618914177701000,7.101701171875,-0.0001221909187734127,0.00042872317135334015,0.0004042973741889
1772618914187732200,7.111732177734375,0.0033752950839698315,-0.00027267495170235634,0.00014519982505589724
1772618914197762300,7.12176220703125,0.00042105047032237053,-0.0009983866475522518,0.002137510571628809
1772618914207793200,7.131793212890625,0.000898479949682951,0.00019056536257266998,0.0016555082984268665
1772618914217823200,7.1418232421875,-0.00006079068407416344,-0.000883753877133131,0.0020571129862219095
1772618914227854300,7.151854248046875,-0.0009369319304823875,0.0013884645886719227,-0.0005370503640733659
1772618914237884200,7.16188427734375,0.0010665643494576216,0.0006619538180530071,0.0018411525525152683
1772618914247915300,7.171915283203125,0.0016687132883816957,0.0006188438273966312,-0.0016104000387713313
1772618914257945300,7.1819453125,0.0012908107601106167,-0.0001127263531088829,0.00027138961013406515
1772618914267976200,7.19197607421875,0.0001445426605641842,0.0008826064877212048,0.001982875168323517
1772618914278007300,7.20200732421875,-0.00022616935893893242,0.00013345899060368538,-0.0007982640527188778
1772618914288037400,7.212037353515625,0.000986082712188363,0.0009206943213939667,0.0002571804216131568
1772618914298068200,7.222068115234375,-0.001065084245055914,-0.001510238740593195,0.0024268575944006443
1772618914308098300,7.232098388671875,0.00018088053911924362,0.0007484839297831059,-0.0038827157113701105
1772618914318129400,7.24212939453125,-0.0016239439137279987,0.002548780757933855,0.002011924982070923
1772618914328159200,7.2521591796875,-0.000029996037483215332,0.0021095932461321354,-0.0030773815233260393
1772618914338190300,7.2621904296875,-0.0009514498524367809,-0.002019637729972601,-0.0006917219143360853
1772618914348220400,7.272220458984375,0.0005959072150290012,-0.0011995136737823486,-0.001993670593947172
1772618914358251300,7.282251220703125,-0.0014099855907261372,0.00022660940885543823,-0.0009081661119125783
1772618914368281300,7.29228125,0.0001498986966907978,-0.0017074253410100937,0.0009636855684220791
1772618914378312400,7.3023125,-0.0010272185318171978,0.0020838510245084763,0.0003647406119853258
1772618914388342000,7.312342041015625,-0.0008315220475196838,-0.0011328449472784996,0.002007201313972473
1772618914398373400,7.322373291015625,-0.00177108496427536,0.00039287982508540154,0.003135316539555788
1772618914408403200,7.3324033203125,0.0005210041999816895,-0.00008439505472779274,0.002684428356587887
1772618914418434000,7.34243408203125,0.0003939718008041382,-0.0018324940465390682,0.0004934458993375301
1772618914428464000,7.352464111328125,0.0019677411764860153,0.0019086366519331932,0.0012907484779134393
1772618914438495200,7.3624951171875,-0.0006746472790837288,-0.0018714545294642448,-0.0008304594084620476
1772618914448526000,7.372526123046875,0.0005568074993789196,0.00040851952508091927,0.0027180719189345837
1772618914458556200,7.38255615234375,0.0003735818900167942,0.0003906763158738613,-0.001249771798029542
1772618914468587300,7.392587158203125,-0.0002811877056956291,-0.00020162342116236687,-0.0008383970125578344
1772618914478617000,7.4026171875,-0.00026201270520687103,-0.004950838629156351,0.0028623314574360847
1772618914488648200,7.412648193359375,-0.0010771374218165874,0.0020320075564086437,0.001547468127682805
1772618914498678300,7.42267822265625,0.0006483248434960842,0.0017001782543957233,0.0019059297628700733
1772618914508709000,7.432709228515625,-0.0020154756493866444,0.001443337183445692,-0.0008655858691781759
1772618914518739200,7.4427392578125,-0.0005371551960706711,-0.0018832175992429256,-0.00019633350893855095
1772618914528770300,7.452770263671875,0.0009200447238981724,0.0023413272574543953,-0.0025340369902551174
1772618914538800000,7.462800048828125,-0.0006522852927446365,0.0013112165033817291,0.0006921164458617568
1772618914548831200,7.472831298828125,0.00004561571404337883,0.0008997255936264992,-0.0006862320587970316
1772618914558861300,7.482861328125,-0.00018448149785399437,0.0015620533376932144,-0.0002156514674425125
1772618914568892200,7.49289208984375,0.00034338049590587616,-0.0010330122895538807,-0.0009807598544284701
1772618914578922200,7.502922119140625,0.0009630979038774967,0.00007246574386954308,-0.0012052643578499556
1772618914588953300,7.512953369140625,-0.0006389208137989044,0.0014089099131524563,-0.0013126421254128218
1772618914598984200,7.522984130859375,-0.00004157377406954765,0.0016858787275850773,0.003013663226738572
1772618914609014300,7.53301416015625,-0.0006920597516000271,0.0028260010294616222,-0.00121604697778821
1772618914619045400,7.54304541015625,0.0011692233383655548,0.0010233069770038128,-0.002019256353378296
1772618914629075200,7.5530751953125,-0.001256351824849844,-0.0017936946824193,-0.0024753508623689413
1772618914639106300,7.563106201171875,0.0013655303046107292,-0.00029859598726034164,-0.0006777170929126441
1772618914649136400,7.573136474609375,-0.0006783977150917053,0.0012904251925647259,0.002098414581269026
1772618914659167200,7.583167236328125,-0.000791582278907299,0.003721625078469515,-0.00023504695855081081
1772618914669197300,7.593197265625,0.00047140195965766907,0.0032108346931636333,0.00036411185283213854
1772618914679228400,7.603228515625,0.002008578507229686,-0.0015029599890112877,-0.0002697205636650324
1772618914689258200,7.61325830078125,0.0005984790623188019,-0.00023046927526593208,-0.0020634315442293882
1772618914699289300,7.623289306640625,0.002083457773551345,-0.00037987250834703445,-0.0003297136863693595
1772618914709319400,7.6333193359375,-0.0005290829576551914,-0.0006238538771867752,0.0022784098982810974
1772618914719350300,7.643350341796875,0.0019231555052101612,-0.00023529864847660065,0.001064008567482233
1772618914729380400,7.65338037109375,-0.0034853233955800533,0.05945591256022453,0.017778078094124794
1772618914739411500,7.663411376953125,-0.00036063650622963905,0.06134728714823723,0.009435726329684258
1772618914749441000,7.67344091796875,0.0030684934463351965,-0.10940241813659668,-0.02366192825138569
1772618914759472400,7.683472412109375,-0.0030439933761954308,0.08809627592563629,0.012955471873283386
1772618914769503200,7.693503173828125,-0.0012286077253520489,-0.059506043791770935,-0.010103974491357803
1772618914779533000,7.703532958984375,0.0027083433233201504,-0.09477907419204712,-0.024372657760977745
1772618914789564400,7.713564453125,0.0004914700984954834,-0.016183629631996155,-0.004993723705410957
1772618914799594200,7.72359423828125,-0.0013849935494363308,0.05480239540338516,0.01177620142698288
1772618914809625000,7.733625,-0.0025877668522298336,0.06458757072687149,0.016432536765933037
