time,seconds_elapsed,z,y,x
1772619174074248000,0.074248046875,0.06824526870846748,-0.5141777490027248,0.7738960221596062
1772619174084278800,0.08427880859375,0.1076186631977558,-0.5304486464545131,0.7363762927129864
1772619174094310000,0.094309814453125,0.062090253210067746,-0.525983776000142,0.6545538956813514
1772619174104340700,0.1043408203125,-0.0561842440366745,-0.49586716241687534,0.5562049824690446
1772619174114372900,0.114372802734375,-0.18555413579344748,-0.43442660528719423,0.45276557771731163
1772619174124404000,0.124404052734375,-0.2874292869031429,-0.3613397417664528,0.349717546903342
1772619174134434800,0.134434814453125,-0.39817105055749413,-0.264146318732202,0.27117223531361667
1772619174144466000,0.1444658203125,-0.4976455702662468,-0.11242957061082125,0.1959756496299058
1772619174154497000,0.1544970703125,-0.5358335543632508,0.07246843936145306,0.203928143004328
1772619174164527900,0.16452783203125,-0.5269681108623743,0.2156172656238079,0.2513940969258547
1772619174174559000,0.17455908203125,-0.5162099854826927,0.318117855155468,0.3078119670553133
1772619174184590800,0.1845908203125,-0.5288572856098414,0.41064416316151614,0.3827857768338173
1772619174194621700,0.19462158203125,-0.48608431181013584,0.476288893982768,0.43800727678555995
1772619174204652800,0.20465283203125,-0.36457214781641956,0.4674006541281938,0.4254773924930021
1772619174214683600,0.21468359375,-0.1870306380867958,0.411494934771955,0.39112438344899564
1772619174224714800,0.22471484375,0.025989596781134605,0.3504278871297836,0.28202764705531297
1772619174234745900,0.234745849609375,0.1862251669228077,0.2824611431017518,0.14506540047340094
1772619174244777000,0.24477685546875,0.2568476861566305,0.21320348248034715,0.011243972667865455
1772619174254808000,0.25480810546875,0.19794716889858244,0.1808393822312355,-0.08391955197397619
1772619174264840000,0.26483984375,-0.03505319320261478,0.22403525761812923,-0.12182532159611582
1772619174274870800,0.274870849609375,-0.27812136033177376,0.32335078737288714,-0.14277834898214786
1772619174284901600,0.284901611328125,-0.427934905180335,0.408111722074449,-0.15673179980441926
1772619174294932500,0.294932373046875,-0.43668519786894316,0.46035833440124985,-0.16190269963629542
1772619174304963600,0.304963623046875,-0.3550502862334251,0.5037228443533182,-0.18197277017533778
1772619174314994700,0.31499462890625,-0.22746260171830654,0.541001020129025,-0.1889378234149888
1772619174325025500,0.325025634765625,-0.08288228134810924,0.5648050895646214,-0.18897252940218895
1772619174335057400,0.335057373046875,0.05982347732186317,0.5847776180133223,-0.2013492324270308
1772619174345088500,0.345088623046875,0.22524960184395312,0.5711097426667809,-0.2533885586787015
1772619174355119600,0.35511962890625,0.33435821133852,0.5959677050694823,-0.25877405110932883
1772619174365150700,0.365150634765625,0.3927630540341139,0.5645613439366222,-0.26405739833973346
1772619174375181600,0.375181640625,0.3925654856353998,0.5692535934060812,-0.30633403998985886
1772619174385212700,0.385212646484375,0.3982493764907121,0.6137196348592638,-0.2988356470584869
1772619174395243500,0.395243408203125,0.3626017245262861,0.641856765063107,-0.30368966296091676
1772619174405275600,0.405275634765625,0.33800036723315713,0.7024924355506896,-0.2913203760575503
1772619174415306500,0.415306396484375,0.3282739229887724,0.7530173386514186,-0.24669286043234168
1772619174425337600,0.425337646484375,0.2998655746281147,0.7942723091036081,-0.201112939453125
1772619174435368400,0.435368408203125,0.27078093444108964,0.8275804122045636,-0.1703957296282053
1772619174445399600,0.445399658203125,0.27087095081210133,0.8728075011581182,-0.14272037171721458
1772619174455430400,0.455430419921875,0.25314181737601754,0.8714546252444386,-0.12907331996299326
1772619174465461500,0.46546142578125,0.1330897890627384,0.8377069616824389,-0.16101692977771162
1772619174475493600,0.47549365234375,-0.0074824647098779675,0.814023011495173,-0.19980287976786493
1772619174485524700,0.485524658203125,-0.1340133336484432,0.7514514045089483,-0.25976386586427685
1772619174495555600,0.4955556640625,-0.24188743291199205,0.6797904821380972,-0.3205901635531336
1772619174505586700,0.505586669921875,-0.296039878860116,0.6154740773111581,-0.37557409188933666
1772619174515617500,0.515617431640625,-0.2953331918954849,0.541043982487917,-0.374323434241116
1772619174525648600,0.525648681640625,-0.2564209851771593,0.4674102987393737,-0.34901107913441953
1772619174535679500,0.535679443359375,-0.2204009927690029,0.39777416019439693,-0.30869733505509794
1772619174545711600,0.545711669921875,-0.15117022015452383,0.33978403577953575,-0.27082769619226454
1772619174555742500,0.555742431640625,-0.12891747181415558,0.2594704358756542,-0.21964389079138635
1772619174565773600,0.565773681640625,-0.1589396851122379,0.1721706303462386,-0.19419241947494445
1772619174575804700,0.5758046875,-0.16624913134276867,0.15038579177856445,-0.15728453831635414
1772619174585835800,0.585835693359375,-0.1874053166180849,0.1163239477008581,-0.14551387489326298
1772619174595866600,0.59586669921875,-0.27254560602605343,0.09351239643394947,-0.15016783817894755
1772619174605897700,0.605897705078125,-0.37364451206624505,0.08192191188335418,-0.23123700569048522
1772619174615928600,0.615928466796875,-0.5094453136533499,0.0706730803772807,-0.3372540058452636
1772619174625960700,0.625960693359375,-0.5715811595708131,0.047958559744060034,-0.43017172432169315
1772619174635991600,0.635991455078125,-0.5984346797049045,0.06699351508170366,-0.48315081564150747
1772619174646022700,0.646022705078125,-0.6033025780022144,0.08275251748859881,-0.46685544133558865
1772619174656053500,0.656053466796875,-0.5712152488678693,0.1363753866046667,-0.4133697887331247
1772619174666084600,0.666084716796875,-0.5043307471185923,0.20907003593742846,-0.40245537681318816
1772619174676115500,0.676115478515625,-0.38926352148056026,0.21852117037177085,-0.40119222500957546
1772619174686146600,0.686146484375,-0.19176935704648493,0.22135493249297142,-0.38784232957102355
1772619174696178700,0.6961787109375,-0.018170447462797164,0.21403379582464693,-0.37965873085446655
1772619174706209500,0.70620947265625,0.1398088681846857,0.22073972320407628,-0.38263584696911274
1772619174716240600,0.71624072265625,0.2659919465988874,0.23388591276407242,-0.4422824333541095
1772619174726271700,0.726271728515625,0.320848156902194,0.2471723875775933,-0.48982722466550765
1772619174736302600,0.736302490234375,0.3181652014285326,0.29588235021084547,-0.4784552782364189
1772619174746333700,0.746333740234375,0.2959907790213823,0.38183717087209224,-0.4576362159609794
1772619174756364500,0.756364501953125,0.30506138970553875,0.4708408577099442,-0.41349838354885576
1772619174766396400,0.766396484375,0.2607821029961109,0.5553045630306005,-0.34224311936944724
1772619174776427500,0.776427490234375,0.2754121013730764,0.6462181751430034,-0.2587164757031947
1772619174786458400,0.786458251953125,0.2209983741402626,0.6667535981714725,-0.1663918277490884
1772619174796489700,0.79648974609375,0.18133914844691754,0.6969128818526864,-0.10537928677313028
1772619174806520600,0.8065205078125,0.17813538396954534,0.6887707841902971,-0.0703367610950023
1772619174816551700,0.8165517578125,0.1743424214273691,0.6297989552617073,-0.023319208528101442
1772619174826582800,0.826582763671875,0.1545925958186388,0.5730091465473175,-0.0031196663904935118
1772619174836614700,0.83661474609375,0.10461948138177395,0.45713060452640053,-0.029504399969056246
1772619174846645500,0.8466455078125,-0.0011082535028457642,0.35688422366231676,-0.037916108353063464
1772619174856676600,0.856676513671875,-0.06791501384079456,0.2514011111885309,-0.07738930995501578
1772619174866707500,0.86670751953125,-0.15775895089507103,0.18015870649069546,-0.13296915835775433
1772619174876738600,0.876738525390625,-0.28152736938297745,0.1019438324317336,-0.17647512260712683
1772619174886769400,0.886769287109375,-0.39147009161412716,0.0245671627625823,-0.2149362245570868
1772619174896800500,0.896800537109375,-0.490500374686718,0.017044950564205647,-0.23413276366461067
1772619174906832600,0.90683251953125,-0.5615355663746595,0.011512450878322124,-0.18564649025201796
1772619174916863700,0.91686376953125,-0.5743120458394289,0.044943595837056635,-0.09469181547686457
1772619174926894600,0.92689453125,-0.5808405708253384,0.07320669050812721,-0.032949718117341396
1772619174936925700,0.93692578125,-0.5946574992537498,0.11195903048962354,0.008419672494754196
1772619174946956500,0.94695654296875,-0.6044903264820576,0.18419979857504368,0.06167111448254436
1772619174956987600,0.956987548828125,-0.495108745265007,0.21829291457384822,0.030647505589574575
1772619174967018500,0.9670185546875,-0.3434580481171608,0.19319588271826504,-0.028706070931907742
1772619174977050600,0.977050537109375,-0.18625205492973326,0.11523469115942717,-0.13271995110334828
1772619174987081500,0.98708154296875,-0.0492781179100275,0.03153875534087419,-0.23115383918536825
1772619174997112600,0.997112548828125,0.09143325207233428,-0.042591772013902664,-0.2846274725564755
1772619175007143400,1.007143310546875,0.24209727627038954,-0.09510404953956604,-0.32156931078359485
1772619175017174500,1.017174560546875,0.33560265844166276,-0.1420657072007656,-0.3354272288095206
1772619175027205600,1.02720556640625,0.4058493301004171,-0.14579729494452476,-0.3181624980147928
1772619175037236700,1.03723681640625,0.3801449800014496,-0.11782879930585623,-0.2832279992884025
1772619175047267600,1.047267578125,0.35937282560765743,-0.07498597514033317,-0.23104827818535267
1772619175057299700,1.0572998046875,0.34841596278548237,-0.036063539288938046,-0.19901267923824487
1772619175067330600,1.06733056640625,0.34667408755421636,0.0007978723794221877,-0.1904817649213597
1772619175077361700,1.077361572265625,0.33673604638576504,0.025574586239457128,-0.20412901760498062
1772619175087392500,1.087392578125,0.3191308315902948,0.02968289834111929,-0.20751370987351983
1772619175097423600,1.097423583984375,0.24140403330922125,0.03539075459390879,-0.179306674504932
1772619175107454500,1.107454345703125,0.13235153791606424,0.0416901469990611,-0.17409743369035421
1772619175117485600,1.117485595703125,0.04576747944056987,0.04886953710913658,-0.12608867812901733
1772619175127517700,1.127517578125,0.02117255188822746,0.03522854976952076,-0.0887046308260411
1772619175137548800,1.137548828125,-0.03712532330155372,0.019566285735368727,-0.026131051078438758
1772619175147579600,1.14757958984375,-0.1628828697800636,-0.007641162402927875,0.0018147578043863177
1772619175157610800,1.15761083984375,-0.2733113297015428,-0.010770108078420161,0.023915457388199866
1772619175167641600,1.1676416015625,-0.29828678100407124,-0.033251112216711044,0.029198092232551424
1772619175177672700,1.177672607421875,-0.2823363476783037,-0.05430032998621463,0.024803419203869997
1772619175187703600,1.18770361328125,-0.27029461222887036,-0.06536795970648526,0.035417825263924896
1772619175197735400,1.1977353515625,-0.2852724011301994,-0.08384820377081632,0.03092265100283548
1772619175207766500,1.2077666015625,-0.2566781748086214,-0.08673515738397836,0.036059739896655084
1772619175217797600,1.217797607421875,-0.13696107753813266,-0.11685147870630025,0.06651053560404106
1772619175227828500,1.227828369140625,-0.026184827092289923,-0.1251040510058403,0.14962441548462957
1772619175237859600,1.237859619140625,0.0821697491645813,-0.12970803766995667,0.18539034180017186
1772619175247890700,1.247890625,0.1558908189356327,-0.14914514406770468,0.19259946946138515
1772619175257921800,1.257921875,0.1631710390716791,-0.15867343539148568,0.20243450691308826
1772619175267953700,1.26795361328125,0.1327022510498762,-0.14153554584681988,0.21582263373648747
1772619175277984500,1.277984619140625,0.102870007365942,-0.147169460080564,0.18422140761865302
1772619175288016000,1.288015869140625,0.08343933070898056,-0.12792232329696415,0.12803699918519704
1772619175298046700,1.298046630859375,0.09704992291033267,-0.11633008518069982,0.10673283854024485
1772619175308077800,1.308077880859375,0.11302782876491546,-0.08105155878961086,0.08447724065566435
1772619175318108700,1.318108642578125,0.08634732711017132,-0.03583177635967731,0.06374275139113887
1772619175328139800,1.328139892578125,0.06868950534462928,0.025806056907773017,0.0706709980180487
1772619175338172000,1.338171875,0.009304419440031051,0.07346329561769963,0.08529062113147229
1772619175348203000,1.348203125,-0.06899228768348693,0.10841828914284705,0.10346079459963366
1772619175358233900,1.35823388671875,-0.1166249764740467,0.13662263936400412,0.13430849893642588
1772619175368265000,1.368264892578125,-0.18924714509248733,0.15639935297966,0.12459915195731446
1772619175378295800,1.3782958984375,-0.20014672476947307,0.1516074425280094,0.09929092503646388
1772619175388327000,1.388326904296875,-0.11165887849926948,0.11234306137114762,0.060259201858006414
1772619175398357800,1.398357666015625,0.006023498073220252,0.06990326504856348,0.06497220185454934
1772619175408390000,1.408389892578125,0.09831073662638663,0.04174304623007774,0.06467265265239402
1772619175418420700,1.418420654296875,0.15060381844341755,0.004167641073465347,0.052391573755443094
1772619175428451800,1.428451904296875,0.224610134896636,-0.013448387376964091,0.036626360803470016
1772619175438482700,1.438482666015625,0.260960966694355,-0.035142040529847145,0.04144143293499946
1772619175448513800,1.448513671875,0.246581728208065,-0.06506868449896573,0.07279078491730614
1772619175458544600,1.458544677734375,0.1905810240447521,-0.054848319257795805,0.09292982903933152
1772619175468576000,1.468575927734375,0.09804828629791736,-0.03488105150610208,0.10014083813037723
1772619175478606800,1.47860693359375,0.022779402562975882,-0.022428981690108776,0.12800525234006344
1772619175488639000,1.488638916015625,-0.03728898943066597,0.0014469839379191397,0.1532045389937237
1772619175498669800,1.498669921875,-0.06032148997187614,-0.001535246743261814,0.1415548350691795
1772619175508701000,1.508700927734375,-0.03896422916650772,-0.013129238425195216,0.135937068252638
1772619175518731800,1.518731689453125,-0.00783960758447647,-0.028681904605031013,0.170421631254442
1772619175528763000,1.528762939453125,0.025125088906288146,-0.05481207890063524,0.14079280118811874
1772619175538793700,1.538793701171875,0.02365267826616764,-0.05864625023603439,0.09428096965365111
1772619175548824800,1.548824951171875,0.0003875380128622055,-0.0500058476626873,0.12023681029565632
1772619175558857000,1.55885693359375,-0.014815876337885855,-0.04970306532382965,0.12802362824697047
1772619175568888000,1.56888818359375,-0.007982230925559997,-0.03416267410367727,0.12598065117727963
1772619175578919000,1.5789189453125,0.004262333619594574,-0.015496844339370727,0.1720720288099721
1772619175588950000,1.588949951171875,0.013513561567664145,-0.021337094800174233,0.14759784156046807
1772619175598980900,1.59898095703125,0.06859598184227943,-0.022475158919394014,0.12745963768865912
1772619175609012000,1.609011962890625,0.13470949921905995,-0.031444939577579496,0.13087941953688859
1772619175619042800,1.619042724609375,0.22812720310688017,-0.05390227057933807,0.1243344183402136
1772619175629074700,1.62907470703125,0.2511760702610016,-0.07412906605005264,0.0861089152444154
1772619175639105800,1.639105712890625,0.19969430482685566,-0.09611264206022023,0.08247468692790716
1772619175649137000,1.649136962890625,0.11298282057940959,-0.07793108868151903,0.08138557651694864
1772619175659167700,1.659167724609375,0.027600539109110832,-0.04128741141706705,0.10306158441528677
1772619175669198800,1.66919873046875,-0.046937692263722415,-0.036759997120499606,0.13322309658620507
1772619175679229700,1.679229736328125,-0.0970440776914358,-0.005301905800402164,0.15442779717836527
1772619175689261000,1.689260986328125,-0.06684533878266812,0.024927812768518923,0.140180149182491
1772619175699293000,1.69929296875,0.0028717560440301893,0.015802549287676812,0.11988105566054581
1772619175709323800,1.70932373046875,0.02112812822461128,-0.000353051221370697,0.12510649869125337
1772619175719355000,1.71935498046875,0.03818856861889362,-0.015432839192450046,0.10909081810954957
1772619175729385700,1.7293857421875,0.02835340330302715,-0.01931990975886583,0.054044784322567284
1772619175739416800,1.739416748046875,0.005644143366813659,-0.04693476965427398,0.04716149108223617
1772619175749448000,1.749447998046875,-0.03361526935398578,-0.06898293533325195,0.008670176657103002
1772619175759478800,1.759478759765625,-0.050832946136593816,-0.09920125572532415,-0.003626191140525043
1772619175769510700,1.7695107421875,-0.032358547291159626,-0.12588204964101313,-0.011648059956729412
1772619175779541800,1.779541748046875,-0.019969021317362785,-0.1202218319222331,-0.009340915525518358
1772619175789572900,1.78957275390625,-0.022214754417538642,-0.12429594949334859,0.012935798212327062
1772619175799604000,1.79960400390625,0.010647650742530821,-0.11083470263481139,0.005051474703289568
1772619175809634800,1.809634765625,0.04246200815439224,-0.11027765327394008,0.021067776339501142
1772619175819666000,1.819666015625,0.04606850821375846,-0.11305588581562041,0.043660716419667005
1772619175829696800,1.82969677734375,0.02840133409798145,-0.09117898505032063,0.0388425755482167
1772619175839729000,1.83972900390625,0.06604103666245938,-0.07516074718534946,-0.0025986016584560274
1772619175849759700,1.849759765625,0.10947335115373134,-0.11326134525984526,-0.010356522308848797
1772619175859790800,1.859790771484375,0.16096680702567098,-0.12800941705852747,-0.022223741441592573
1772619175869821700,1.86982177734375,0.18858897344470024,-0.1296332188680768,-0.026547340261749923
1772619175879852800,1.879852783203125,0.2105056216984987,-0.12242284909784792,-0.06329729091227054
1772619175889883600,1.889883544921875,0.20678163273930547,-0.11080284619182347,-0.11354754179008304
1772619175899914800,1.899914794921875,0.21392098309993743,-0.11171966877579688,-0.15387012676298617
1772619175909947000,1.90994677734375,0.2154296340972185,-0.15479951656758784,-0.17774970912020652
1772619175919978000,1.91997802734375,0.1822510025948286,-0.14866495933532714,-0.19809289751220494
1772619175930008800,1.9300087890625,0.08786942211091518,-0.12794132025837898,-0.2113965426562354
1772619175940040000,1.9400400390625,-0.039274610289931296,-0.10357377172112464,-0.19493563905768097
1772619175950070800,1.95007080078125,-0.13831599927842617,-0.0818120217680931,-0.21306845792382953
1772619175960102000,1.960101806640625,-0.2729378202140331,-0.059279287442564964,-0.2074635505888611
1772619175970132700,1.9701328125,-0.35252632071375845,-0.059603404830396174,-0.1702506951343268
1772619175980163800,1.980163818359375,-0.41901451662182804,-0.01607932040244341,-0.1763015196058899
1772619175990195700,1.99019580078125,-0.40495559613108634,-0.01223199732452631,-0.18536745411492883
1772619176000226800,2.000226806640625,-0.3506564351886511,-0.05836860233843326,-0.16605550846680997
1772619176010258000,2.0102578125,-0.3180523887038231,-0.0935477600082755,-0.14516067754141984
1772619176020289000,2.0202890625,-0.265403333055973,-0.09215572112798691,-0.12780066967867315
1772619176030319900,2.03031982421875,-0.17924305295050144,-0.11389233663976192,-0.07625888115298003
1772619176040351000,2.04035107421875,-0.13095219251215456,-0.13228665598630904,-0.059504511033184826
1772619176050382800,2.0503828125,-0.11582710409462452,-0.1388745099440217,-0.027108590873703358
1772619176060414000,2.0604140625,-0.07116437102556228,-0.12418635163903236,0.005109561566077172
1772619176070444800,2.07044482421875,-0.037518706533312796,-0.09428951828628777,0.031130466800928114
1772619176080476000,2.080475830078125,-0.03309387582838535,-0.08190349944382906,0.06707783236429095
1772619176090506800,2.0905068359375,-0.05661737475693226,-0.03589548924565315,0.08617485662009566
1772619176100537900,2.100537841796875,-0.09224223036766052,0.0028860768303275107,0.08237645071782171
1772619176110568700,2.110568603515625,-0.10753040039241313,0.027754268366098404,0.07483319573141634
1772619176120599800,2.120599853515625,-0.10038929646611214,0.03456307159811258,0.05233757854588329
1772619176130632000,2.1306318359375,-0.07543138082027435,0.026229250755906104,0.012198569978959857
1772619176140662800,2.140662841796875,-0.021102993783354757,0.020456512573361396,-0.028602665356360375
1772619176150694000,2.15069384765625,0.04893208095133304,0.010258359163999557,-0.05774217753577977
1772619176160725000,2.16072509765625,0.12981120578348637,-0.011590776811540126,-0.10383793908264487
1772619176170755800,2.170755859375,0.17513678667545318,0.021748890471458435,-0.10756309708561748
1772619176180787000,2.180786865234375,0.1825987931191921,0.045800504927337164,-0.10178407529275864
1772619176190817800,2.19081787109375,0.18806465730965136,0.04987579154223203,-0.10107603662125765
1772619176200849700,2.200849609375,0.15478607256412505,0.05777998879551887,-0.06228102654181421
1772619176210880800,2.210880859375,0.11182312915027141,0.06617401539236306,-0.03132840052582323
1772619176220911600,2.22091162109375,0.07013911963105202,0.06916121450960636,0.0009569719312712549
1772619176230943000,2.23094287109375,0.007675941455364227,0.05299830747693777,0.009727540222927928
1772619176240973800,2.240973876953125,-0.008742109382152558,0.010573124201595783,0.020498013627529142
1772619176251005000,2.2510048828125,0.0151145670235157,-0.005378185907006263,0.01078778986558318
1772619176261036000,2.2610361328125,0.051556584236025806,-0.03342413069605827,0.01040770450681448
1772619176271068000,2.27106787109375,0.09795417827367782,-0.0816904412150383,-0.01705686019770801
1772619176281098800,2.2810986328125,0.10623685345053673,-0.12008651510477066,-0.024975012911111115
1772619176291129300,2.29112939453125,0.09098901543617248,-0.12058014384061097,-0.004554594564437866
1772619176301160400,2.301160400390625,0.08586626559495926,-0.10189005641788243,-0.0011570245480164885
1772619176311191300,2.31119140625,0.08378712123334407,-0.10058394225537777,0.03187573221027851
1772619176321222400,2.321222412109375,0.07074293074309826,-0.06882774477154016,0.06928725204207002
1772619176331253200,2.331253173828125,0.047858314239978786,-0.042266485582292075,0.0981477280844003
1772619176341285400,2.341285400390625,0.0005050269126892089,-0.003928279359638691,0.11602116536200045
1772619176351316500,2.35131640625,-0.02456862406730652,0.020552666424214838,0.09595200813841075
1772619176361347300,2.361347412109375,-0.0015279402196407318,0.013357494223117827,0.07586944344397634
1772619176371378400,2.37137841796875,0.042996261161565776,0.004398527219891548,0.06166307730656117
1772619176381409300,2.3814091796875,0.07939268566668033,-0.0037388942673802373,0.0582898745464161
1772619176391440400,2.3914404296875,0.1242366205215454,0.002808043158054352,0.07112389288470149
1772619176401471500,2.401471435546875,0.1256225219219923,0.018057634738087653,0.09839815918151289
1772619176411503400,2.41150341796875,0.1281225220441818,0.023676059141755103,0.10478197846710681
1772619176421534200,2.4215341796875,0.11458265699148178,0.037762159900367256,0.11843100298270583
1772619176431565300,2.4315654296875,0.08011281663477421,0.049561318765580654,0.09221833803541958
1772619176441596200,2.44159619140625,0.050232642155885694,0.0350175373673439,0.09046418784447013
1772619176451627300,2.451627197265625,0.0012105448335409164,0.02592792972177267,0.05778729531913995
1772619176461658000,2.461658203125,-0.02079261265993118,0.005931143614649772,0.05154007149264216
1772619176471689500,2.471689453125,-0.0011900865674018858,0.013034253618121147,0.050578825245052576
1772619176481721300,2.481721435546875,-0.0003612345278263092,0.014536474874615669,0.035719402026385065
1772619176491752400,2.49175244140625,0.02056172651350498,0.0064610127076506615,0.040055531534552574
1772619176501783300,2.501783203125,-0.018577274698019026,0.0020773907959461212,0.035454029088467356
1772619176511814400,2.511814453125,-0.06190963594615459,0.010822715048491954,0.041015170346945524
1772619176521845200,2.52184521484375,-0.09379998120367526,0.026339433132112025,0.028565877009928225
1772619176531876400,2.53187646484375,-0.10916121646463871,0.015223580355942248,0.03219268920496106
1772619176541907200,2.5419072265625,-0.09631985507011413,0.0014510755911469459,0.057669952549785373
1772619176551939300,2.551939208984375,-0.06115209557712078,0.005903378824889659,0.03733100194148719
1772619176561970200,2.56197021484375,-0.05283493360877037,-0.0016398761615157127,0.032011049027740955
1772619176572001500,2.57200146484375,-0.05322773231863975,-0.0021606851652264595,0.03156542415209115
1772619176582032400,2.582032470703125,-0.03734744161963462,0.012956804467737674,0.01100523200854659
1772619176592063500,2.5920634765625,-0.012444471031427382,0.01642944901436567,0.003209317435324192
1772619176602094300,2.60209423828125,-0.0013818097472190856,0.026157062302529812,-0.004603475207462906
1772619176612125400,2.61212548828125,0.005931728136539459,0.0045937575310468675,-0.009604936756566167
1772619176622157300,2.6221572265625,0.05054243875741958,0.007108662961423397,0.008869900480285287
1772619176632188400,2.6321884765625,0.10468903948664665,0.004625029452145099,0.015510288342833517
1772619176642219300,2.64221923828125,0.0966524480253458,0.008496902449429035,0.03589899637699127
1772619176652250400,2.65225048828125,0.07790273936986923,0.02721796953231096,0.009365209716558456
1772619176662281200,2.66228125,0.0743529379338026,0.026788053682446477,-0.017588336725905537
1772619176672312300,2.672312255859375,0.0692939009785652,0.0029451135411858557,-0.06334960562139749
1772619176682343200,2.68234326171875,0.07897358347177505,-0.016292963153123854,-0.06831709183566272
1772619176692375300,2.692375244140625,0.11644903538525103,-0.02488338910490274,-0.054691155934706324
1772619176702406400,2.702406494140625,0.16728315056562423,-0.039674715523421764,-0.0616383447241038
1772619176712437500,2.7124375,0.1778501372873783,-0.05697656345814466,-0.054210386680439114
1772619176722468400,2.72246826171875,0.18197978443801402,-0.06664455551356077,-0.02388166471645236
1772619176732499500,2.73249951171875,0.1191132861584425,-0.0831695738568902,0.00545289511103183
1772619176742530300,2.7425302734375,0.024998247656226158,-0.09316548269242048,-0.011601590466499327
1772619176752561400,2.7525615234375,-0.04260580053925514,-0.09814210206121206,0.0045451326163485645
1772619176762593300,2.76259326171875,-0.07521919937431812,-0.11214695427715778,0.027459267474897204
1772619176772624100,2.7726240234375,-0.06886544643342495,-0.12671265524625777,0.041579307035729283
1772619176782655200,2.7826552734375,-0.035035657545924186,-0.1252060500755906,0.039754612359218296
1772619176792686300,2.792686279296875,-0.025832360392808913,-0.13194500294178724,0.07125530071202665
1772619176802717400,2.802717529296875,-0.05538637165725231,-0.12772767750769853,0.10362897250708192
1772619176812748500,2.81274853515625,-0.07646364647746086,-0.14016308844983577,0.11927779253777115
1772619176822779400,2.822779296875,-0.10711772793829441,-0.10979396141022443,0.15310714303385464
1772619176832811300,2.832811279296875,-0.10438450358211994,-0.07858984485119581,0.20739117947239427
1772619176842842400,2.84284228515625,-0.05993921265602112,-0.04894523269385099,0.2398342267092317
1772619176852873200,2.852873291015625,-0.059064767909049985,-0.06216068809777498,0.2412443492354825
1772619176862904300,2.862904296875,-0.060519642892479894,-0.07409545604139565,0.2051419757734984
1772619176872935200,2.87293505859375,-0.034084055909514424,-0.05777268227189779,0.17204196246527134
1772619176882966300,2.88296630859375,-0.02202186219394207,-0.07005757882744074,0.19202665627580134
1772619176892997400,2.892997314453125,-0.0014554595053195953,-0.06050502984523773,0.20027557531353085
1772619176903029500,2.903029541015625,-0.020894903990626334,-0.026951427550613877,0.20147596407923846
1772619176913060400,2.913060302734375,-0.03339081294834614,0.016017945604026317,0.18345782110132275
1772619176923091500,2.923091552734375,-0.03345803296566009,0.007911796037852763,0.15939740228448063
1772619176933122300,2.933122314453125,-0.04173310935795307,-0.011268120728433131,0.132196530017443
1772619176943153400,2.9431533203125,-0.06316928061842918,-0.04788870937824249,0.0672530062681064
1772619176953184300,2.953184326171875,-0.0555611437022686,-0.05724339770078659,0.019343473297543823
1772619176963215400,2.96321533203125,-0.05738835912942886,-0.051342356963455675,-0.011700739992037414
1772619176973247200,2.973247314453125,-0.05208733011186122,-0.04987549928128719,0.013332505912333726
1772619176983278300,2.9832783203125,-0.08005085731446743,-0.038487551565468306,0.03775624161623418
1772619176993309200,2.99330908203125,-0.10343407098948955,-0.02320902615189552,0.06581636106111109
1772619177003340300,3.00334033203125,-0.08851414975523948,-0.045205753904581064,0.03394508583024144
1772619177013371400,3.013371337890625,-0.06302315014600754,-0.06595365063995122,0.02527450731433928
1772619177023402500,3.023402587890625,-0.04948445413708687,-0.08247808446139097,-0.004488105199486017
1772619177033433300,3.033433349609375,-0.04057692506015301,-0.11858107897788285,-0.011154212025180459
1772619177043465500,3.043465576171875,0.002740238618850708,-0.11452829645574092,-0.01122640047855675
1772619177053496300,3.053496337890625,0.051851183268427845,-0.12959113329201935,-0.019748729630187152
1772619177063527400,3.06352734375,0.11482815618515015,-0.13121785771101713,-0.005088336114957928
1772619177073558300,3.073558349609375,0.15734920105040073,-0.14759236166775225,0.005220876453444361
1772619177083589400,3.08358935546875,0.14385960488021374,-0.11785422600805759,0.051857905270159245
1772619177093620200,3.0936201171875,0.11185936950743197,-0.10830722998380661,0.08853409656472504
1772619177103651300,3.1036513671875,0.08734335241019725,-0.07889788788706063,0.11024864637516438
1772619177113683500,3.113683349609375,0.04889291798472404,-0.08598112414628267,0.10173910363987088
1772619177123714600,3.123714599609375,0.0265823019772768,-0.09100859691947698,0.09110906161926687
1772619177133745400,3.133745361328125,-0.006425064611434936,-0.08635054198056459,0.0876042683687061
1772619177143776500,3.143776611328125,-0.01374912388920784,-0.04939268420040607,0.10189392887540161
1772619177153807400,3.153807373046875,0.008539864808320998,-0.06571691927462815,0.10418905407525599
1772619177163838500,3.16383837890625,0.05324935962855815,-0.07726853311955928,0.09774309280626475
1772619177173869300,3.173869384765625,0.07569207758307457,-0.07949731508493423,0.09594809914827346
1772619177183901200,3.183901123046875,0.10106675733625889,-0.09861234992146492,0.0898299815941602
1772619177193932300,3.193932373046875,0.14405775780081748,-0.09220277514010668,0.07241612465232611
1772619177203963400,3.20396337890625,0.15769640705287455,-0.09258183758556843,0.007468801510706544
1772619177213994200,3.213994140625,0.13673895922005175,-0.09413608129024505,-0.03382920436561108
1772619177224025300,3.224025390625,0.1461830793917179,-0.10473813932538031,-0.08760339158587158
1772619177234056200,3.23405615234375,0.16132511894404888,-0.13256898005902767,-0.15473763031251728
1772619177244087600,3.244087646484375,0.18376959046423433,-0.1669467582181096,-0.2142170434370637
1772619177254119400,3.254119384765625,0.19879238755106926,-0.18675766636431215,-0.23687713046930728
1772619177264150300,3.264150390625,0.19051497307121754,-0.16710574817210436,-0.20239216560870407
1772619177274181400,3.274181396484375,0.19849135877788066,-0.14242635720670221,-0.1642895947728306
1772619177284212200,3.284212158203125,0.1904512601852417,-0.07846592621058225,-0.09376286406368016
1772619177294243300,3.294243408203125,0.16275135235488414,0.00810147339105606,-0.04178213613145053
1772619177304274400,3.3042744140625,0.1142155772447586,0.06864829655140638,-0.013112433420866727
1772619177314305300,3.31430517578125,0.09506839370429515,0.12519406737685204,0.05205956532210111
1772619177324337200,3.324337158203125,0.03880173208117485,0.15922230144590138,0.0690035397298634
1772619177334368500,3.334368408203125,-0.028588965624570844,0.1814525456935167,0.0716802115932107
1772619177344399400,3.3443994140625,-0.10181202274560927,0.18378858742564916,0.07523067061640322
1772619177354430500,3.354430419921875,-0.16334347302913665,0.1872027797833085,0.07265402506142854
1772619177364461300,3.36446142578125,-0.17266250551640985,0.17208032171428203,0.052758909230493006
1772619177374492400,3.374492431640625,-0.0953542249083519,0.12942892846763132,0.016410452052950858
1772619177384523300,3.384523193359375,-0.07495908713340758,0.10543196680843829,-0.029450441292114556
1772619177394555400,3.394555419921875,-0.048368601849675175,0.0860448370322585,-0.052873658183962106
1772619177404586200,3.404586181640625,-0.02691080327928066,0.05809855322539806,-0.07165942453350871
1772619177414617300,3.414617431640625,-0.05540799896717071,0.0414747506827116,-0.06261329070348293
1772619177424648200,3.424648193359375,-0.07330839731693267,0.035949557520449156,-0.07980422560963779
1772619177434679300,3.43467919921875,-0.04631166931986808,0.029182255342602728,-0.08497994774710387
1772619177444710100,3.444710205078125,0.016558920612931252,0.017201017908751965,-0.052871977683529255
1772619177454741200,3.4547412109375,0.04344166684150696,0.021922785733640194,-0.02120966902822256
1772619177464773400,3.4647734375,0.07153145077228545,0.012496785740554331,0.01427786047104746
1772619177474804500,3.474804443359375,0.09382160851359367,0.005013151986896992,0.0545525877142325
1772619177484835300,3.48483544921875,0.10868366208076477,-0.010013736753165721,0.03677800770122558
1772619177494866400,3.494866455078125,0.1094359417527914,-0.021985621836781502,0.0447772993594408
1772619177504897300,3.504897216796875,0.11094108561873435,-0.03323445334285498,0.024882877648249268
1772619177514928400,3.514928466796875,0.09438801022469998,-0.06858078427314758,0.01967310711070895
1772619177524959200,3.524959228515625,0.07114508180320263,-0.0735077192813158,0.04693476965427398
1772619177534991400,3.534991455078125,0.08365852641761302,-0.045161037980020045,0.06685374128483236
1772619177545022200,3.545022216796875,0.11209434730708598,-0.021512743628025053,0.07949731508493423
1772619177555053300,3.55505322265625,0.09132979169785976,0.0073012629240751265,0.1168173207083717
1772619177565084400,3.56508447265625,0.06108312199413776,0.024651041653752325,0.16917086400836706
1772619177575115500,3.575115478515625,0.017218261304497717,0.049698096887767315,0.19988716051783412
1772619177585146400,3.585146484375,-0.02860650128126144,0.07887596831619739,0.21886757265664636
1772619177595177500,3.595177490234375,-0.07634265044629573,0.06811053641289472,0.246290599774383
1772619177605209300,3.605209228515625,-0.08460603640079498,0.06355418828278779,0.2170552990702912
1772619177615240400,3.615240478515625,-0.07079962936639786,0.05180822090953588,0.19302019735779613
1772619177625271300,3.625271240234375,-0.06862696150243282,0.008500701841711998,0.1263111617732793
1772619177635302400,3.635302490234375,-0.03779050921201706,-0.058473524017632006,0.072585562935099
1772619177645333200,3.645333251953125,-0.04281798198521137,-0.10788286709189414,0.058027095424383876
1772619177655364400,3.6553642578125,-0.06964519863426685,-0.12622311816364526,0.042000235861539836
1772619177665395200,3.665395263671875,-0.09452946452200413,-0.11228373239934444,0.02247066540736705
1772619177675427300,3.67542724609375,-0.09386427861154079,-0.12323124287128448,0.039472544014826416
1772619177685458400,3.68545849609375,-0.12290507965683936,-0.12879413769543172,0.06021331688966602
1772619177695489300,3.6954892578125,-0.15925708049833773,-0.1116428041473031,0.05197144864723086
1772619177705520400,3.705520263671875,-0.17771569725275038,-0.10646715507507323,0.05422861645687371
1772619177715551500,3.715551513671875,-0.16047230150699615,-0.11919658052772283,0.030518728110753
1772619177725582300,3.725582275390625,-0.09361936393976211,-0.14453297409713267,0.020713373411260543
1772619177735613400,3.735613525390625,-0.0892494782924652,-0.22232056265473366,-0.00389803035184741
1772619177745645300,3.745645263671875,-0.07264847210347652,-0.2448620648086071,-0.062033152727968985
1772619177755676200,3.75567626953125,-0.07253799746632575,-0.27025311117470263,-0.0643636049695313
1772619177765707300,3.765707275390625,-0.06252689106166362,-0.29344869332313533,-0.06329999432601034
1772619177775738000,3.775738037109375,-0.010661679267883301,-0.262751357242465,-0.04095372248329222
1772619177785769500,3.78576953125,0.06545242311954498,-0.2511877606987953,0.004609356958977878
1772619177795800300,3.79580029296875,0.09178396520614623,-0.22216244948357342,-0.03638283437117934
1772619177805831400,3.80583154296875,0.09141337832808494,-0.19209873513132333,-0.055261576233804226
1772619177815863300,3.81586328125,0.04266249916255474,-0.15525544364154337,-0.08550042795725166
1772619177825894400,3.825894287109375,0.01230477029979229,-0.1224286943167448,-0.08507635732628405
1772619177835925200,3.83592529296875,-0.08010872498154639,-0.08966507335603237,-0.052673569034598765
1772619177845956400,3.845956298828125,-0.16766718144714832,-0.029233985529839992,-0.024985936163924635
1772619177855987200,3.8559873046875,-0.18635668434798716,0.0212754277408123,0.012128829210996627
1772619177866018300,3.866018310546875,-0.18095453304350376,0.0406336236834526,0.02914068122319877
1772619177876050200,3.87605029296875,-0.13764964432418345,0.04142068240791559,0.018348653573915363
1772619177886081500,3.88608154296875,-0.09674714057147503,0.01988718825280666,-0.0030910248178988692
1772619177896112400,3.8961123046875,-0.058785366445779794,0.011475918260216713,-0.0388864877551794
1772619177906143500,3.9061435546875,-0.06636427726745606,0.008598316997289657,-0.0676924936639145
1772619177916174300,3.91617431640625,-0.05964227553606033,0.004734335045516491,-0.09495499645769595
1772619177926205400,3.926205322265625,-0.06116086340546607,-0.013335866913199424,-0.13031122772749512
1772619177936236300,3.936236328125,-0.029355858343839643,0.009927812035381794,-0.10963055100943893
1772619177946268400,3.946268310546875,0.013829787909984587,0.03922317236363888,-0.07128123887088149
1772619177956299300,3.95629931640625,0.05468786799907684,0.06954992156624794,-0.021728432205319403
1772619177966330400,3.966330322265625,0.10462240399122237,0.09724076930731534,0.023451200877316294
1772619177976361200,3.976361328125,0.18451368682980537,0.12456745991110801,0.063889740380086
1772619177986392300,3.986392333984375,0.2634317407220602,0.12440642413049935,0.08430066024605185
1772619177996423200,3.996423095703125,0.36398470331728455,0.10452274300903082,0.11185228217951952
1772619178006454500,4.00645458984375,0.4800555530399084,0.07743073794394731,0.12563384703360497
1772619178016486400,4.016486328125,0.5879904425799847,0.03353577437698841,0.1600865901250392
1772619178026517500,4.026517578125,0.6502011072993278,0.014323124384880065,0.20170140686556695
1772619178036548400,4.03654833984375,0.6502145513027906,0.02084375832527876,0.2334523801850155
1772619178046579500,4.046579345703125,0.5731278044909238,0.02790215240418911,0.24042499567661432
1772619178056610300,4.0566103515625,0.44175709430575366,0.015780629716813564,0.20744250780083237
1772619178066641400,4.066641357421875,0.24916297687292097,-0.03022182752341032,0.158012633395195
1772619178076672300,4.07667236328125,0.051936523464322086,-0.07795271599143742,0.10588573845792561
1772619178086704000,4.0867041015625,-0.10855740535259246,-0.10502601635605097,0.08500478992741554
1772619178096735200,4.0967353515625,-0.21818448576331137,-0.12692980512827634,0.059415079184062775
1772619178106766300,4.106766357421875,-0.26984277680814267,-0.12720745302587746,0.06290635536592454
1772619178116797400,4.11679736328125,-0.29410277331769463,-0.14625585236698388,0.0779599129172042
1772619178126828500,4.12682861328125,-0.2809294034898281,-0.17166531117260456,0.0897936316391453
1772619178136859400,4.136859375,-0.22009470329880712,-0.17478578128069638,0.09435914945639669
1772619178146890500,4.146890380859375,-0.2041670663267374,-0.17787527172863482,0.11081070070471614
1772619178156922400,4.15692236328125,-0.20125380922853944,-0.17230594716370104,0.1573543521495536
1772619178166953200,4.166953125,-0.20985680240094662,-0.16789134559184313,0.19236133159026503
1772619178176984300,4.176984375,-0.21521043838858603,-0.1705523814946413,0.2089574424084276
1772619178187015200,4.18701513671875,-0.22980419640839098,-0.19060206683278083,0.1930255676526576
1772619178197046300,4.19704638671875,-0.27836393691599365,-0.1882154639571905,0.1575529434615746
1772619178207077400,4.207077392578125,-0.30926644017994404,-0.14838468108922243,0.13609843282680958
1772619178217108200,4.217108154296875,-0.3000444383263588,-0.13284984282702206,0.10323621032983064
1772619178227140400,4.227140380859375,-0.2868886041551828,-0.13054507301598786,0.08095292072072624
1772619178237171500,4.23717138671875,-0.2549386376649141,-0.10407295341491699,0.054078576994314786
1772619178247202300,4.247202392578125,-0.198764915022254,-0.09167875126600265,0.041745822709053755
1772619178257233400,4.2572333984375,-0.11898293777704239,-0.0952928501099348,0.0032917350217700004
1772619178267264300,4.26726416015625,-0.014426000237464903,-0.09946955127269029,0.007924436323717235
1772619178277295400,4.27729541015625,0.07148001284599304,-0.08836334310770035,-0.017607808611355722
1772619178287326700,4.28732666015625,0.13223112640678883,-0.08280337089300155,-0.037126053953915834
1772619178297358800,4.29735888671875,0.1925894412577152,-0.10996405728012323,-0.06403514020014554
1772619178307389700,4.3073896484375,0.18250176248550415,-0.08531360014826059,-0.06580675298254937
1772619178317420800,4.3174208984375,0.1742424681842327,-0.04838409167975187,-0.08172901965975761
1772619178327451600,4.32745166015625,0.11197978101670741,-0.012890168972313404,-0.07376180364023893
1772619178337482800,4.337482666015625,0.060088265737891194,0.04776771334707737,-0.03158241181951016
1772619178347513600,4.347513671875,0.06800386116802692,0.07843757689893245,-0.003177314861863851
1772619178357544700,4.357544677734375,0.09658931966125965,0.08501578624546527,0.026088527110964058
1772619178367576800,4.367576904296875,0.12099778473079204,0.10474310776144266,0.02104907163903117
1772619178377608000,4.37760791015625,0.13095862225294114,0.12739362324774264,0.01107895483188331
1772619178387638800,4.387638671875,0.12078560328483581,0.10397913765162228,0.0251511001303792
1772619178397670000,4.397669921875,0.11377893939316272,0.12571078472733496,0.024617358579859135
1772619178407700700,4.40770068359375,0.09731529584825038,0.11978840894103049,0.015963658133521675
1772619178417731800,4.41773193359375,0.06967559377253055,0.12393354592174291,0.04838058454841375
1772619178427762700,4.4277626953125,0.058250528916716574,0.1318672615304589,0.05671360167302191
1772619178437794600,4.437794677734375,0.033356326156854625,0.12202683551758527,0.0242228793695569
1772619178447825700,4.44782568359375,-0.02491875267922878,0.09148702808618545,0.013617898724973201
1772619178457856800,4.457856689453125,-0.08335515955686569,0.08507569973915814,0.006239040520042181
1772619178467887900,4.467887939453125,-0.1119499704003334,0.08867956945002078,0.004361190884187818
1772619178477919000,4.4779189453125,-0.08243103044927119,0.07628390599638223,-0.026367197921872136
1772619178487949800,4.48794970703125,0.009874912804365157,0.04386369164586067,-0.02746383405216038
1772619178497981700,4.497981689453125,0.08539046477675437,0.004081716355681419,-0.04663198731541633
1772619178508012800,4.5080126953125,0.1318359896093607,-0.024959961472451685,-0.04819974808879196
1772619178518043600,4.518043701171875,0.12496610383987426,-0.05519347943365573,-0.04687222581207752
1772619178528074800,4.52807470703125,0.12316110024452209,-0.05494534989148378,-0.019166618893295524
1772619178538105600,4.538105712890625,0.09391863914728164,-0.061246203601360315,0.0636655397027731
1772619178548136700,4.54813671875,0.055611412584781646,-0.04119330339282751,0.11728270973041653
1772619178558167800,4.558167724609375,-0.0053606502503156656,-0.04703793776780366,0.14594393687359988
1772619178568200000,4.568199951171875,-0.07422142050862311,-0.03914075477719307,0.1744287845365703
1772619178578230800,4.578230712890625,-0.1573597224444151,-0.04095277263522148,0.18214330443665383
1772619178588262000,4.588261962890625,-0.21706103469133375,-0.04603372916132211,0.13291677058339119
1772619178598292700,4.598292724609375,-0.23704408453404902,-0.06683306382298469,0.11631459535062312
1772619178608323800,4.60832373046875,-0.26743746923208234,-0.07256897712647914,0.07737374705970287
1772619178618354700,4.618354736328125,-0.2708826412498951,-0.06148556531518697,0.029363237932696937
1772619178628385800,4.6283857421875,-0.2240437331855297,-0.0612839052632451,-0.0015456950720399618
1772619178638417700,4.638417724609375,-0.17201836239397525,-0.08440729895830154,-0.04327602795101702
1772619178648448800,4.64844873046875,-0.14243746312260627,-0.12003332361280918,-0.07563822850398719
1772619178658479600,4.658479736328125,-0.10237257923781871,-0.16077742193341255,-0.1054874233227223
1772619178668510700,4.6685107421875,-0.05929682309925556,-0.18337211557924746,-0.11822978132218122
1772619178678541600,4.67854150390625,0.025457097339630124,-0.17729659505784512,-0.08177709658518433
1772619178688573000,4.688572998046875,0.04325929601192474,-0.1668096878349781,-0.025608050117641685
1772619178698603800,4.698603759765625,0.07942424984872341,-0.1333382108658552,0.026642873058095574
1772619178708636000,4.708635986328125,0.0642138212352991,-0.11034779590070247,0.05457001377306878
1772619178718666800,4.718666748046875,-0.008997545447945595,-0.05986322481036186,0.060345016977936025
1772619178728697900,4.72869775390625,-0.08994564386308193,-0.014114742331206798,0.061018605390563606
1772619178738728700,4.738728759765625,-0.15191431652009485,0.010647650742530821,0.07954349231421946
1772619178748759800,4.748759765625,-0.16983692670166492,0.05710954218804836,0.08972082213126123
1772619178758790700,4.758790771484375,-0.11377777034938334,0.05917699611186981,0.08203918158747256
1772619178768821800,4.76882177734375,-0.04088263000845909,0.031284780579805375,0.040859468328580256
1772619178778853600,4.778853515625,0.03237608294785022,-0.009779051214456557,-0.024470424389839172
1772619178788885000,4.788885009765625,0.11177461383342742,-0.041430619280040264,-0.055353200040012596
1772619178798915800,4.798915771484375,0.14775310518741608,-0.0727758978754282,-0.12685140612982213
1772619178808947000,4.808947021484375,0.1575596289306879,-0.07325286773741245,-0.17753602983690797
1772619178818977800,4.818977783203125,0.16838848145902155,-0.04992138424962759,-0.2097265270847827
1772619178829009000,4.8290087890625,0.1338525901287794,-0.024113281515240666,-0.2187835476350039
1772619178839040800,4.839040771484375,0.07722995467483997,0.012122107209265232,-0.23488588358685372
1772619178849071600,4.849071533203125,0.041516251736879346,0.02299129174798727,-0.2770378028787672
1772619178859102700,4.859102783203125,0.02443827568590641,0.007304185533523559,-0.3132560212727636
1772619178869133800,4.8691337890625,0.017840777117013932,0.0005339607462286949,-0.3524704988732934
1772619178879164700,4.87916455078125,0.03183189306855202,-0.033306641796231266,-0.3711490419887006
1772619178889195800,4.88919580078125,0.0458709398150444,-0.0538923337072134,-0.3524840890072286
1772619178899226600,4.8992265625,0.08560381526648998,-0.08222060256898403,-0.32615218159444626
1772619178909258800,4.9092587890625,0.11862871751189231,-0.12110066058337687,-0.31945027280300853
1772619178919289900,4.919289794921875,0.12398936776220798,-0.1204527180686593,-0.2958638647060841
1772619178929320700,4.92932080078125,0.08796177656948566,-0.14171645537167787,-0.28272023242935534
1772619178939351800,4.939351806640625,0.03771627493202686,-0.15223638808131218,-0.25324717744663355
1772619178949382700,4.949382568359375,-0.0038590135157108305,-0.1573936247140169,-0.25560586940199137
1772619178959413800,4.959413818359375,-0.029842765077948568,-0.1801151596099138,-0.27378106610514225
1772619178969444900,4.96944482421875,-0.03351122445762157,-0.15777736333459616,-0.2625548117570579
1772619178979476700,4.979476806640625,-0.04473521378338337,-0.13914572810083628,-0.2242827295731753
1772619178989507600,4.989507568359375,-0.05478489863276481,-0.12913053004294633,-0.15716186178475616
1772619178999538700,4.99953857421875,-0.06590835019350051,-0.09975362891107797,-0.12147870011553168
1772619179009569800,5.00956982421875,-0.009708908587694168,-0.11572364372014998,-0.06568674333207308
1772619179019601000,5.019600830078125,0.07356617147028446,-0.13741291295886038,-0.027832667364552616
1772619179029631700,5.0296318359375,0.17348960399031638,-0.12304127325713633,-0.004477583805471658
1772619179039662800,5.039662841796875,0.20759937886297702,-0.12555793225318193,0.04505772373601794
1772619179049694700,5.04969482421875,0.17898878592848777,-0.10714607724994421,0.12544738455079496
1772619179059725800,5.059725830078125,0.08319850769042968,-0.07823299423754215,0.17395583326257763
1772619179069756700,5.069756591796875,-0.018234160348773003,-0.07849222969561814,0.1797282791841775
1772619179079787800,5.079787841796875,-0.12925006476938725,-0.08512392279505729,0.15957257618829607
1772619179089818600,5.089818603515625,-0.2341308274358511,-0.12324936304986477,0.09927161754779518
1772619179099849700,5.099849609375,-0.33804537541866303,-0.11910948676615953,0.07132964458987116
1772619179109880600,5.109880615234375,-0.34742812079191204,-0.0729670365333557,0.07893727004937827
1772619179119913000,5.119912841796875,-0.3260205911040306,-0.019124971708655358,0.16831841189749538
1772619179129943800,5.12994384765625,-0.30047289287149903,0.009694587801396846,0.2303754204250872
1772619179139975000,5.139974853515625,-0.2546341017603874,0.04179302285164595,0.27854075478762386
1772619179150005800,5.150005859375,-0.2230108830064535,0.054957624851167196,0.2864092962056398
1772619179160036900,5.160036865234375,-0.1896048724889755,0.06571078179478645,0.31857414755560454
1772619179170067700,5.170067626953125,-0.16615034714341162,0.08230097432881593,0.3113903004661202
1772619179180099800,5.180099853515625,-0.13079261803627013,0.07436521289348602,0.3102403267133981
1772619179190130700,5.190130615234375,-0.09134382022321223,0.057743163916468616,0.2889441484455019
1772619179200161800,5.200161865234375,-0.04654664711952209,0.0553843258306384,0.26393932491801675
1772619179210192600,5.210192626953125,0.0065092357635498045,0.0331353768825531,0.19139548223279415
1772619179220223700,5.2202236328125,0.056177229773998257,0.010250175857543944,0.1072143201805651
1772619179230254600,5.230254638671875,0.07491115633845329,-0.0007578326299786568,0.0444411262076348
1772619179240286000,5.240285888671875,0.04223462913930416,0.03759644794464111,-0.016448226780071854
1772619179250317800,5.25031787109375,0.036983284482359886,0.07027297514379025,-0.026936960633844136
1772619179260348700,5.2603486328125,0.05696107362806797,0.08975275163948536,-0.05299838054217398
1772619179270379800,5.2703798828125,0.104582071980834,0.07586334249675274,-0.0808952722493559
1772619179280411000,5.280410888671875,0.22113106060922144,0.06549889260977507,-0.08212306047864258
1772619179290441700,5.290441650390625,0.317366160005331,0.04614595736414194,-0.07842625178731978
1772619179300472800,5.300472900390625,0.3753676825970411,0.021220774944126605,-0.08606829097308218
1772619179310503700,5.310503662109375,0.4427759159594774,0.01855184799581766,-0.08496975514665246
1772619179320535600,5.32053564453125,0.44652620840370655,0.001949088241159916,-0.1036537781547755
1772619179330566700,5.330566650390625,0.44696050816774363,-0.00012245733588933945,-0.10482925167493522
1772619179340597500,5.340597412109375,0.3982090444803238,-0.027176468478143215,-0.10925802790261804
1772619179350628600,5.350628662109375,0.3546241697758436,-0.030143209329247474,-0.07461158886998892
1772619179360659700,5.36065966796875,0.3106049953073263,-0.03155687551945448,-0.042618075498938555
1772619179370691800,5.37069189453125,0.2678974879592657,-0.006631693099439144,-0.054862128587439656
1772619179380722700,5.38072265625,0.21373393609523772,-0.013388181622326373,-0.023972850131243464
1772619179390753800,5.39075390625,0.15490531502962113,-0.03585837210565805,0.02600515967644751
1772619179400784600,5.40078466796875,0.1207639759749174,-0.03849778069853783,0.02715652166865766
1772619179410815700,5.410815673828125,0.10482231047749518,-0.04638619586080312,0.03515168514102697
1772619179420846600,5.4208466796875,0.06376607746779918,-0.039682022047042846,0.044687209923192854
1772619179430877700,5.430877685546875,-0.0032552024036645887,-0.052876726923882955,0.07203370120599865
1772619179440909600,5.44090966796875,-0.07255377955734729,-0.05828764605671167,0.052802784904837606
1772619179450940700,5.450940673828125,-0.14869593899548053,-0.070148471981287,0.03800707457214594
1772619179460971800,5.4609716796875,-0.20393442661464214,-0.04426262783557176,0.036914237834140655
1772619179471003000,5.4710029296875,-0.20060440540909766,-0.01689969687461853,0.06294087869003415
1772619179481033700,5.48103369140625,-0.15604513271450995,-0.029675591817498206,0.06579641425162554
1772619179491064800,5.49106494140625,-0.09695172323286533,-0.060520811936259265,0.07915924223698675
1772619179501095700,5.501095703125,-0.07704699932336807,-0.06606003362387418,0.06736417502500117
1772619179511127800,5.5111279296875,-0.07746785508394241,-0.09019114305675029,0.0674940119497478
1772619179521158700,5.52115869140625,-0.08881985470354556,-0.07537643576264381,0.04294526162669062
1772619179531189800,5.531189697265625,-0.07137479890584945,-0.06717120973616839,0.016796309565380214
1772619179541220600,5.541220703125,-0.04548457084596157,-0.08056143718510865,0.04251600336395204
1772619179551251700,5.551251708984375,-0.02104804872572422,-0.06954524539113044,0.04863134443908929
1772619179561282600,5.561282470703125,0.0024608371555805207,-0.04437953221350908,0.06214249485395849
1772619179571313700,5.571313720703125,0.06968553064465523,-0.06391454602777957,0.05119834538288414
1772619179581345800,5.581345703125,0.11530103439390658,-0.0741504010990262,0.008623305308073759
1772619179591377000,5.591376953125,0.12648586075305937,-0.0913496654421091,-0.0419284127343446
1772619179601407700,5.60140771484375,0.11289221968650817,-0.13201353813335298,-0.06354447060637175
1772619179611438800,5.61143896484375,0.07468143923580646,-0.14770049821734427,-0.1107604683548212
1772619179621469700,5.6214697265625,0.06194529178142547,-0.13175181845724582,-0.11454385935105382
1772619179631500800,5.631500732421875,0.05495440998077392,-0.12026757076010107,-0.10735080604180693
1772619179641532700,5.64153271484375,0.02503039636015892,-0.06796265237480402,-0.04748056696876883
1772619179651563500,5.6515634765625,-0.01727086827456951,-0.005750234089791775,0.011692118294164538
1772619179661594600,5.6615947265625,-0.08762859909236431,0.05473316844552755,0.0405951183039695
1772619179671625700,5.671625732421875,-0.10444763194620608,0.12107727970778942,0.043313875743374225
1772619179681656800,5.68165673828125,-0.019797171881794928,0.1073094511181116,0.05149944722130894
1772619179691688000,5.69168798828125,0.011112930166721343,0.06891746888160705,0.058107247988507145
1772619179701718800,5.70171875,0.015317396119236945,0.07410305482596159,0.0409158016256988
1772619179711750000,5.71175,0.04778583352565765,0.049726738460361956,0.01907974432744086
1772619179721780700,5.72178076171875,0.051120530906319614,0.017877894257009027,-0.0026793022118508816
1772619179731812600,5.7318125,0.09862579392492771,-0.01299640582576394,-0.006780307789891958
1772619179741843700,5.74184375,0.1472714591503143,-0.039028234313428396,0.015896949572861193
1772619179751874600,5.75187451171875,0.1717418835401535,-0.05069923675432801,0.025719839929044246
1772619179761905700,5.76190576171875,0.18332769191563128,-0.040866847917437554,0.03287446092404425
1772619179771936800,5.771936767578125,0.18950667281150818,-0.040595045238733286,0.0560944468613714
1772619179781967600,5.781967529296875,0.18095511756539343,-0.0408516503483057,0.07250175710916519
1772619179791998700,5.791998779296875,0.18062778530716894,-0.029803017589449882,0.06541055673919617
1772619179802030800,5.80203076171875,0.2093915229767561,-0.055784284933656454,0.06354235171452165
1772619179812061700,5.812061767578125,0.23055998321175575,-0.08278700428009032,0.059846785132214426
1772619179822092800,5.8220927734375,0.2220873384207487,-0.08175809962376952,0.05738485199809074
1772619179832123600,5.83212353515625,0.20634850201904772,-0.07583397027179599,0.03269011733308434
1772619179842154800,5.84215478515625,0.17275544449687003,-0.07023731930851936,0.03802884801253676
1772619179852185600,5.852185546875,0.1256833121985197,-0.0767265351973474,0.06354856225959957
1772619179862216700,5.862216796875,0.01371989779472351,-0.00423179235085845,0.08511815064139663
1772619179872248600,5.87224853515625,-0.03587912263274193,0.021161738233268258,0.08112075156830251
1772619179882279700,5.88227978515625,-0.01312426998913288,0.04543634779006243,0.10115794275104999
1772619179892310500,5.892310546875,0.023335867401957512,0.04562573288232088,0.11327362021952866
1772619179902342000,5.902341796875,0.07646656908690928,0.045187049204111096,0.09168503487631678
1772619179912372700,5.912372802734375,0.15603344227671623,0.056595893577486275,0.08262465332522988
1772619179922403800,5.92240380859375,0.24393150596022606,0.07597337874248623,0.08905855883024633
1772619179932435700,5.932435791015625,0.35900574586093426,0.08852657084539532,0.0767994543030858
1772619179942466800,5.942466796875,0.47045010482668875,0.10678192011266946,0.07402787069790065
1772619179952497700,5.95249755859375,0.579567482149601,0.08570420690104365,0.03613967326506972
1772619179962528800,5.96252880859375,0.6429653108268976,0.057896600912511344,-0.002337576102092862
1772619179972559600,5.9725595703125,0.573847350937128,0.0475930874325335,0.017763035705685614
1772619179982590700,5.9825908203125,0.4675695809543132,0.058393882910162204,0.016047025568038224
1772619179992621600,5.99262158203125,0.35993279757797714,0.09011179421022533,0.028348361801728606
1772619180002654000,6.002654052734375,0.2980173164129257,0.10133563740551471,0.04635960011482238
1772619180012684800,6.012684814453125,0.2509785018622875,0.07303060328885913,0.027362784830480814
1772619180022716000,6.0227158203125,0.2616372585207224,0.05149111778438091,-0.009723083243519066
1772619180032746800,6.032746826171875,0.28976152924299237,0.02101896876171231,-0.07394925250373781
1772619180042777900,6.04277783203125,0.28771219549775123,-0.03790536776334047,-0.07507489553280175
1772619180052808700,6.05280859375,0.19473989728987215,-0.08023059779554605,-0.08181304468140005
1772619180062839800,6.06283984375,0.025831775870919227,-0.12178323602005839,-0.04943411218933761
1772619180072871700,6.07287158203125,-0.19780746816694736,-0.12752484841197728,-0.016933745274692772
1772619180082902800,6.08290283203125,-0.4324316320776939,-0.0822062817826867,-0.006991247126832604
1772619180092933600,6.09293359375,-0.644374593102932,-0.10863880002573131,0.036784839300811285
1772619180102964700,6.10296484375,-0.7914554981172084,-0.12415332615226507,0.050215179564431306
1772619180112995600,6.11299560546875,-0.9239590117245912,-0.10367927792221307,0.05083024272285402
1772619180123026700,6.123026611328125,-0.9827689280897378,-0.10358034759238362,0.03857778713218868
1772619180133057800,6.133057861328125,-1.001720881319046,-0.10476955737695097,0.03545943591594696
1772619180143089700,6.143089599609375,-0.956880453595519,-0.13377177997753023,0.03297890767920762
1772619180153120800,6.153120849609375,-0.8526280519604682,-0.17330094955042002,0.022610804530419408
1772619180163151600,6.163151611328125,-0.7663637269586324,-0.20887539014816284,0.030627449182234704
1772619180173182700,6.1731826171875,-0.7029705744564533,-0.2315149458490312,0.032160613566264505
1772619180183213800,6.1832138671875,-0.6418249086201191,-0.2462339376837015,0.00021817279532551764
1772619180193244700,6.19324462890625,-0.5586240628421306,-0.2668951790489256,-0.012711122610978782
1772619180203276500,6.203276611328125,-0.45499651510715483,-0.26832740380913017,0.0072510305741801855
1772619180213307600,6.2133076171875,-0.3633861529022455,-0.24131080206781624,0.01963920484110713
1772619180223338800,6.2233388671875,-0.27721885853409767,-0.19582389313429593,0.0059180649373680345
1772619180233369900,6.233369873046875,-0.19182021045088768,-0.1690327707119286,-0.05702635741662234
1772619180243400700,6.243400634765625,-0.10383154587447643,-0.16564853510111568,-0.10710428393483161
1772619180253431800,6.253431884765625,-0.017087328401207923,-0.12045330259054898,-0.1076132198376581
1772619180263462700,6.263462646484375,0.07180091536343097,-0.062092006775736806,-0.07464271466061473
1772619180273494800,6.273494873046875,0.11157879900038242,0.001273088675737381,-0.008332724863663316
1772619180283525600,6.283525634765625,0.14455927758216858,0.00948459831252694,0.009206877349689602
1772619180293557000,6.293556884765625,0.1557955418676138,0.0371710621394217,-0.014433525956794618
1772619180303587800,6.303587890625,0.17379238632917404,0.016406652660667896,-0.0455698379766196
1772619180313619000,6.313618896484375,0.1983113260358572,0.0035050855115056037,-0.0474580628760159
1772619180323649800,6.32364990234375,0.2323877831608057,0.0172235220015049,-0.06160444245450198
1772619180333682000,6.333681884765625,0.26341537410914895,0.06456424210816622,0.009025894759595393
1772619180343712800,6.343712646484375,0.3372831588745117,0.08172229765802622,0.06274192205183207
1772619180353744000,6.353743896484375,0.36932138817012305,0.06620280309543013,0.11448854896724224
1772619180363774700,6.363774658203125,0.30940847899913787,0.05762099884152412,0.10836823945604264
1772619180373805800,6.373805908203125,0.2753133171737194,0.021839345233887433,0.07395743581019341
1772619180383836700,6.383836669921875,0.1778548134624958,-0.037471798651665444,0.07268990009240806
1772619180393867800,6.39386767578125,0.06653378861546516,-0.056610068233311175,0.04025609560795128
1772619180403900000,6.40389990234375,0.03904080153405666,-0.06756780783832073,0.011167144571989774
1772619180413931000,6.413930908203125,0.01539163039922714,-0.11013839093372225,0.0603151332963258
1772619180423961900,6.4239619140625,0.01532850203514099,-0.1077691775843501,0.05803023722954094
1772619180433993000,6.433992919921875,0.05457447075247764,-0.12360124522745608,0.023166940575838086
1772619180444023800,6.44402392578125,0.06231587865948677,-0.1583197996482253,0.01052322064526379
1772619180454055000,6.454054931640625,0.07616904744505881,-0.1812688596896827,-0.04364442287199199
1772619180464085800,6.464085693359375,0.06360299586057662,-0.21003712740391492,-0.06444025040231645
1772619180474117600,6.47411767578125,-0.005635375538468361,-0.2043709183357656,-0.04371792649962008
1772619180484148700,6.484148681640625,-0.07987491622567176,-0.18285247561931608,-0.04097396155372262
1772619180494179800,6.494179931640625,-0.14064824161827563,-0.16985694657638667,-0.04012267848663032
1772619180504211000,6.5042109375,-0.15665888069868086,-0.1448309341304004,-0.017604045751690865
1772619180514242000,6.514241943359375,-0.11693418855369091,-0.12219912334457039,-0.013081563358567654
1772619180524273000,6.52427294921875,-0.06123159055411815,-0.10877864688783884,0.004211443682573736
1772619180534304000,6.534303955078125,0.030858664122223853,-0.09091171241626143,0.030516901479847727
1772619180544336000,6.5443359375,0.09044950173199176,-0.056912996702641244,0.05204224886111915
1772619180554366700,6.55436669921875,0.08238426869809627,-0.03224164291322231,0.05174447149094194
1772619180564397800,6.564397705078125,0.009293313524127007,-0.028965251591056583,0.03135499627180397
1772619180574428700,6.5744287109375,-0.0925485198378563,0.016631401327252385,0.014731814783625305
1772619180584459800,6.584459716796875,-0.15453765076100826,-0.00035538930892944334,0.011869630285538732
1772619180594491000,6.594490966796875,-0.17485095547139642,0.023818390221893786,0.051327232459560036
1772619180604523000,6.60452294921875,-0.13040332645773886,0.036509383360296487,0.05819379376079887
1772619180614553900,6.614553955078125,-0.030533085429668424,0.03757496676519513,0.06137567519992589
1772619180624585000,6.6245849609375,0.07621230206489563,0.02641439806446433,0.058966531698964535
1772619180634615800,6.63461572265625,0.12755495128929614,-0.00007101940959692001,0.05621368932686746
1772619180644647000,6.64464697265625,0.13120996666550636,-0.03423296286091208,0.02562591456789523
1772619180654677800,6.654677734375,0.11522855367958545,-0.0609713321827352,0.028681612344086168
1772619180664708900,6.664708984375,0.10295768564939499,-0.07274988665133714,-0.01962503018528223
1772619180674740700,6.67474072265625,0.04227028497457504,-0.12583368045464158,-0.08276818998176604
1772619180684771800,6.684771728515625,0.007359715113043785,-0.14040814925208686,-0.07581497331038117
1772619180694802700,6.694802734375,0.041511575561761854,-0.11092881065905094,-0.024231135741248726
1772619180704833800,6.704833740234375,0.0797206024467945,-0.07269888711646198,0.01478464094940573
1772619180714864600,6.71486474609375,0.125662269410491,-0.05584653651490807,0.020528591428883372
1772619180724896000,6.72489599609375,0.11789572706222534,-0.08305529982745646,0.003890395034663379
1772619180734926800,6.7349267578125,0.048128947874903676,-0.08373378361091018,-0.013248919282108544
1772619180744959000,6.744958984375,-0.06233925953507423,-0.08107493966519833,-0.0525394943261519
1772619180754989800,6.75498974609375,-0.1254834057122469,-0.0333824835114181,-0.03800163121204823
1772619180765021000,6.76502099609375,-0.14741525153517723,0.003664659987390041,0.02009524151291698
1772619180775051800,6.7750517578125,-0.13002689436078071,0.008449263915419577,0.04794544453416019
1772619180785083000,6.785082763671875,-0.049850364840030664,0.011962094341963528,0.04870725921951234
1772619180795113700,6.79511376953125,0.008417699733376503,-0.03889847045391798,0.008711020124144852
1772619180805145900,6.805145751953125,0.017119477105140685,-0.08622121651247143,-0.020723237218149004
1772619180815177000,6.815177001953125,-0.013272154027223586,-0.09426642967164515,-0.0744042662622407
1772619180825208000,6.8252080078125,-0.04764554827213287,-0.09132657682746648,-0.11413611880037933
1772619180835239000,6.835239013671875,-0.055313890942931175,-0.09538710426464676,-0.09143051212597637
1772619180845270000,6.84527001953125,-0.04338087656497955,-0.07483619140610098,-0.0717004871962592
1772619180855300900,6.85530078125,-0.02712999898791313,-0.04783727145195007,-0.029130707818455993
1772619180865332000,6.86533203125,0.023968320086598396,-0.015531477261334657,0.001014401206932962
1772619180875363800,6.87536376953125,0.04424947609305382,-0.018933540789782998,0.021854396672546864
1772619180885394700,6.885394775390625,0.04169160830378532,-0.030046763217449188,0.04186806084923446
1772619180895425800,6.89542578125,0.020541852769255638,-0.036780016995221376,0.02760357131641358
1772619180905457000,6.905456787109375,0.010196984365582466,-0.04474938843920827,0.024950353393889964
1772619180915487700,6.91548779296875,0.04311959528028965,-0.04530599940866232,0.010248495357111096
1772619180925518800,6.925518798828125,0.09404548039734363,-0.059671647761017084,0.01172331715002656
1772619180935549700,6.9355498046875,0.13672200808525084,-0.06317965588197112,0.041596623496711255
1772619180945581800,6.945581787109375,0.14159750516712666,-0.05908493391424417,0.05768237363994121
1772619180955613000,6.955613037109375,0.13409458219110965,-0.05589344439655542,0.03288717427514493
1772619180965643800,6.965643798828125,0.12771686385273934,-0.07105126603990793,0.005249371895566583
1772619180975675000,6.9756748046875,0.06606324849426747,-0.07390519416630267,-0.008949212794192135
1772619180985705700,6.985705810546875,0.02878828758895397,-0.07940963680148125,-0.021763759247027337
1772619180995736800,6.99573681640625,0.020346622458100316,-0.06042816521674394,-0.02602561794258654
1772619181005768700,7.005768798828125,0.014970190116763114,-0.07797054390907288,0.0011273600621148944
1772619181015799800,7.0157998046875,0.043400750309228894,-0.06329349151998757,0.005735584509931504
1772619181025830700,7.02583056640625,0.07096095740795134,-0.07545446943491697,-0.009692651572637259
1772619181035862000,7.035862060546875,0.08208090183734894,-0.07125745613649487,0.021448080893978476
1772619181045892900,7.045892822265625,0.023456863433122633,-0.06368015275001525,0.042543731621094046
1772619181055924000,7.055924072265625,-0.023042437413334844,-0.03080868750065565,0.021644114922732112
1772619181065954800,7.065954833984375,-0.04951601831912994,-0.04813888474702835,0.045733248377405104
1772619181075987000,7.075987060546875,-0.06639584144949913,-0.0653654754884541,0.04882233696654439
1772619181086017800,7.086017822265625,-0.06176935069262981,-0.05103168357908725,0.0436964818527922
1772619181096049000,7.096048828125,-0.013607085070014,-0.04988324419632554,0.04031681281924247
1772619181106079700,7.106079833984375,0.03686754914820194,-0.06311871947497129,0.06327241219934075
1772619181116110800,7.11611083984375,0.06068973876237869,-0.06102890758886933,0.04784541822578758
1772619181126141700,7.1261416015625,0.04181961859762669,-0.025094986028969285,0.054177872650325296
1772619181136172800,7.1361728515625,-0.0011859949141740799,-0.03426891095712781,0.023680260392837226
1772619181146205000,7.146204833984375,-0.03134147920310497,-0.06804872322306037,0.01122745992448181
1772619181156236000,7.156236083984375,-0.0012695815443992614,-0.060415890257060526,-0.002538395903818309
1772619181166267000,7.166266845703125,0.03909340850412845,-0.08298428041785955,0.013166063304245471
1772619181176298000,7.176298095703125,0.0713899964749813,-0.07412848152816295,0.03173310886919498
1772619181186328800,7.186328857421875,0.13700959285497666,-0.05454875178933143,0.041758718723244964
1772619181196360000,7.19635986328125,0.17569558960199355,-0.05474734310135245,0.0828577314287424
1772619181206391800,7.206391845703125,0.27677053024470805,-0.049521717407554386,0.09990702937450259
1772619181216423000,7.2164228515625,0.4457131384551525,-0.027724311619251964,0.132823137483187
1772619181226453800,7.226453857421875,0.4513315628588199,0.00641118221655488,0.25335586198549714
1772619181236484900,7.23648486328125,0.3644616731792688,0.034285569830983874,0.19611100297998635
1772619181246515700,7.246515625,0.19094576570391653,-0.08683174962624907,0.10618976290579885
1772619181256546800,7.256546875,-0.15106851334571839,-0.07726283403113483,-0.16291297265738247
1772619181266578000,7.266577880859375,-0.27056173873245715,-0.05737316156029701,-0.22229298052806407
1772619181276609800,7.27660986328125,-0.33027883307039735,-0.12134426008090377,-0.16619992190618066
1772619181286641000,7.286640869140625,-0.6079208854526281,-0.10882146311625837,-0.12835589240863918
1772619181296671200,7.296671142578125,-0.735821289178729,-0.11478957774043083,-0.19950466400627045
1772619181306702000,7.3067021484375,-0.6874684694200753,-0.14644246098026634,-0.26024036080222573
1772619181316733200,7.316733154296875,-0.6229518658459187,-0.04724719660431146,-0.10859660485181957
