time,seconds_elapsed,z,y,x
1772619174074248000,0.074248046875,-0.02210092358291149,-0.07879430055618286,0.21387767791748047
1772619174084278800,0.08427880859375,-0.017565825954079628,-0.09523345530033112,0.21259430050849915
1772619174094310000,0.094309814453125,-0.01820525713264942,-0.11575888097286224,0.20153595507144928
1772619174104340700,0.1043408203125,-0.028083987534046173,-0.13176901638507843,0.18859165906906128
1772619174114372900,0.114372802734375,-0.03923407196998596,-0.1375911831855774,0.17907539010047913
1772619174124404000,0.124404052734375,-0.05669189244508743,-0.1359674483537674,0.16491509974002838
1772619174134434800,0.134434814453125,-0.07745832204818726,-0.12533991038799286,0.15164342522621155
1772619174144466000,0.1444658203125,-0.0942961648106575,-0.08357009291648865,0.14214925467967987
1772619174154497000,0.1544970703125,-0.09667451679706573,-0.02220294438302517,0.13963034749031067
1772619174164527900,0.16452783203125,-0.09179933369159698,0.0471753291785717,0.138091042637825
1772619174174559000,0.17455908203125,-0.07468125224113464,0.1083107516169548,0.14558029174804688
1772619174184590800,0.1845908203125,-0.04777161404490471,0.16429227590560913,0.16920998692512512
1772619174194621700,0.19462158203125,-0.020583879202604294,0.1992671638727188,0.20508773624897003
1772619174204652800,0.20465283203125,0.005441064480692148,0.2198755145072937,0.23123091459274292
1772619174214683600,0.21468359375,0.025156095623970032,0.23074093461036682,0.23374007642269135
1772619174224714800,0.22471484375,0.03252213075757027,0.22696830332279205,0.20508046448230743
1772619174234745900,0.234745849609375,0.02425202541053295,0.2073899656534195,0.162212535738945
1772619174244777000,0.24477685546875,0.002936083823442459,0.16291651129722595,0.11273153126239777
1772619174254808000,0.25480810546875,-0.024768900126218796,0.10674704611301422,0.0697130486369133
1772619174264840000,0.26483984375,-0.04162431135773659,0.05801892280578613,0.07138285040855408
1772619174274870800,0.274870849609375,-0.05567023903131485,0.030309736728668213,0.10810162127017975
1772619174284901600,0.284901611328125,-0.0649673342704773,0.009454521350562572,0.1618519425392151
1772619174294932500,0.294932373046875,-0.07501228153705597,0.006706900428980589,0.21261684596538544
1772619174304963600,0.304963623046875,-0.08072396367788315,0.03253690153360367,0.23987270891666412
1772619174314994700,0.31499462890625,-0.08620201796293259,0.07723662257194519,0.25915205478668213
1772619174325025500,0.325025634765625,-0.08724544197320938,0.12286856770515442,0.25456929206848145
1772619174335057400,0.335057373046875,-0.08525633066892624,0.16166602075099945,0.24312619864940643
1772619174345088500,0.345088623046875,-0.09049050509929657,0.18195079267024994,0.22358764708042145
1772619174355119600,0.35511962890625,-0.10048213601112366,0.18626965582370758,0.2070089429616928
1772619174365150700,0.365150634765625,-0.10771208256483078,0.185287743806839,0.1841243952512741
1772619174375181600,0.375181640625,-0.11738353967666626,0.179582878947258,0.16763721406459808
1772619174385212700,0.385212646484375,-0.1248965784907341,0.1648649275302887,0.15593315660953522
1772619174395243500,0.395243408203125,-0.1349092423915863,0.14966309070587158,0.14918656647205353
1772619174405275600,0.405275634765625,-0.13315501809120178,0.13123615086078644,0.14259284734725952
1772619174415306500,0.415306396484375,-0.13146385550498962,0.11083559691905975,0.13448059558868408
1772619174425337600,0.425337646484375,-0.1232682317495346,0.08613371104001999,0.12012003362178802
1772619174435368400,0.435368408203125,-0.10785070061683655,0.07316231727600098,0.10243281722068787
1772619174445399600,0.445399658203125,-0.08688043802976608,0.060871828347444534,0.07576925307512283
1772619174455430400,0.455430419921875,-0.062498077750205994,0.04102947190403938,0.042982012033462524
1772619174465461500,0.46546142578125,-0.041908904910087585,0.01128995232284069,0.025010734796524048
1772619174475493600,0.47549365234375,-0.022621886804699898,-0.0195620134472847,0.020674755796790123
1772619174485524700,0.485524658203125,-0.003590672742575407,-0.03556734696030617,0.020730415359139442
1772619174495555600,0.4955556640625,0.012035137042403221,-0.03899431973695755,0.017323965206742287
1772619174505586700,0.505586669921875,0.023804977536201477,-0.028328360989689827,0.00870997179299593
1772619174515617500,0.515617431640625,0.037421345710754395,-0.0020816712640225887,-0.002193284686654806
1772619174525648600,0.525648681640625,0.05339365452528,0.02612067200243473,-0.02232358604669571
1772619174535679500,0.535679443359375,0.07531453669071198,0.045531079173088074,-0.03447727486491203
1772619174545711600,0.545711669921875,0.08899147063493729,0.034877900034189224,-0.046280935406684875
1772619174555742500,0.555742431640625,0.10289004445075989,0.002209600992500782,-0.04807918891310692
1772619174565773600,0.565773681640625,0.12074068188667297,-0.0458572618663311,-0.045480478554964066
1772619174575804700,0.5758046875,0.1338885873556137,-0.09295690804719925,-0.035039376467466354
1772619174585835800,0.585835693359375,0.14660944044589996,-0.14577271044254303,-0.028296783566474915
1772619174595866600,0.59586669921875,0.16197116672992706,-0.18844161927700043,-0.025404509156942368
1772619174605897700,0.605897705078125,0.1665312945842743,-0.2081359624862671,-0.023051340132951736
1772619174615928600,0.615928466796875,0.16297833621501923,-0.19531776010990143,-0.012484355829656124
1772619174625960700,0.625960693359375,0.14887556433677673,-0.15581296384334564,-0.004671705886721611
1772619174635991600,0.635991455078125,0.13430599868297577,-0.10525839775800705,-0.0030540996231138706
1772619174646022700,0.646022705078125,0.1229071319103241,-0.0567057728767395,0.003994489088654518
1772619174656053500,0.656053466796875,0.11791455745697021,-0.010981283150613308,0.016574904322624207
1772619174666084600,0.666084716796875,0.12225285172462463,0.04325106367468834,0.0455453023314476
1772619174676115500,0.676115478515625,0.12242812663316727,0.07681278884410858,0.07627817988395691
1772619174686146600,0.686146484375,0.11369802057743073,0.07773397862911224,0.10054037719964981
1772619174696178700,0.6961787109375,0.09778796136379242,0.07412905991077423,0.11361729353666306
1772619174706209500,0.70620947265625,0.07916900515556335,0.06764693558216095,0.10546908527612686
1772619174716240600,0.71624072265625,0.05611883103847504,0.07385680079460144,0.07914836704730988
1772619174726271700,0.726271728515625,0.029083747416734695,0.0848386138677597,0.04944559559226036
1772619174736302600,0.736302490234375,0.004129593726247549,0.09049244225025177,0.021403305232524872
1772619174746333700,0.746333740234375,-0.006995761301368475,0.09391993284225464,-0.011638534255325794
1772619174756364500,0.756364501953125,-0.015963636338710785,0.105863556265831,-0.03810964524745941
1772619174766396400,0.766396484375,-0.012823502533137798,0.11227938532829285,-0.05656402185559273
1772619174776427500,0.776427490234375,0.003084911033511162,0.11311642825603485,-0.07949063926935196
1772619174786458400,0.786458251953125,0.02323705144226551,0.12329716235399246,-0.09570236504077911
1772619174796489700,0.79648974609375,0.051598791033029556,0.12951825559139252,-0.09987376630306244
1772619174806520600,0.8065205078125,0.07989434152841568,0.11973486840724945,-0.09947722405195236
1772619174816551700,0.8165517578125,0.10593364387750626,0.0838610976934433,-0.08787339180707932
1772619174826582800,0.826582763671875,0.13016042113304138,0.02290959842503071,-0.06735239923000336
1772619174836614700,0.83661474609375,0.14921703934669495,-0.047218795865774155,-0.036947883665561676
1772619174846645500,0.8466455078125,0.16421090066432953,-0.1117948591709137,-0.007591593079268932
1772619174856676600,0.856676513671875,0.18115364015102386,-0.1598903387784958,0.023425268009305
1772619174866707500,0.86670751953125,0.19251787662506104,-0.2213616818189621,0.04994183033704758
1772619174876738600,0.876738525390625,0.19995956122875214,-0.2721073031425476,0.07287901639938354
1772619174886769400,0.886769287109375,0.20147515833377838,-0.3162390887737274,0.09907306730747223
1772619174896800500,0.896800537109375,0.19738253951072693,-0.35363835096359253,0.13273151218891144
1772619174906832600,0.90683251953125,0.19034940004348755,-0.39550378918647766,0.17144854366779327
1772619174916863700,0.91686376953125,0.18909934163093567,-0.4319649338722229,0.20638824999332428
1772619174926894600,0.92689453125,0.19020774960517883,-0.450042188167572,0.22747115790843964
1772619174936925700,0.93692578125,0.1952252835035324,-0.42118972539901733,0.23645010590553284
1772619174946956500,0.94695654296875,0.21425703167915344,-0.3418986201286316,0.227898970246315
1772619174956987600,0.956987548828125,0.2336673140525818,-0.22530914843082428,0.20560598373413086
1772619174967018500,0.9670185546875,0.2502734363079071,-0.09678099304437637,0.1632279008626938
1772619174977050600,0.977050537109375,0.2574704587459564,0.019032230600714684,0.11445184797048569
1772619174987081500,0.98708154296875,0.24894222617149353,0.11292251199483871,0.06981566548347473
1772619174997112600,0.997112548828125,0.23120683431625366,0.16523200273513794,0.041862331330776215
1772619175007143400,1.007143310546875,0.20422182977199554,0.17388300597667694,0.023635387420654297
1772619175017174500,1.017174560546875,0.1736462265253067,0.1452241688966751,0.012137104757130146
1772619175027205600,1.02720556640625,0.14375251531600952,0.10353851318359375,0.008964480832219124
1772619175037236700,1.03723681640625,0.1165323555469513,0.055810246616601944,0.01202489249408245
1772619175047267600,1.047267578125,0.10043034702539444,0.015081191435456276,0.018435919657349586
1772619175057299700,1.0572998046875,0.08029843121767044,-0.010496625676751137,0.01911076158285141
1772619175067330600,1.06733056640625,0.06701751053333282,-0.020186804234981537,0.009139088913798332
1772619175077361700,1.077361572265625,0.05354108661413193,-0.008234930224716663,-0.019490066915750504
1772619175087392500,1.087392578125,0.04282612353563309,0.010169642977416515,-0.048973120748996735
1772619175097423600,1.097423583984375,0.031192222610116005,0.02072155475616455,-0.06986890733242035
1772619175107454500,1.107454345703125,0.023490892723202705,0.03945956006646156,-0.07052377611398697
1772619175117485600,1.117485595703125,0.015434596687555313,0.029812119901180267,-0.060369767248630524
1772619175127517700,1.127517578125,0.0101852398365736,0.004507560282945633,-0.043055757880210876
1772619175137548800,1.137548828125,0.0035852661821991205,-0.04027114063501358,-0.014635121449828148
1772619175147579600,1.14757958984375,-0.0003772513009607792,-0.0833086222410202,0.014441270381212234
1772619175157610800,1.15761083984375,-0.002756230067461729,-0.10261225700378418,0.04948633909225464
1772619175167641600,1.1676416015625,-0.003928020596504211,-0.10115258395671844,0.0697612538933754
1772619175177672700,1.177672607421875,-0.0016737515106797218,-0.08101926743984222,0.07210332155227661
1772619175187703600,1.18770361328125,0.002537771360948682,-0.04421411454677582,0.06714371591806412
1772619175197735400,1.1977353515625,0.0035038264468312263,-0.005405955482274294,0.06820613890886307
1772619175207766500,1.2077666015625,0.0023168555926531553,0.037636321038007736,0.06219591945409775
1772619175217797600,1.217797607421875,-0.00013599591329693794,0.07209788262844086,0.05043318495154381
1772619175227828500,1.227828369140625,0.004793515428900719,0.08359501510858536,0.03545210510492325
1772619175237859600,1.237859619140625,0.008550486527383327,0.08871668577194214,0.015194945968687534
1772619175247890700,1.247890625,0.014957519248127937,0.07636308670043945,0.0024376059882342815
1772619175257921800,1.257921875,0.022911325097084045,0.058041173964738846,0.0004558541113510728
1772619175267953700,1.26795361328125,0.029609177261590958,0.03262662887573242,0.0072045703418552876
1772619175277984500,1.277984619140625,0.029977168887853622,-0.0021059317514300346,0.021771088242530823
1772619175288016000,1.288015869140625,0.02520664967596531,-0.030199885368347168,0.02457752823829651
1772619175298046700,1.298046630859375,0.017294054850935936,-0.05423012748360634,0.027588676661252975
1772619175308077800,1.308077880859375,0.0039050127379596233,-0.05922728404402733,0.01010475866496563
1772619175318108700,1.318108642578125,-0.003873150795698166,-0.05445953831076622,-0.007911531254649162
1772619175328139800,1.328139892578125,-0.0133156543597579,-0.03677055239677429,-0.030148394405841827
1772619175338172000,1.338171875,-0.013504334725439548,-0.010471884161233902,-0.043219007551670074
1772619175348203000,1.348203125,-0.012941342778503895,0.0035991943441331387,-0.04714716970920563
1772619175358233900,1.35823388671875,-0.014453185722231865,0.00039580417796969414,-0.034694854170084
1772619175368265000,1.368264892578125,-0.008815007284283638,0.0027756053023040295,-0.011035065166652203
1772619175378295800,1.3782958984375,-0.01046755351126194,0.00836064014583826,0.0181783065199852
1772619175388327000,1.388326904296875,-0.01431262493133545,0.005770450457930565,0.041323307901620865
1772619175398357800,1.398357666015625,-0.02390461042523384,-0.005698795430362225,0.046232834458351135
1772619175408390000,1.408389892578125,-0.03558177500963211,-0.01580629125237465,0.03909130394458771
1772619175418420700,1.418420654296875,-0.046503037214279175,-0.010661343112587929,0.02363920956850052
1772619175428451800,1.428451904296875,-0.06286975741386414,-0.0004939273931086063,0.0012864993186667562
1772619175438482700,1.438482666015625,-0.07541675120592117,0.005878870375454426,-0.02765531651675701
1772619175448513800,1.448513671875,-0.08716236054897308,0.014790605753660202,-0.05660467594861984
1772619175458544600,1.458544677734375,-0.09512262046337128,0.018398867920041084,-0.07270907610654831
1772619175468576000,1.468575927734375,-0.1044844314455986,0.015629978850483894,-0.06718354672193527
1772619175478606800,1.47860693359375,-0.10403476655483246,0.010976415127515793,-0.05605224892497063
1772619175488639000,1.488638916015625,-0.10499323904514313,0.0016364441253244877,-0.04012281820178032
1772619175498669800,1.498669921875,-0.1026410162448883,0.001682985108345747,-0.02546939253807068
1772619175508701000,1.508700927734375,-0.10511056333780289,0.011682888492941856,-0.022978005930781364
1772619175518731800,1.518731689453125,-0.10539349168539047,0.021072370931506157,-0.03142164647579193
1772619175528763000,1.528762939453125,-0.10651494562625885,0.04054194316267967,-0.04490629583597183
1772619175538793700,1.538793701171875,-0.11026794463396072,0.06217527762055397,-0.058029819279909134
1772619175548824800,1.548824951171875,-0.1136043518781662,0.0786445289850235,-0.06574393063783646
1772619175558857000,1.55885693359375,-0.1130792498588562,0.08250158280134201,-0.06771023571491241
1772619175568888000,1.56888818359375,-0.11029385030269623,0.07968901842832565,-0.061522115021944046
1772619175578919000,1.5789189453125,-0.10601456463336945,0.06325160712003708,-0.04907556623220444
1772619175588950000,1.588949951171875,-0.1030011922121048,0.04934591054916382,-0.03807910904288292
1772619175598980900,1.59898095703125,-0.09862153232097626,0.04789147526025772,-0.04132638871669769
1772619175609012000,1.609011962890625,-0.09536821395158768,0.05391021817922592,-0.057997509837150574
1772619175619042800,1.619042724609375,-0.09248720109462738,0.06417377293109894,-0.0834093987941742
1772619175629074700,1.62907470703125,-0.09465235471725464,0.07145752012729645,-0.11711223423480988
1772619175639105800,1.639105712890625,-0.09428665041923523,0.07480674982070923,-0.13333220779895782
1772619175649137000,1.649136962890625,-0.09286505728960037,0.07494257390499115,-0.13531360030174255
1772619175659167700,1.659167724609375,-0.0888117253780365,0.06497009843587875,-0.12061002105474472
1772619175669198800,1.66919873046875,-0.08256980776786804,0.05417337641119957,-0.10079317539930344
1772619175679229700,1.679229736328125,-0.06859078258275986,0.05328763276338577,-0.07395295053720474
1772619175689261000,1.689260986328125,-0.056600961834192276,0.0451788455247879,-0.058031510561704636
1772619175699293000,1.69929296875,-0.047087643295526505,0.03452756255865097,-0.052287958562374115
1772619175709323800,1.70932373046875,-0.03563951328396797,0.025235524401068687,-0.04593951255083084
1772619175719355000,1.71935498046875,-0.029149828478693962,0.014144815504550934,-0.04759564250707626
1772619175729385700,1.7293857421875,-0.025007281452417374,0.012288060039281845,-0.04487282782793045
1772619175739416800,1.739416748046875,-0.022848227992653847,0.013075684197247028,-0.03943341225385666
1772619175749448000,1.749447998046875,-0.020126476883888245,0.009165897034108639,-0.029980789870023727
1772619175759478800,1.759478759765625,-0.022542251273989677,0.007257724180817604,-0.019201379269361496
1772619175769510700,1.7695107421875,-0.02694126032292843,0.006552252918481827,-0.01759895496070385
1772619175779541800,1.779541748046875,-0.027722369879484177,0.004648141097277403,-0.019530633464455605
1772619175789572900,1.78957275390625,-0.031443871557712555,0.009423721581697464,-0.02340899407863617
1772619175799604000,1.79960400390625,-0.034215740859508514,0.019572192803025246,-0.03736475482583046
1772619175809634800,1.809634765625,-0.03619127720594406,0.024064945057034492,-0.05675789341330528
1772619175819666000,1.819666015625,-0.030412357300519943,0.028885843232274055,-0.07095298916101456
1772619175829696800,1.82969677734375,-0.02840912714600563,0.030376149341464043,-0.07669556140899658
1772619175839729000,1.83972900390625,-0.025865204632282257,0.03011798858642578,-0.08799891173839569
1772619175849759700,1.849759765625,-0.024875307455658913,0.017159845679998398,-0.09592793881893158
1772619175859790800,1.859790771484375,-0.021194010972976685,0.009275604039430618,-0.11044252663850784
1772619175869821700,1.86982177734375,-0.01292036846280098,0.005396177526563406,-0.13099706172943115
1772619175879852800,1.879852783203125,-0.009643379598855972,0.017981676384806633,-0.14438867568969727
1772619175889883600,1.889883544921875,-0.005314944311976433,0.04012373089790344,-0.1606837660074234
1772619175899914800,1.899914794921875,-0.007797254249453545,0.060286544263362885,-0.18481625616550446
1772619175909947000,1.90994677734375,-0.01866960898041725,0.05773763358592987,-0.20040187239646912
1772619175919978000,1.91997802734375,-0.029241779819130898,0.0331319235265255,-0.21369318664073944
1772619175930008800,1.9300087890625,-0.03791489824652672,0.005190571304410696,-0.21204015612602234
1772619175940040000,1.9400400390625,-0.04545362666249275,-0.010622949339449406,-0.1999674290418625
1772619175950070800,1.95007080078125,-0.05007607489824295,-0.029003819450736046,-0.17900674045085907
1772619175960102000,1.960101806640625,-0.05607966333627701,-0.03733538091182709,-0.1516120582818985
1772619175970132700,1.9701328125,-0.05333394557237625,-0.03019544668495655,-0.1201137825846672
1772619175980163800,1.980163818359375,-0.05389990657567978,-0.010064540430903435,-0.08504244685173035
1772619175990195700,1.99019580078125,-0.054839201271533966,0.013190980069339275,-0.05868913605809212
1772619176000226800,2.000226806640625,-0.053999051451683044,0.025931911543011665,-0.03638347238302231
1772619176010258000,2.0102578125,-0.05679244175553322,0.03473472595214844,-0.01701430231332779
1772619176020289000,2.0202890625,-0.05686890333890915,0.040051594376564026,0.001267057959921658
1772619176030319900,2.03031982421875,-0.06294410675764084,0.035533275455236435,0.016093408688902855
1772619176040351000,2.04035107421875,-0.07010481506586075,0.019235264509916306,0.029158078134059906
1772619176050382800,2.0503828125,-0.07672064006328583,0.010530189611017704,0.041003286838531494
1772619176060414000,2.0604140625,-0.08051784336566925,0.0028803623281419277,0.04649268090724945
1772619176070444800,2.07044482421875,-0.08474854379892349,-0.006031906232237816,0.04070057347416878
1772619176080476000,2.080475830078125,-0.0849863588809967,-0.009213477373123169,0.04088370501995087
1772619176090506800,2.0905068359375,-0.08220495283603668,-0.009295236319303513,0.04067651182413101
1772619176100537900,2.100537841796875,-0.07567784190177917,-0.004561061970889568,0.04840429872274399
1772619176110568700,2.110568603515625,-0.06988493353128433,-0.007290003355592489,0.06045403704047203
1772619176120599800,2.120599853515625,-0.065093494951725,-0.018077872693538666,0.07604081183671951
1772619176130632000,2.1306318359375,-0.06665730476379395,-0.024376515299081802,0.09363312274217606
1772619176140662800,2.140662841796875,-0.06706713885068893,-0.03419210761785507,0.10853110253810883
1772619176150694000,2.15069384765625,-0.0762433260679245,-0.031981684267520905,0.10769114643335342
1772619176160725000,2.16072509765625,-0.08425070345401764,-0.034182824194431305,0.10157333314418793
1772619176170755800,2.170755859375,-0.09037597477436066,-0.021923229098320007,0.08106725662946701
1772619176180787000,2.180786865234375,-0.09576863050460815,-0.008540705777704716,0.06364761292934418
1772619176190817800,2.19081787109375,-0.09920943528413773,-0.0009541590698063374,0.04868890345096588
1772619176200849700,2.200849609375,-0.10522447526454926,-0.0018553915433585644,0.0385126955807209
1772619176210880800,2.210880859375,-0.10246756672859192,-0.009684286080300808,0.039022691547870636
1772619176220911600,2.22091162109375,-0.09837073087692261,-0.02500670775771141,0.047329891473054886
1772619176230943000,2.23094287109375,-0.09362924098968506,-0.038454871624708176,0.05619315803050995
1772619176240973800,2.240973876953125,-0.09065759181976318,-0.04042878374457359,0.05973764508962631
1772619176251005000,2.2510048828125,-0.0912964791059494,-0.03082888387143612,0.060050033032894135
1772619176261036000,2.2610361328125,-0.0889342799782753,-0.01740923523902893,0.04818538576364517
1772619176271068000,2.27106787109375,-0.09330932050943375,-0.005498247686773539,0.02902953512966633
1772619176281098800,2.2810986328125,-0.1013292595744133,0.00016786810010671616,0.010114612057805061
1772619176291129300,2.29112939453125,-0.10621722787618637,0.0018078428693115711,-0.00217640888877213
1772619176301160400,2.301160400390625,-0.10950330644845963,0.004107058513909578,-0.012943127192556858
1772619176311191300,2.31119140625,-0.10519856959581375,-0.0031892037950456142,-0.011473328806459904
1772619176321222400,2.321222412109375,-0.10332401841878891,-0.010608650743961334,-0.012976858764886856
1772619176331253200,2.331253173828125,-0.09834390878677368,-0.02977728471159935,-0.008459605276584625
1772619176341285400,2.341285400390625,-0.08714194595813751,-0.03291243314743042,-0.0023292796686291695
1772619176351316500,2.35131640625,-0.07831942290067673,-0.032467685639858246,0.008941750973463058
1772619176361347300,2.361347412109375,-0.07517670840024948,-0.023567674681544304,0.016007298603653908
1772619176371378400,2.37137841796875,-0.07161712646484375,-0.009685415774583817,0.0066782464273273945
1772619176381409300,2.3814091796875,-0.06928320229053497,0.0044551147148013115,-0.008900715969502926
1772619176391440400,2.3914404296875,-0.0670514777302742,0.02005058526992798,-0.02598116546869278
1772619176401471500,2.401471435546875,-0.059360653162002563,0.03186165913939476,-0.03731992840766907
1772619176411503400,2.41150341796875,-0.05137649551033974,0.0330001600086689,-0.04625323414802551
1772619176421534200,2.4215341796875,-0.045049410313367844,0.027739206328988075,-0.04807820916175842
1772619176431565300,2.4315654296875,-0.04242512956261635,0.015324614942073822,-0.04347227141261101
1772619176441596200,2.44159619140625,-0.039008729159832,-0.009573625400662422,-0.03299575299024582
1772619176451627300,2.451627197265625,-0.041916102170944214,-0.029768643900752068,-0.014510218054056168
1772619176461658000,2.461658203125,-0.04308336228132248,-0.039225418120622635,-0.006594595033675432
1772619176471689500,2.471689453125,-0.04853937774896622,-0.041699763387441635,0.0006910145748406649
1772619176481721300,2.481721435546875,-0.048451006412506104,-0.03470474109053612,-0.01135686319321394
1772619176491752400,2.49175244140625,-0.04981853812932968,-0.021642468869686127,-0.028020529076457024
1772619176501783300,2.501783203125,-0.049927812069654465,-0.012155231088399887,-0.042493026703596115
1772619176511814400,2.511814453125,-0.0456228107213974,0.006865331437438726,-0.044963374733924866
1772619176521845200,2.52184521484375,-0.04498174041509628,0.021600639447569847,-0.04330209642648697
1772619176531876400,2.53187646484375,-0.04473486542701721,0.02456553652882576,-0.032857976853847504
1772619176541907200,2.5419072265625,-0.04381502792239189,0.02022494003176689,-0.0234866701066494
1772619176551939300,2.551939208984375,-0.039691388607025146,0.014662128873169422,-0.016113176941871643
1772619176561970200,2.56197021484375,-0.04140166938304901,0.001273886300623417,-0.01137488055974245
1772619176572001500,2.57200146484375,-0.04193004220724106,-0.003834589384496212,-0.013220451772212982
1772619176582032400,2.582032470703125,-0.04078907519578934,0.003961229231208563,-0.012191848829388618
1772619176592063500,2.5920634765625,-0.039083316922187805,0.01237894780933857,-0.018866796046495438
1772619176602094300,2.60209423828125,-0.03456606715917587,0.013246716931462288,-0.019650384783744812
1772619176612125400,2.61212548828125,-0.030377713963389397,0.014728765934705734,-0.016223162412643433
1772619176622157300,2.6221572265625,-0.029295790940523148,0.007762532215565443,-0.013110904954373837
1772619176632188400,2.6321884765625,-0.0285908542573452,-0.010330451652407646,-0.014351671561598778
1772619176642219300,2.64221923828125,-0.022658178582787514,-0.029872341081500053,-0.011791485361754894
1772619176652250400,2.65225048828125,-0.02095748484134674,-0.042464565485715866,-0.01004711538553238
1772619176662281200,2.66228125,-0.021703215315937996,-0.0526898093521595,-0.005081119481474161
1772619176672312300,2.672312255859375,-0.022432921454310417,-0.051815494894981384,-0.005941054318100214
1772619176682343200,2.68234326171875,-0.024338776245713234,-0.044271741062402725,-0.011421484872698784
1772619176692375300,2.692375244140625,-0.02641258016228676,-0.035308875143527985,-0.02091485634446144
1772619176702406400,2.702406494140625,-0.028755510225892067,-0.03252992779016495,-0.035962868481874466
1772619176712437500,2.7124375,-0.03094889037311077,-0.03984350338578224,-0.05019373446702957
1772619176722468400,2.72246826171875,-0.031390510499477386,-0.04888387769460678,-0.06140626594424248
1772619176732499500,2.73249951171875,-0.03340066224336624,-0.06446283310651779,-0.0592174157500267
1772619176742530300,2.7425302734375,-0.04105381667613983,-0.08040362596511841,-0.04905807599425316
1772619176752561400,2.7525615234375,-0.04121893271803856,-0.08679334819316864,-0.03540271893143654
1772619176762593300,2.76259326171875,-0.045050546526908875,-0.08561814576387405,-0.027111586183309555
1772619176772624100,2.7726240234375,-0.050045840442180634,-0.0797828882932663,-0.02395813725888729
1772619176782655200,2.7826552734375,-0.0496467724442482,-0.06443265080451965,-0.03485596925020218
1772619176792686300,2.792686279296875,-0.05069179832935333,-0.04475322365760803,-0.04258366674184799
1772619176802717400,2.802717529296875,-0.04922438785433769,-0.030465254560112953,-0.05206887051463127
1772619176812748500,2.81274853515625,-0.048159122467041016,-0.02406674437224865,-0.048238713294267654
1772619176822779400,2.822779296875,-0.04855642467737198,-0.024886269122362137,-0.03804617002606392
1772619176832811300,2.832811279296875,-0.042701736092567444,-0.03452424705028534,-0.02097078040242195
1772619176842842400,2.84284228515625,-0.03466223180294037,-0.04621327668428421,-0.007233574520796537
1772619176852873200,2.852873291015625,-0.03172369673848152,-0.050805896520614624,-0.00345854414626956
1772619176862904300,2.862904296875,-0.029106417670845985,-0.04330356419086456,-0.0039933063089847565
1772619176872935200,2.87293505859375,-0.027527963742613792,-0.025454524904489517,-0.011283709667623043
1772619176882966300,2.88296630859375,-0.03389444202184677,0.0004099942743778229,-0.02271595038473606
1772619176892997400,2.892997314453125,-0.026854373514652252,0.01743371970951557,-0.03677025064826012
1772619176903029500,2.903029541015625,-0.024423101916909218,0.045298006385564804,-0.04969945177435875
1772619176913060400,2.913060302734375,-0.017436033114790916,0.06294810771942139,-0.0555589385330677
1772619176923091500,2.923091552734375,-0.015341991558670998,0.07572025060653687,-0.05845823511481285
1772619176933122300,2.933122314453125,-0.015143586322665215,0.08762963861227036,-0.05859379097819328
1772619176943153400,2.9431533203125,-0.017527462914586067,0.09222815930843353,-0.0604301355779171
1772619176953184300,2.953184326171875,-0.024021847173571587,0.09899737685918808,-0.0669277161359787
1772619176963215400,2.96321533203125,-0.02667144127190113,0.1073424443602562,-0.07782411575317383
1772619176973247200,2.973247314453125,-0.023508405312895775,0.11337796598672867,-0.07979405671358109
1772619176983278300,2.9832783203125,-0.01974685862660408,0.10589051246643066,-0.07140235602855682
1772619176993309200,2.99330908203125,-0.012016499415040016,0.09277231246232986,-0.061470624059438705
1772619177003340300,3.00334033203125,-0.009715845808386803,0.07912666350603104,-0.04586201533675194
1772619177013371400,3.013371337890625,-0.0035833846777677536,0.06748811900615692,-0.030132852494716644
1772619177023402500,3.023402587890625,-0.0022385111078619957,0.05872512608766556,-0.018185025081038475
1772619177033433300,3.033433349609375,-0.006494774948805571,0.0662940964102745,-0.009863979183137417
1772619177043465500,3.043465576171875,-0.00558859808370471,0.07032231986522675,-0.00822533667087555
1772619177053496300,3.053496337890625,-0.0036594043485820293,0.07194098830223083,-0.007689508143812418
1772619177063527400,3.06352734375,-0.008383192121982574,0.05709071084856987,-0.011075630784034729
1772619177073558300,3.073558349609375,-0.007489968556910753,0.031724635511636734,-0.013001097366213799
1772619177083589400,3.08358935546875,-0.007299509830772877,0.00047380896285176277,-0.0037806979380548
1772619177093620200,3.0936201171875,-0.003329002298414707,-0.020577680319547653,0.008411785587668419
1772619177103651300,3.1036513671875,0.004765987861901522,-0.03862189128994942,0.025405418127775192
1772619177113683500,3.113683349609375,0.008607331663370132,-0.05890851840376854,0.046189792454242706
1772619177123714600,3.123714599609375,0.00973869301378727,-0.0667782798409462,0.053045742213726044
1772619177133745400,3.133745361328125,0.012215698137879372,-0.0538446381688118,0.06143230199813843
1772619177143776500,3.143776611328125,0.014024036005139351,-0.03263534605503082,0.05932192504405975
1772619177153807400,3.153807373046875,0.017655789852142334,-0.010817131027579308,0.05143657326698303
1772619177163838500,3.16383837890625,0.021156759932637215,0.004353014752268791,0.04122840613126755
1772619177173869300,3.173869384765625,0.027094809338450432,0.012649293057620525,0.03271321579813957
1772619177183901200,3.183901123046875,0.030242417007684708,0.010220400989055634,0.021174630150198936
1772619177193932300,3.193932373046875,0.0336318202316761,-0.002693267073482275,0.017796410247683525
1772619177203963400,3.20396337890625,0.036181554198265076,-0.0115400031208992,0.019190575927495956
1772619177213994200,3.213994140625,0.03592429310083389,-0.019689276814460754,0.022081170231103897
1772619177224025300,3.224025390625,0.03370631858706474,-0.027892528101801872,0.022118011489510536
1772619177234056200,3.23405615234375,0.0265932809561491,-0.02455745078623295,0.019568035379052162
1772619177244087600,3.244087646484375,0.013270866125822067,-0.023641977459192276,0.012861307710409164
1772619177254119400,3.254119384765625,0.004105863161385059,-0.029309185221791267,0.005833758041262627
1772619177264150300,3.264150390625,-0.009016545489430428,-0.032951176166534424,0.0022897995077073574
1772619177274181400,3.274181396484375,-0.01799592562019825,-0.04591890797019005,-0.008955664932727814
1772619177284212200,3.284212158203125,-0.026419661939144135,-0.05729484185576439,-0.026205407455563545
1772619177294243300,3.294243408203125,-0.026964813470840454,-0.053121935576200485,-0.03569105640053749
1772619177304274400,3.3042744140625,-0.02352830581367016,-0.049914389848709106,-0.04671343043446541
1772619177314305300,3.31430517578125,-0.018260041251778603,-0.04917323216795921,-0.0550062470138073
1772619177324337200,3.324337158203125,-0.008822597563266754,-0.04916178062558174,-0.05340941622853279
1772619177334368500,3.334368408203125,-0.00019555306062102318,-0.063166543841362,-0.038377467542886734
1772619177344399400,3.3443994140625,0.009646652266383171,-0.0824432373046875,-0.011647147126495838
1772619177354430500,3.354430419921875,0.020067069679498672,-0.09802486002445221,0.02295983023941517
1772619177364461300,3.36446142578125,0.028345847502350807,-0.11255702376365662,0.04724670574069023
1772619177374492400,3.374492431640625,0.02865956723690033,-0.11809160560369492,0.05962374433875084
1772619177384523300,3.384523193359375,0.02719810977578163,-0.10967621207237244,0.05097433552145958
1772619177394555400,3.394555419921875,0.02455279231071472,-0.09103567898273468,0.03694000840187073
1772619177404586200,3.404586181640625,0.020794950425624847,-0.060667168349027634,0.01378533523529768
1772619177414617300,3.414617431640625,0.020522508770227432,-0.03345126286149025,-0.000631952949333936
1772619177424648200,3.424648193359375,0.010385185480117798,-0.019744770601391792,-0.005672784056514502
1772619177434679300,3.43467919921875,0.004153654910624027,-0.019288305193185806,-0.002622399479150772
1772619177444710100,3.444710205078125,-0.0015419507399201393,-0.027421148493885994,-0.0017774673178792
1772619177454741200,3.4547412109375,-0.006817672401666641,-0.043440330773591995,-0.0013340511359274387
1772619177464773400,3.4647734375,-0.009165781550109386,-0.05888426676392555,-0.00240304390899837
1772619177474804500,3.474804443359375,-0.008089864626526833,-0.06314239650964737,-0.0063834041357040405
1772619177484835300,3.48483544921875,-0.007992244325578213,-0.06557736545801163,-0.01479295827448368
1772619177494866400,3.494866455078125,-0.010665791109204292,-0.05681850016117096,-0.028893863782286644
1772619177504897300,3.504897216796875,-0.014845602214336395,-0.03266642615199089,-0.04511233791708946
1772619177514928400,3.514928466796875,-0.02112879790365696,-0.012980075553059578,-0.05844971537590027
1772619177524959200,3.524959228515625,-0.022676555439829826,-0.0015562810003757477,-0.06860522925853729
1772619177534991400,3.534991455078125,-0.027403930202126503,0.00422224635258317,-0.07368947565555573
1772619177545022200,3.545022216796875,-0.024704378098249435,0.0031939721666276455,-0.0828084945678711
1772619177555053300,3.55505322265625,-0.023787718266248703,-0.006188876926898956,-0.08548390120267868
1772619177565084400,3.56508447265625,-0.015500908717513084,-0.014993241056799889,-0.07765838503837585
1772619177575115500,3.575115478515625,-0.0054349591955542564,-0.03554698824882507,-0.06756073981523514
1772619177585146400,3.585146484375,0.008199529722332954,-0.04504906013607979,-0.05214840918779373
1772619177595177500,3.595177490234375,0.020277496427297592,-0.04451536387205124,-0.043562643229961395
1772619177605209300,3.605209228515625,0.034125715494155884,-0.03910287842154503,-0.04104577749967575
1772619177615240400,3.615240478515625,0.04302280396223068,-0.023978784680366516,-0.04400215297937393
1772619177625271300,3.625271240234375,0.048934467136859894,-0.005113769322633743,-0.04886322095990181
1772619177635302400,3.635302490234375,0.04889931529760361,0.011829261668026447,-0.056656960397958755
1772619177645333200,3.645333251953125,0.04424304515123367,0.016543854027986526,-0.05655602738261223
1772619177655364400,3.6553642578125,0.04204114153981209,0.015182980336248875,-0.05639064684510231
1772619177665395200,3.665395263671875,0.03757663816213608,0.007663563825190067,-0.04705546796321869
1772619177675427300,3.67542724609375,0.03542134538292885,-0.006739610340446234,-0.03750190883874893
1772619177685458400,3.68545849609375,0.035289280116558075,-0.013103058561682701,-0.028168773278594017
1772619177695489300,3.6954892578125,0.03428926318883896,-0.0053945379331707954,-0.015178406611084938
1772619177705520400,3.705520263671875,0.038319181650877,0.014239320531487465,-0.006692954339087009
1772619177715551500,3.715551513671875,0.04582210257649422,0.02858097478747368,-0.006815725937485695
1772619177725582300,3.725582275390625,0.042089398950338364,0.032246001064777374,-0.002259591594338417
1772619177735613400,3.735613525390625,0.04767883941531181,0.03756166994571686,0.0006200845818966627
1772619177745645300,3.745645263671875,0.042023759335279465,0.03627680614590645,0.010356337763369083
1772619177755676200,3.75567626953125,0.03657679632306099,0.0167920533567667,0.026757149025797844
1772619177765707300,3.765707275390625,0.02816072106361389,-0.016706636175513268,0.05291063338518143
1772619177775738000,3.775738037109375,0.023850927129387856,-0.04125405475497246,0.07428756356239319
1772619177785769500,3.78576953125,0.020978029817342758,-0.06501217931509018,0.07404884696006775
1772619177795800300,3.79580029296875,0.015799779444932938,-0.05657848343253136,0.06091015040874481
1772619177805831400,3.80583154296875,0.009542105719447136,-0.039534132927656174,0.03870639577507973
1772619177815863300,3.81586328125,0.006701045669615269,-0.01826532930135727,0.014518502168357372
1772619177825894400,3.825894287109375,0.0005762791261076927,-0.005256229545921087,-0.0006834412342868745
1772619177835925200,3.83592529296875,-0.004145771265029907,-0.005098037887364626,-0.0016126180998981
1772619177845956400,3.845956298828125,-0.000266925897449255,-0.001675222534686327,0.005118610803037882
1772619177855987200,3.8559873046875,0.003404507879167795,-0.008466283790767193,0.01694890484213829
1772619177866018300,3.866018310546875,0.008494147099554539,-0.010765491984784603,0.028665393590927124
1772619177876050200,3.87605029296875,0.01604953594505787,-0.014755439944565296,0.030481670051813126
1772619177886081500,3.88608154296875,0.01726674661040306,-0.0204851683229208,0.02764628827571869
1772619177896112400,3.8961123046875,0.016950096935033798,-0.01976531557738781,0.017142249271273613
1772619177906143500,3.9061435546875,0.01863999105989933,-0.020150471478700638,0.006998714059591293
1772619177916174300,3.91617431640625,0.008568448945879936,-0.005176316015422344,-0.0038190465420484543
1772619177926205400,3.926205322265625,0.0020693724509328604,0.005002045072615147,-0.004935624077916145
1772619177936236300,3.936236328125,-0.005684687290340662,0.013422428630292416,-0.01572861708700657
1772619177946268400,3.946268310546875,-0.006817260757088661,0.03570781648159027,-0.02187332510948181
1772619177956299300,3.95629931640625,-0.000549777876585722,0.059879202395677567,-0.02957039326429367
1772619177966330400,3.966330322265625,0.009365923702716827,0.0792350172996521,-0.03439551219344139
1772619177976361200,3.976361328125,0.022831132635474205,0.09265521913766861,-0.0396302193403244
1772619177986392300,3.986392333984375,0.038697756826877594,0.08935453742742538,-0.03385062888264656
1772619177996423200,3.996423095703125,0.04790297895669937,0.08375897258520126,-0.03129559010267258
1772619178006454500,4.00645458984375,0.057905808091163635,0.06659143418073654,-0.03147934749722481
1772619178016486400,4.016486328125,0.062056876718997955,0.02606824040412903,-0.04010080173611641
1772619178026517500,4.026517578125,0.0709637999534607,-0.01714274287223816,-0.05307536572217941
1772619178036548400,4.03654833984375,0.08269715309143066,-0.05889338254928589,-0.06876324862241745
1772619178046579500,4.046579345703125,0.09039705246686935,-0.08625541627407074,-0.08632005006074905
1772619178056610300,4.0566103515625,0.10015381127595901,-0.10245729237794876,-0.09882519394159317
1772619178066641400,4.066641357421875,0.1077067032456398,-0.09574859589338303,-0.10382980108261108
1772619178076672300,4.07667236328125,0.10550693422555923,-0.07333064079284668,-0.10830790549516678
1772619178086704000,4.0867041015625,0.10435495525598526,-0.04260072484612465,-0.09834519773721695
1772619178096735200,4.0967353515625,0.10139964520931244,-0.007970044389367104,-0.0924910381436348
1772619178106766300,4.106766357421875,0.09685011208057404,0.0259949192404747,-0.0843205451965332
1772619178116797400,4.11679736328125,0.0911264419555664,0.043657537549734116,-0.06841933727264404
1772619178126828500,4.12682861328125,0.08453052490949631,0.05850662663578987,-0.0589759536087513
1772619178136859400,4.136859375,0.08115869015455246,0.06765937805175781,-0.05191325023770332
1772619178146890500,4.146890380859375,0.07496371865272522,0.07315603643655777,-0.051534637808799744
1772619178156922400,4.15692236328125,0.07631314545869827,0.07484128326177597,-0.04295100271701813
1772619178166953200,4.166953125,0.07564301788806915,0.07629014551639557,-0.03672045096755028
1772619178176984300,4.176984375,0.07495912164449692,0.07539638876914978,-0.027957582846283913
1772619178187015200,4.18701513671875,0.07397011667490005,0.07269586622714996,-0.017975611612200737
1772619178197046300,4.19704638671875,0.07393789291381836,0.07973113656044006,-0.006563433911651373
1772619178207077400,4.207077392578125,0.07532119005918503,0.09669923782348633,0.005339030642062426
1772619178217108200,4.217108154296875,0.07283858954906464,0.09928809851408005,0.02081678993999958
1772619178227140400,4.227140380859375,0.07316671311855316,0.10217136144638062,0.03477912396192551
1772619178237171500,4.23717138671875,0.06986892223358154,0.10417032986879349,0.04685309901833534
1772619178247202300,4.247202392578125,0.0682004988193512,0.10906457155942917,0.05737382546067238
1772619178257233400,4.2572333984375,0.06412319839000702,0.10988082736730576,0.06208442151546478
1772619178267264300,4.26726416015625,0.058882493525743484,0.1209825724363327,0.05639377981424332
1772619178277295400,4.27729541015625,0.05471597611904144,0.12532751262187958,0.050312984734773636
1772619178287326700,4.28732666015625,0.04088886082172394,0.12217286974191666,0.044191621243953705
1772619178297358800,4.29735888671875,0.027735510841012,0.10777075588703156,0.04035693779587746
1772619178307389700,4.3073896484375,0.015975140035152435,0.09247458726167679,0.03038943186402321
1772619178317420800,4.3174208984375,0.0005756779573857784,0.08792564272880554,0.023464148864150047
1772619178327451600,4.32745166015625,-0.007061546202749014,0.09087876230478287,0.01758255809545517
1772619178337482800,4.337482666015625,-0.014659810811281204,0.1010054275393486,0.015481059439480305
1772619178347513600,4.347513671875,-0.014967478811740875,0.11231011897325516,0.0036841435357928276
1772619178357544700,4.357544677734375,-0.012865977361798286,0.12013687938451767,-0.0033002630807459354
1772619178367576800,4.367576904296875,-0.011464355513453484,0.12452230602502823,-0.014662905596196651
1772619178377608000,4.37760791015625,-0.012678757309913635,0.12848350405693054,-0.02311604470014572
1772619178387638800,4.387638671875,-0.014665765687823296,0.12552869319915771,-0.030365701764822006
1772619178397670000,4.397669921875,-0.015462052077054977,0.11204378306865692,-0.033179331570863724
1772619178407700700,4.40770068359375,-0.013274889439344406,0.10407505184412003,-0.036297984421253204
1772619178417731800,4.41773193359375,-0.009693737141788006,0.0984049141407013,-0.043708231300115585
1772619178427762700,4.4277626953125,-0.004985975567251444,0.09016138315200806,-0.05079720914363861
1772619178437794600,4.437794677734375,0.004616850987076759,0.08910437673330307,-0.0527663491666317
1772619178447825700,4.44782568359375,0.01015964150428772,0.08638152480125427,-0.04993567615747452
1772619178457856800,4.457856689453125,0.016977867111563683,0.08680017292499542,-0.039806343615055084
1772619178467887900,4.467887939453125,0.025289520621299744,0.0856049433350563,-0.019431117922067642
1772619178477919000,4.4779189453125,0.03199615702033043,0.0802605077624321,0.0010800150921568274
1772619178487949800,4.48794970703125,0.03369755297899246,0.06647910922765732,0.0059815626591444016
1772619178497981700,4.497981689453125,0.0327121838927269,0.06026063114404678,-0.003997834399342537
1772619178508012800,4.5080126953125,0.031977418810129166,0.05904185771942139,-0.02179138921201229
1772619178518043600,4.518043701171875,0.031371016055345535,0.06736210733652115,-0.04037465900182724
1772619178528074800,4.52807470703125,0.03972571715712547,0.061646878719329834,-0.05947760492563248
1772619178538105600,4.538105712890625,0.04789682850241661,0.04972843453288078,-0.0656910240650177
1772619178548136700,4.54813671875,0.062077317386865616,0.034805212169885635,-0.0673460066318512
1772619178558167800,4.558167724609375,0.07954099029302597,0.014329235069453716,-0.0649302527308464
1772619178568200000,4.568199951171875,0.09331771731376648,0.0015870663337409496,-0.05704045668244362
1772619178578230800,4.578230712890625,0.11217369884252548,-0.00775130745023489,-0.03819672763347626
1772619178588262000,4.588261962890625,0.1250273436307907,-0.02617816999554634,-0.02091139182448387
1772619178598292700,4.598292724609375,0.1345854252576828,-0.04241972044110298,-0.002848235424607992
1772619178608323800,4.60832373046875,0.13723407685756683,-0.04315628856420517,0.016066420823335648
1772619178618354700,4.618354736328125,0.14035610854625702,-0.0340123251080513,0.03088025562465191
1772619178628385800,4.6283857421875,0.14122319221496582,-0.020208775997161865,0.03239009156823158
1772619178638417700,4.638417724609375,0.13901063799858093,-0.0016484078951179981,0.029048355296254158
1772619178648448800,4.64844873046875,0.13314053416252136,0.02266054041683674,0.026593897491693497
1772619178658479600,4.658479736328125,0.11752510070800781,0.04060039296746254,0.029159320518374443
1772619178668510700,4.6685107421875,0.10025166720151901,0.05398083105683327,0.026774903759360313
1772619178678541600,4.67854150390625,0.08385884761810303,0.060402240604162216,0.016015201807022095
1772619178688573000,4.688572998046875,0.07158099859952927,0.06766701489686966,0.004833563696593046
1772619178698603800,4.698603759765625,0.06277871876955032,0.061560653150081635,-0.006248381920158863
1772619178708636000,4.708635986328125,0.0619729645550251,0.05536368489265442,-0.01838795840740204
1772619178718666800,4.718666748046875,0.05920594185590744,0.059418343007564545,-0.02177363447844982
1772619178728697900,4.72869775390625,0.05720554292201996,0.06685754656791687,-0.017118696123361588
1772619178738728700,4.738728759765625,0.06314865499734879,0.08786562830209732,-0.0025570644065737724
1772619178748759800,4.748759765625,0.07195117324590683,0.10710123926401138,0.010024863295257092
1772619178758790700,4.758790771484375,0.07975131273269653,0.11374982446432114,0.020253533497452736
1772619178768821800,4.76882177734375,0.08340291678905487,0.11533846706151962,0.022651532664895058
1772619178778853600,4.778853515625,0.08790472149848938,0.1109868586063385,0.01749751716852188
1772619178788885000,4.788885009765625,0.08427650481462479,0.096799835562706,0.013682449236512184
1772619178798915800,4.798915771484375,0.08037284016609192,0.07513634860515594,0.01019956637173891
1772619178808947000,4.808947021484375,0.07771386951208115,0.05413076654076576,0.003027763217687607
1772619178818977800,4.818977783203125,0.07023757696151733,0.025397654622793198,0.004845370538532734
1772619178829009000,4.8290087890625,0.06910212337970734,-0.0034060939215123653,0.013534643687307835
1772619178839040800,4.839040771484375,0.06496330350637436,-0.020868174731731415,0.019720101729035378
1772619178849071600,4.849071533203125,0.06261052191257477,-0.028879184275865555,0.02662043832242489
1772619178859102700,4.859102783203125,0.05698912590742111,-0.024367788806557655,0.02650778740644455
1772619178869133800,4.8691337890625,0.05456872656941414,-0.008831062354147434,0.018535347655415535
1772619178879164700,4.87916455078125,0.046792030334472656,0.00909680500626564,0.010177815333008766
1772619178889195800,4.88919580078125,0.03781060874462128,0.02836613357067108,0.0029847086407244205
1772619178899226600,4.8992265625,0.030599305406212807,0.026263568550348282,-0.0013959251809865236
1772619178909258800,4.9092587890625,0.021201763302087784,0.005058533977717161,-0.006153841037303209
1772619178919289900,4.919289794921875,0.012203473597764969,-0.02182421274483204,-0.0011747950920835137
1772619178929320700,4.92932080078125,0.002898845821619034,-0.0480651929974556,0.008923113346099854
1772619178939351800,4.939351806640625,-0.009602298960089684,-0.06660372763872147,0.017314733937382698
1772619178949382700,4.949382568359375,-0.02532857656478882,-0.06372115761041641,0.02201414853334427
1772619178959413800,4.959413818359375,-0.04379813000559807,-0.04233836755156517,0.01751074194908142
1772619178969444900,4.96944482421875,-0.06066613644361496,-0.020596487447619438,0.006726893596351147
1772619178979476700,4.979476806640625,-0.07467329502105713,0.012363860383629799,-0.005293017718940973
1772619178989507600,4.989507568359375,-0.08139598369598389,0.04347074776887894,-0.010257593356072903
1772619178999538700,4.99953857421875,-0.09673099964857101,0.06794200837612152,-0.011223522014915943
1772619179009569800,5.00956982421875,-0.10601567476987839,0.08435674756765366,-0.00804202165454626
1772619179019601000,5.019600830078125,-0.11713570356369019,0.08647476136684418,-0.018370559439063072
1772619179029631700,5.0296318359375,-0.12636689841747284,0.09214935451745987,-0.037194669246673584
1772619179039662800,5.039662841796875,-0.130594402551651,0.09595075249671936,-0.06261108070611954
1772619179049694700,5.04969482421875,-0.1318179965019226,0.08424784988164902,-0.07666085660457611
1772619179059725800,5.059725830078125,-0.12356007099151611,0.06607816368341446,-0.0753772109746933
1772619179069756700,5.069756591796875,-0.11628201603889465,0.046819817274808884,-0.06987041234970093
1772619179079787800,5.079787841796875,-0.11073412001132965,0.01821799948811531,-0.05104079842567444
1772619179089818600,5.089818603515625,-0.11734212189912796,0.0002651745453476906,-0.02860633097589016
1772619179099849700,5.099849609375,-0.12366953492164612,0.009953221306204796,-0.005130831152200699
1772619179109880600,5.109880615234375,-0.12560690939426422,0.03162166476249695,0.007211234420537949
1772619179119913000,5.119912841796875,-0.11747920513153076,0.06501077860593796,0.007085000164806843
1772619179129943800,5.12994384765625,-0.10678193718194962,0.11090978980064392,0.0015412737848237157
1772619179139975000,5.139974853515625,-0.0926584005355835,0.1426629275083542,-0.002717386931180954
1772619179150005800,5.150005859375,-0.0736159235239029,0.16608399152755737,-0.009126638993620872
1772619179160036900,5.160036865234375,-0.05254872143268585,0.18535275757312775,-0.01374189741909504
1772619179170067700,5.170067626953125,-0.029864352196455002,0.18329964578151703,-0.005299765150994062
1772619179180099800,5.180099853515625,-0.008216047659516335,0.15922147035598755,0.010503965429961681
1772619179190130700,5.190130615234375,0.010904502123594284,0.12091220915317535,0.03337528184056282
1772619179200161800,5.200161865234375,0.030666489154100418,0.08534836024045944,0.05688300356268883
1772619179210192600,5.210192626953125,0.04090269282460213,0.05112173408269882,0.06774869561195374
1772619179220223700,5.2202236328125,0.04851480573415756,0.019971005618572235,0.06998734921216965
1772619179230254600,5.230254638671875,0.05220441892743111,0.01277078315615654,0.06897686421871185
1772619179240286000,5.240285888671875,0.05491684749722481,0.017266465350985527,0.06606123596429825
1772619179250317800,5.25031787109375,0.05545046925544739,0.029941190034151077,0.06815820932388306
1772619179260348700,5.2603486328125,0.06039063259959221,0.04445435479283333,0.07458415627479553
1772619179270379800,5.2703798828125,0.05859486386179924,0.05072876065969467,0.07172365486621857
1772619179280411000,5.280410888671875,0.05568988621234894,0.04891328513622284,0.06558719277381897
1772619179290441700,5.290441650390625,0.04890737682580948,0.039515916258096695,0.04682379961013794
1772619179300472800,5.300472900390625,0.03855433687567711,0.033018067479133606,0.030989177525043488
1772619179310503700,5.310503662109375,0.033838629722595215,0.0289589986205101,0.008591816760599613
1772619179320535600,5.32053564453125,0.02316361293196678,0.0199202299118042,-0.014757447876036167
1772619179330566700,5.330566650390625,0.006895742379128933,0.0115310437977314,-0.028933454304933548
1772619179340597500,5.340597412109375,-0.0002556438557803631,0.010238878428936005,-0.04152248427271843
1772619179350628600,5.350628662109375,-0.010997621342539787,0.011518213897943497,-0.046712275594472885
1772619179360659700,5.36065966796875,-0.019460881128907204,0.013337153941392899,-0.05556995049118996
1772619179370691800,5.37069189453125,-0.02515237219631672,0.01930537074804306,-0.05834638327360153
1772619179380722700,5.38072265625,-0.029165491461753845,0.024575497955083847,-0.06898944079875946
1772619179390753800,5.39075390625,-0.03176398575305939,0.0342707484960556,-0.07352621853351593
1772619179400784600,5.40078466796875,-0.03306014463305473,0.04091746360063553,-0.08403772115707397
1772619179410815700,5.410815673828125,-0.03322412446141243,0.03746814653277397,-0.08553725481033325
1772619179420846600,5.4208466796875,-0.03202863037586212,0.03150133416056633,-0.0846773236989975
1772619179430877700,5.430877685546875,-0.030189333483576775,0.025283057242631912,-0.07601015269756317
1772619179440909600,5.44090966796875,-0.027848681434988976,0.02886900305747986,-0.06551703810691833
1772619179450940700,5.450940673828125,-0.021831218153238297,0.03841141238808632,-0.051484834402799606
1772619179460971800,5.4609716796875,-0.01763034611940384,0.048252858221530914,-0.04621364176273346
1772619179471003000,5.4710029296875,-0.010454388335347176,0.05523689463734627,-0.04226532578468323
1772619179481033700,5.48103369140625,-0.005281730554997921,0.05182698369026184,-0.03928231820464134
1772619179491064800,5.49106494140625,-0.0016589844599366188,0.043503955006599426,-0.038197439163923264
1772619179501095700,5.501095703125,0.004027929622679949,0.03725005313754082,-0.03360455110669136
1772619179511127800,5.5111279296875,0.003203100524842739,0.031636226922273636,-0.022227704524993896
1772619179521158700,5.52115869140625,0.0026334503199905157,0.02142966352403164,-0.013994541019201279
1772619179531189800,5.531189697265625,0.005365354940295219,0.010243026539683342,-0.005095238797366619
1772619179541220600,5.541220703125,0.008548897691071033,0.002972862683236599,0.0017064745770767331
1772619179551251700,5.551251708984375,0.01515798456966877,0.005039626266807318,0.003341659903526306
1772619179561282600,5.561282470703125,0.02195330709218979,0.0006209090352058411,-0.007563718594610691
1772619179571313700,5.571313720703125,0.02453906275331974,-0.008932354860007763,-0.017214125022292137
1772619179581345800,5.581345703125,0.020540593191981316,-0.01772345043718815,-0.032594945281744
1772619179591377000,5.591376953125,0.015381908044219017,-0.02141348086297512,-0.0466931015253067
1772619179601407700,5.60140771484375,0.010527231730520725,-0.032874129712581635,-0.05452945455908775
1772619179611438800,5.61143896484375,0.0057451860047876835,-0.03656410425901413,-0.05600501969456673
1772619179621469700,5.6214697265625,-0.003969492390751839,-0.04319137707352638,-0.052208948880434036
1772619179631500800,5.631500732421875,-0.004454649984836578,-0.05495211109519005,-0.04200851172208786
1772619179641532700,5.64153271484375,0.0013502424117177725,-0.0683203786611557,-0.02799229323863983
1772619179651563500,5.6515634765625,0.015081984922289848,-0.07354633510112762,-0.010049778036773205
1772619179661594600,5.6615947265625,0.025120237842202187,-0.05841505527496338,0.008120703510940075
1772619179671625700,5.671625732421875,0.03609047830104828,-0.05181285738945007,0.017626501619815826
1772619179681656800,5.68165673828125,0.046834200620651245,-0.0579431876540184,0.018269121646881104
1772619179691688000,5.69168798828125,0.053444940596818924,-0.06121010333299637,0.014719928614795208
1772619179701718800,5.70171875,0.05434349179267883,-0.058673977851867676,0.014136163517832756
1772619179711750000,5.71175,0.05437646806240082,-0.054094552993774414,0.008098864927887917
1772619179721780700,5.72178076171875,0.05210106447339058,-0.05214591696858406,0.008699940517544746
1772619179731812600,5.7318125,0.04825460910797119,-0.0451948381960392,0.0004547942662611604
1772619179741843700,5.74184375,0.041706692427396774,-0.04327789321541786,-0.013575270771980286
1772619179751874600,5.75187451171875,0.040693145245313644,-0.04463500529527664,-0.01932370476424694
1772619179761905700,5.76190576171875,0.037453413009643555,-0.04323631152510643,-0.0232998039573431
1772619179771936800,5.771936767578125,0.03464796394109726,-0.04722285643219948,-0.027589622884988785
1772619179781967600,5.781967529296875,0.036860786378383636,-0.055989447981119156,-0.016874395310878754
1772619179791998700,5.791998779296875,0.03801976889371872,-0.06106529384851456,-0.00964915007352829
1772619179802030800,5.80203076171875,0.03243857994675636,-0.07219837605953217,-0.0047505320981144905
1772619179812061700,5.812061767578125,0.031004566699266434,-0.08643358200788498,-0.006222816184163094
1772619179822092800,5.8220927734375,0.026897970587015152,-0.09211570024490356,-0.014673026278614998
1772619179832123600,5.83212353515625,0.023901624605059624,-0.09517676383256912,-0.01991945318877697
1772619179842154800,5.84215478515625,0.015887372195720673,-0.11753373593091965,-0.030968908220529556
1772619179852185600,5.852185546875,0.01678122580051422,-0.1323457807302475,-0.03703168034553528
1772619179862216700,5.862216796875,0.02381010726094246,-0.10479378700256348,-0.029238741844892502
1772619179872248600,5.87224853515625,0.028879033401608467,-0.08110854029655457,-0.019997578114271164
1772619179882279700,5.88227978515625,0.040599070489406586,-0.06691096723079681,-0.010730575770139694
1772619179892310500,5.892310546875,0.05082618445158005,-0.05905071645975113,0.0024034292437136173
1772619179902342000,5.902341796875,0.05293940007686615,-0.05386793613433838,0.0177506934851408
1772619179912372700,5.912372802734375,0.061207957565784454,-0.05837615206837654,0.036486830562353134
1772619179922403800,5.92240380859375,0.06522906571626663,-0.06957634538412094,0.05194728076457977
1772619179932435700,5.932435791015625,0.06956825405359268,-0.08324243873357773,0.058429326862096786
1772619179942466800,5.942466796875,0.07795774191617966,-0.09648154675960541,0.052335213869810104
1772619179952497700,5.95249755859375,0.07359597086906433,-0.11110351234674454,0.026737531647086143
1772619179962528800,5.96252880859375,0.0710957944393158,-0.13095924258232117,-0.01441336888819933
1772619179972559600,5.9725595703125,0.06746815890073776,-0.13699045777320862,-0.05322485789656639
1772619179982590700,5.9825908203125,0.06801304221153259,-0.12128578871488571,-0.07585293799638748
1772619179992621600,5.99262158203125,0.07093121111392975,-0.10113838315010071,-0.08292913436889648
1772619180002654000,6.002654052734375,0.07349956035614014,-0.08782710880041122,-0.08157119154930115
1772619180012684800,6.012684814453125,0.07571649551391602,-0.07003192603588104,-0.08630717545747757
1772619180022716000,6.0227158203125,0.06833847612142563,-0.05147608742117882,-0.10397458076477051
1772619180032746800,6.032746826171875,0.06358078867197037,-0.04203008487820625,-0.1408122330904007
1772619180042777900,6.04277783203125,0.054235223680734634,-0.053415898233652115,-0.1824725866317749
1772619180052808700,6.05280859375,0.04338644817471504,-0.0813731700181961,-0.21031825244426727
1772619180062839800,6.06283984375,0.027687113732099533,-0.1261100023984909,-0.21987128257751465
1772619180072871700,6.07287158203125,0.020494157448410988,-0.16472187638282776,-0.20193621516227722
1772619180082902800,6.08290283203125,0.010781874880194664,-0.19462065398693085,-0.18021175265312195
1772619180092933600,6.09293359375,0.010122435167431831,-0.20881421864032745,-0.1503402143716812
1772619180102964700,6.10296484375,0.009166893549263477,-0.20173153281211853,-0.12288915365934372
1772619180112995600,6.11299560546875,0.012775326147675514,-0.18170826137065887,-0.10115847736597061
1772619180123026700,6.123026611328125,0.019165048375725746,-0.1356925666332245,-0.08636727929115295
1772619180133057800,6.133057861328125,0.026354201138019562,-0.07206515222787857,-0.07592182606458664
1772619180143089700,6.143089599609375,0.030363058671355247,-0.017071140930056572,-0.05721098557114601
1772619180153120800,6.153120849609375,0.03198925405740738,0.009624017402529716,-0.04757176712155342
1772619180163151600,6.163151611328125,0.03489662706851959,0.012371867895126343,-0.030850041657686234
1772619180173182700,6.1731826171875,0.035521019250154495,0.015627536922693253,-0.010063095018267632
1772619180183213800,6.1832138671875,0.036432087421417236,0.011951044201850891,0.017493698745965958
1772619180193244700,6.19324462890625,0.03646986186504364,-0.005058447364717722,0.04702291637659073
1772619180203276500,6.203276611328125,0.03103754296898842,-0.01910422369837761,0.07205556333065033
1772619180213307600,6.2133076171875,0.030240794643759727,-0.029787221923470497,0.09499585628509521
1772619180223338800,6.2233388671875,0.02779707871377468,-0.027803165838122368,0.10529643297195435
1772619180233369900,6.233369873046875,0.020440222695469856,-0.0022886586375534534,0.10198692232370377
1772619180243400700,6.243400634765625,0.009637109935283661,0.032911140471696854,0.08797523379325867
1772619180253431800,6.253431884765625,-0.003226925153285265,0.058100566267967224,0.07586841285228729
1772619180263462700,6.263462646484375,-0.004231736529618502,0.06789327412843704,0.06066735088825226
1772619180273494800,6.273494873046875,-0.0015551899559795856,0.06384432315826416,0.047060199081897736
1772619180283525600,6.283525634765625,0.003403882496058941,0.05976595729589462,0.043515533208847046
1772619180293557000,6.293556884765625,0.004297880455851555,0.051786623895168304,0.05543016269803047
1772619180303587800,6.303587890625,-0.0038857469335198402,0.02630656398832798,0.060327716171741486
1772619180313619000,6.313618896484375,-0.016224581748247147,-0.009523668326437473,0.06450559198856354
1772619180323649800,6.32364990234375,-0.01425490714609623,-0.013762887567281723,0.06012522429227829
1772619180333682000,6.333681884765625,-0.013179263100028038,-0.004920550622045994,0.05599377304315567
1772619180343712800,6.343712646484375,-0.013444513082504272,-0.013658648356795311,0.030407721176743507
1772619180353744000,6.353743896484375,-0.0036902260035276413,-0.007111965678632259,0.0025143942330032587
1772619180363774700,6.363774658203125,0.005262522958219051,0.018394725397229195,-0.024322813376784325
1772619180373805800,6.373805908203125,0.007501467131078243,0.019636953249573708,-0.04046192392706871
1772619180383836700,6.383836669921875,0.018731486052274704,0.02715984918177128,-0.04300257936120033
1772619180393867800,6.39386767578125,0.023305367678403854,0.031206496059894562,-0.02389501966536045
1772619180403900000,6.40389990234375,0.020783886313438416,-0.0005098874680697918,-0.00154204445425421
1772619180413931000,6.413930908203125,0.020919539034366608,-0.03569991514086723,0.02258876897394657
1772619180423961900,6.4239619140625,0.024014398455619812,-0.05323736369609833,0.03472612425684929
1772619180433993000,6.433992919921875,0.028230546042323112,-0.049342572689056396,0.03879667818546295
1772619180444023800,6.44402392578125,0.02472316287457943,-0.04105241596698761,0.028161345049738884
1772619180454055000,6.454054931640625,0.015373656526207924,-0.02002965472638607,0.006607846822589636
1772619180464085800,6.464085693359375,0.010826309211552143,-0.008459817618131638,-0.010306155309081078
1772619180474117600,6.47411767578125,0.009714626707136631,-0.005586056504398584,-0.01566469855606556
1772619180484148700,6.484148681640625,0.0066152396611869335,-0.008934715762734413,-0.006522066425532103
1772619180494179800,6.494179931640625,0.0016838191077113152,-0.01667747087776661,0.013756394386291504
1772619180504211000,6.5042109375,-0.0010222187265753746,-0.031107809394598007,0.036443863064050674
1772619180514242000,6.514241943359375,-0.002784822601824999,-0.03846419230103493,0.05029585212469101
1772619180524273000,6.52427294921875,-0.005096713081002235,-0.03951214626431465,0.04957413673400879
1772619180534304000,6.534303955078125,-0.005298459902405739,-0.030882928520441055,0.0353473499417305
1772619180544336000,6.5443359375,-0.0002333945594727993,-0.02260848693549633,0.009859569370746613
1772619180554366700,6.55436669921875,0.0032911794260144234,-0.018163982778787613,-0.01329963468015194
1772619180564397800,6.564397705078125,0.010534977540373802,-0.004767216742038727,-0.023983171209692955
1772619180574428700,6.5744287109375,0.012276272289454937,0.009216820821166039,-0.01645432598888874
1772619180584459800,6.584459716796875,0.014604141004383564,0.006538746412843466,0.005133790895342827
1772619180594491000,6.594490966796875,0.01334870420396328,-0.0034082888159900904,0.02600746974349022
1772619180604523000,6.60452294921875,0.018537074327468872,-0.007256822660565376,0.04853328317403793
1772619180614553900,6.614553955078125,0.0253409706056118,-0.0010295161046087742,0.04742700606584549
1772619180624585000,6.6245849609375,0.027997475117444992,0.0018986291252076626,0.03274419903755188
1772619180634615800,6.63461572265625,0.03361693024635315,0.009497636929154396,0.013424566015601158
1772619180644647000,6.64464697265625,0.032519709318876266,0.01330675557255745,0.0026909615844488144
1772619180654677800,6.654677734375,0.02778797410428524,0.014155589044094086,-0.009534989483654499
1772619180664708900,6.664708984375,0.021243788301944733,0.009303044527769089,-0.006614034064114094
1772619180674740700,6.67474072265625,0.006396603770554066,-0.013453942723572254,0.0031468907836824656
1772619180684771800,6.684771728515625,-0.004910645540803671,-0.028887493535876274,0.02365030162036419
1772619180694802700,6.694802734375,-0.013335589319467545,-0.04890584945678711,0.03164156153798103
1772619180704833800,6.704833740234375,-0.011509459465742111,-0.05479889363050461,0.026129886507987976
1772619180714864600,6.71486474609375,-0.010651075281202793,-0.04766946658492088,0.0016319110291078687
1772619180724896000,6.72489599609375,-0.010436956770718098,-0.029638003557920456,-0.021647311747074127
1772619180734926800,6.7349267578125,-0.012863701209425926,-0.010882588103413582,-0.039708781987428665
1772619180744959000,6.744958984375,-0.016647521406412125,0.006913186516612768,-0.042848650366067886
1772619180754989800,6.75498974609375,-0.009745334275066853,0.022294972091913223,-0.030304716899991035
1772619180765021000,6.76502099609375,-0.0025201779790222645,0.006585249677300453,-0.007845479995012283
1772619180775051800,6.7750517578125,0.007411044090986252,-0.015307889319956303,0.01399519108235836
1772619180785083000,6.785082763671875,0.013510216027498245,-0.04048754274845123,0.026485949754714966
1772619180795113700,6.79511376953125,0.01625327207148075,-0.06261175870895386,0.02843005768954754
1772619180805145900,6.805145751953125,0.010615359991788864,-0.06534922122955322,0.024418804794549942
1772619180815177000,6.815177001953125,0.0044905696995556355,-0.044985659420490265,0.01547191571444273
1772619180825208000,6.8252080078125,-0.0018895650282502174,-0.017657633870840073,0.00954611599445343
1772619180835239000,6.835239013671875,-0.00822265911847353,0.0011028214357793331,0.006126173306256533
1772619180845270000,6.84527001953125,-0.009915098547935486,0.015499869361519814,0.004610035568475723
1772619180855300900,6.85530078125,-0.007879571989178658,0.021695081144571304,0.006205180659890175
1772619180865332000,6.86533203125,-0.00711391307413578,0.01715918444097042,0.006434478797018528
1772619180875363800,6.87536376953125,-0.0027446825988590717,-0.0011730710975825787,0.010470409877598286
1772619180885394700,6.885394775390625,-0.0018144403584301472,-0.018793344497680664,0.018924081698060036
1772619180895425800,6.89542578125,-0.0036391117610037327,-0.028540153056383133,0.030461428686976433
1772619180905457000,6.905456787109375,-0.0031509543769061565,-0.029381444677710533,0.03211072087287903
1772619180915487700,6.91548779296875,-0.005720014683902264,-0.016459761187434196,0.02538207173347473
1772619180925518800,6.925518798828125,-0.006270489655435085,-0.006761860568076372,0.013647916726768017
1772619180935549700,6.9355498046875,-0.008997827768325806,-0.003891881788149476,-0.0012039138237014413
1772619180945581800,6.945581787109375,-0.009398100897669792,0.003917038906365633,-0.019644439220428467
1772619180955613000,6.955613037109375,-0.008443383499979973,0.00811176560819149,-0.03026645816862583
1772619180965643800,6.965643798828125,-0.00989560503512621,0.0004285457544028759,-0.03905249387025833
1772619180975675000,6.9756748046875,-0.008870170451700687,-0.0036188806407153606,-0.03383686766028404
1772619180985705700,6.985705810546875,-0.012604720890522003,-0.011725543066859245,-0.023325370624661446
1772619180995736800,6.99573681640625,-0.01726946234703064,-0.0260357353836298,-0.015062913298606873
1772619181005768700,7.005768798828125,-0.017405018210411072,-0.03465212881565094,-0.011841021478176117
1772619181015799800,7.0157998046875,-0.01956329122185707,-0.026183735579252243,-0.021729161962866783
1772619181025830700,7.02583056640625,-0.019214153289794922,-0.019413180649280548,-0.03464895486831665
1772619181035862000,7.035862060546875,-0.019029393792152405,-0.008149459026753902,-0.05228201299905777
1772619181045892900,7.045892822265625,-0.014173919335007668,0.003000397700816393,-0.05090808868408203
1772619181055924000,7.055924072265625,-0.009861588478088379,0.004487570840865374,-0.04565970599651337
1772619181065954800,7.065954833984375,-0.007539843674749136,-0.003431870834901929,-0.03195401281118393
1772619181075987000,7.075987060546875,-0.004838137421756983,-0.010165305808186531,-0.018824808299541473
1772619181086017800,7.086017822265625,-0.0031057517044246197,-0.010964521206915379,-0.0022759255953133106
1772619181096049000,7.096048828125,0.001640968956053257,-0.015360252931714058,-0.0025261733680963516
1772619181106079700,7.106079833984375,0.004259921610355377,-0.023637624457478523,-0.004558964166790247
1772619181116110800,7.11611083984375,0.003987933974713087,-0.02748088724911213,-0.008848780766129494
1772619181126141700,7.1261416015625,0.003976482432335615,-0.03565013408660889,-0.011044025421142578
1772619181136172800,7.1361728515625,0.007936481386423111,-0.03239808231592178,-0.0056622205302119255
1772619181146205000,7.146204833984375,0.003589669708162546,-0.022785935550928116,-0.001601698691956699
1772619181156236000,7.156236083984375,0.0055406540632247925,-0.01931971311569214,-0.004268765915185213
1772619181166267000,7.166266845703125,-0.0037881326861679554,-0.010323554277420044,-0.014157881960272789
1772619181176298000,7.176298095703125,0.0016379151493310928,-0.0001231781207025051,-0.022059837356209755
1772619181186328800,7.186328857421875,0.0022254083305597305,-0.0048582786694169044,-0.034146327525377274
1772619181196360000,7.19635986328125,0.010158920660614967,-0.009706176817417145,-0.046100374311208725
1772619181206391800,7.206391845703125,0.02322598733007908,-0.018895413726568222,-0.0540592297911644
1772619181216423000,7.2164228515625,0.03092077374458313,-0.09183136373758316,-0.06407821923494339
1772619181226453800,7.226453857421875,0.057551320642232895,-0.11537663638591766,-0.015040365047752857
1772619181236484900,7.23648486328125,0.05949869751930237,-0.23903554677963257,-0.012462247163057327
1772619181246515700,7.246515625,0.048345375806093216,-0.2712494432926178,-0.0028543611988425255
1772619181256546800,7.256546875,0.021044397726655006,-0.21031101047992706,0.010686922818422318
1772619181266578000,7.266577880859375,-0.010203005746006966,-0.13394087553024292,0.0018606748199090362
1772619181276609800,7.27660986328125,-0.03238425776362419,-0.05609671771526337,-0.029110288247466087
1772619181286641000,7.286640869140625,-0.0424848310649395,0.06692135334014893,-0.03989529237151146
1772619181296671200,7.296671142578125,-0.06290098279714584,0.1896960735321045,-0.058906979858875275
1772619181306702000,7.3067021484375,-0.06429914385080338,0.33288466930389404,-0.06579550355672836
1772619181316733200,7.316733154296875,-0.04795794561505318,0.38769081234931946,-0.046475429087877274
