time,seconds_elapsed,z,y,x
1772618182058527700,0.06452783203125,-0.7193769348561764,0.05336326833181083,-0.24661274440083653
1772618182068559600,0.0745595703125,-0.062441550865769385,0.00328950653206557,-0.039904953215876594
1772618182078591500,0.084591552734375,0.6189075588911771,-0.04468390372125432,0.24325932405339554
1772618182088622600,0.09462255859375,0.0943997006624937,-0.0053720118945464485,0.06315750341566745
1772618182098654500,0.104654541015625,-0.631666502699256,0.04852896177684888,-0.2287875301791355
1772618182108686600,0.1146865234375,-0.12389759782552719,0.0010994856745004653,-0.036197874292288906
1772618182118718700,0.12471875,0.5677396817117929,-0.03180706915454939,0.19846238841172306
1772618182128750600,0.13475048828125,0.10784896482229232,-0.03339559872131795,0.0657316099536838
1772618182138781400,0.144781494140625,-0.5117863238215447,0.013526731576491147,-0.18107337365020065
1772618182148813800,0.154813720703125,-0.18506372192800044,0.01002756434911862,-0.062023704479611474
1772618182158845700,0.164845703125,0.4593769221484661,-0.014812880663201211,0.17528830570904538
1772618182168877600,0.174877685546875,0.18575696488916874,-0.01453506836881861,0.0949236149387434
1772618182178909400,0.184909423828125,-0.37605566486120223,0.03679841116843745,-0.1127435501971282
1772618182188940500,0.1949404296875,-0.26939327947497366,0.009980966994725168,-0.09492405333016067
1772618182198972700,0.20497265625,0.22157588176727294,-0.022286541012115774,0.09504066544715314
1772618182209004500,0.215004638671875,0.3700239834815264,-0.030270123644545673,0.1386087990793865
1772618182219036700,0.22503662109375,-0.15235913767814635,0.013196604572981595,-0.02569112072463613
1772618182229068500,0.235068603515625,-0.37254911804497237,0.021472101090382785,-0.13235652461843564
1772618182239099600,0.245099609375,-0.028414193579554554,0.00971175813190639,-0.015234562974260188
1772618182249131800,0.2551318359375,0.3402718192964792,-0.013724628768768161,0.1247118733504787
1772618182259163600,0.26516357421875,0.13034896592199802,-0.02010811926079914,0.06505418104957789
1772618182269195500,0.275195556640625,-0.1592459745824337,0.003087481153942644,-0.04514957587108947
1772618182279227600,0.2852275390625,-0.26826106057465077,0.008934764143731445,-0.11004364358866586
1772618182289259800,0.295259765625,-0.0301987389087677,0.00687456194460392,-0.014955759732611476
1772618182299290600,0.30529052734375,0.23190672164559362,-0.011045490953698753,0.09214848766960203
1772618182309322500,0.315322509765625,0.162913849440217,-0.01157669348726049,0.06400542091531679
1772618182319354600,0.325354736328125,-0.1087169798284769,0.022502119991555807,-0.03370481993411668
1772618182329386800,0.33538671875,-0.17934125262796877,0.012998871777486055,-0.05826194079329725
1772618182339418600,0.345418701171875,-0.10193009616732597,0.014073223010729998,-0.030406061516515908
1772618182349449700,0.35544970703125,-0.019327216282486914,0.0030901480350643395,-0.007821957763354294
1772618182359481600,0.365481689453125,0.2604915956169367,-0.028125330168195066,0.08595091167110949
1772618182369513500,0.375513427734375,0.05126899946630001,-0.001601553445123136,0.04663638492932077
1772618182379545600,0.385545654296875,-0.08332067276537418,0.0026616752236150202,-0.030344937879848294
1772618182389577700,0.39557763671875,-0.07656301519870758,0.0032687742712907493,-0.016194987237942403
1772618182399608600,0.405608642578125,-0.09365852690637111,0.011284030683618038,-0.03824750486505218
1772618182409640400,0.415640380859375,-0.06023731881976127,0.004193597498629242,-0.02707634627164807
1772618182419672800,0.4256728515625,-0.0018488427370786666,-0.0020094401262700555,0.003549837968684733
1772618182429704700,0.43570458984375,0.24327917953133582,-0.012367642935551702,0.08472569899139926
1772618182439736600,0.445736572265625,0.020429624566435812,-0.002095858034398407,0.018643412436521612
1772618182449767700,0.455767578125,-0.06913023484945297,0.013405023159272968,-0.013794670930830762
1772618182459799600,0.465799560546875,-0.07001169385910033,0.019514171955641358,-0.0035279686301713806
1772618182469831700,0.475831787109375,-0.06541326015293598,0.004580898049473763,-0.015407202427694573
1772618182479863600,0.485863525390625,-0.03826689455211162,0.012998908310104161,0.0017714027198497205
1772618182489895700,0.495895751953125,0.015360066217184066,-0.00210769460266456,0.012253784464648924
1772618182499927600,0.505927490234375,0.2121744316935539,-0.014830544184055178,0.07744146026736125
1772618182509958400,0.51595849609375,-0.024157120656967162,-0.01347964103175327,-0.0036337579590501263
1772618182519990800,0.52599072265625,-0.07811608985960483,-0.0019842691523954273,-0.016999348723655567
1772618182530022700,0.536022705078125,-0.06538578762412071,0.015427834223769605,-0.022936625251569785
1772618182540054500,0.546054443359375,-0.057197220471501345,0.018076832628902046,-0.03131776040080003
1772618182550086700,0.556086669921875,-0.04605564873218536,-0.006705708183720707,-0.014021497390069998
1772618182560117800,0.56611767578125,0.01821019495129585,-0.007424323048163205,0.002887277840147726
1772618182570149600,0.576149658203125,0.1668400829732418,-0.002183134459052235,0.0609855936035281
1772618182580181500,0.586181396484375,-0.030002924075722692,0.008034271640051155,-0.015450717342435381
1772618182590213600,0.596213623046875,-0.05734276642203331,0.00467856800397858,0.013076973948418162
1772618182600245800,0.606245849609375,-0.06946165876090526,0.01296285061603412,-0.012072231052396819
1772618182610276600,0.616276611328125,-0.0575216301202774,0.008016261059325187,-0.010540770001686177
1772618182620308700,0.626308837890625,-0.023901684591174123,-0.012358692444115877,-0.001747345990827307
1772618182630340600,0.636340576171875,0.04293313279747963,0.005041811825800687,0.013470110585005022
1772618182640372500,0.64637255859375,0.13170739479362964,-0.003323737595230341,0.06662087324387393
1772618182650404600,0.656404541015625,-0.051553077104687685,0.003947331119980663,-0.007647870704927481
1772618182660436700,0.666436767578125,-0.03774550102651119,0.007794179273862391,0.0030855357920285312
1772618182670467600,0.676467529296875,-0.04941255794465541,-0.0006909414062276482,-0.003447432473558001
1772618182680499500,0.68649951171875,-0.03837035492658615,-0.003203545281663537,-0.010755846657627261
1772618182690531800,0.69653173828125,-0.016124036327004432,0.0008683072671294211,-0.03186611499856226
1772618182700563700,0.706563720703125,0.06942015770673751,0.0025936880213208494,0.022991287181410004
1772618182710595600,0.716595703125,0.11570844615101814,0.0023241503649391233,0.05503271308110561
1772618182720626700,0.726626708984375,-0.03388999464213848,0.014368169103004038,-0.012572869484336115
1772618182730658600,0.736658447265625,-0.056905544048547745,0.008342515605315565,-0.00957117148428224
1772618182740690200,0.746690185546875,-0.06692950993478297,0.0032092626363970336,-0.008190768242860212
1772618182750722300,0.756722412109375,-0.028057050704956052,0.009733495039679109,-0.02044562128658872
1772618182760754400,0.76675439453125,-0.00596738397181034,0.0013804032414220272,-0.019230359178734942
1772618182770785300,0.776785400390625,0.06658756462931632,-0.013607340798340736,0.01998443808220327
1772618182780817200,0.786817138671875,0.06752747582793235,0.006079557375703006,0.023723131420183924
1772618182790849500,0.796849609375,-0.04167641073465347,0.009326704337075352,-0.00872572450293228
1772618182800881400,0.80688134765625,-0.04509352570176124,0.005523750123847275,-0.0033574572017416354
1772618182810913300,0.816913330078125,-0.028638649985194206,-0.008791337085049599,-0.01752806247260887
1772618182820944400,0.8269443359375,-0.01879530136287212,0.0003608509353362024,-0.003418731535458937
1772618182830976300,0.836976318359375,-0.02362520573735237,0.016324783063493668,-0.017416322893556206
1772618182841008400,0.84700830078125,0.0634603725194931,-0.011175784536171704,0.032801637716428377
1772618182851040300,0.857040283203125,0.04373451230823994,-0.009528309590090066,0.010574754469678737
1772618182861072400,0.867072265625,-0.036139819395542144,-0.005663670051191002,-0.011043426860775798
1772618182871103200,0.877103271484375,-0.03073065382838249,-0.007992934982664882,-0.005535257898550481
1772618182881135000,0.887135009765625,-0.04390343913435936,0.007249770198855548,0.004260479589225724
1772618182891167500,0.89716748046875,-0.03869827170670032,-0.006858085733838379,0.004897476018243469
1772618182901199400,0.907199462890625,-0.010149053570628166,0.005563789873290806,0.0019697017709258942
1772618182911231200,0.917231201171875,0.06304360841214657,-0.006306077874265611,0.027377585107390766
1772618182921263000,0.92726318359375,0.004708323821425438,-0.0015894246159121393,0.0059541408977471285
1772618182931294500,0.93729443359375,-0.03478022148013115,-0.01961869177604094,-0.016030065300082788
1772618182941326300,0.947326416015625,-0.01756546730697155,0.01280185136804357,0.0066673306684009725
1772618182951358200,0.957358154296875,-0.04062777846455574,0.01262139850091189,0.0010471846651053055
1772618182961390300,0.967390380859375,-0.027181436914205548,0.008116689226496963,-0.0009132560871308669
1772618182971422500,0.97742236328125,0.012887538623809813,0.0002734283802099526,0.01329444349084515
1772618182981453300,0.987453369140625,0.059446460703015326,-0.008833313063252716,0.04159939540911
1772618182991485400,0.9974853515625,-0.02344049682021141,0.0006991612453013658,0.010856393555807881
1772618183001517300,1.007517333984375,-0.021782792741060257,0.005154624550510197,0.003330240401253104
1772618183011549200,1.017549072265625,-0.020749358040094375,0.007718008765112608,-0.007276904800953343
1772618183021581300,1.027581298828125,-0.014320786297321319,-0.004885360888764262,-0.005192097883531824
1772618183031612400,1.0376123046875,-0.02510755324959755,-0.003762092479877174,-0.008945052642305381
1772618183041644300,1.047644287109375,0.025763971331715582,-0.006173172209598124,0.01505995075944811
1772618183051676200,1.05767626953125,0.02907411879301071,-0.0020514709034003317,0.019211426149401814
1772618183061708300,1.067708251953125,-0.027034721919894217,-0.008161569547839462,-0.0056572083443636074
1772618183071740400,1.077740478515625,-0.03002045973241329,0.00463995302664116,-0.017192304879333823
1772618183081772300,1.087772216796875,-0.023886487022042272,-0.0054744310894049705,-0.015053196791675872
1772618183091803400,1.097803466796875,-0.02763327233493328,-0.008325710600987076,-0.007101854194724
1772618183101835300,1.107835205078125,0.00286649534702301,-0.01699718416603282,-0.00821645523996558
1772618183111867400,1.117867431640625,0.03998246629834175,0.00339556072242558,0.000042318471497856075
1772618183121899300,1.127899169921875,-0.003253448837995529,-0.0012928345558233557,-0.008416713352687656
1772618183131931400,1.137931396484375,-0.012528057661652565,-0.00028531974740326403,0.004171129938494414
1772618183141962200,1.147962158203125,-0.02794949867725372,-0.004195844254642725,0.0014265576378209516
1772618183151994000,1.157994140625,-0.02614624864757061,-0.0029460451229475436,-0.011591164970607496
1772618183162026500,1.168026611328125,-0.01853752720952034,-0.007396028535440564,0.009943954886007121
1772618183172058400,1.178058349609375,0.03202303172647953,0.002252089775726199,0.01736110840786714
1772618183182090200,1.18809033203125,0.02049859814941883,-0.004624554528109729,0.018996577822323887
1772618183192121300,1.198121337890625,-0.022430442994832992,0.0020683672392740843,-0.010418582093855365
1772618183202153500,1.208153564453125,-0.01883504885137081,-0.001948521985579282,0.011820192520087584
1772618183212185300,1.218185302734375,-0.024227847805619238,-0.0038643472779542206,-0.001089640133921057
1772618183222217200,1.22821728515625,-0.00658873074054718,0.011712996685411781,-0.012612142048799431
1772618183232249300,1.238249267578125,-0.006153261932730674,0.018210213217604906,0.011318850835249758
1772618183242280200,1.2482802734375,0.028110826718807217,0.01493141074264422,0.029556554847978984
1772618183252312300,1.258312255859375,-0.021107669958472252,0.011603270966932177,0.0009423543174518272
1772618183262344400,1.268344482421875,0.0002887538135051727,0.015992208374571056,-0.005166424586158245
1772618183272376300,1.278376220703125,-0.013322422909736632,-0.0023404256463050842,0.0022784982920391484
1772618183282408200,1.288408203125,-0.017827917635440824,-0.003312375950999558,-0.003352246737084351
1772618183292439300,1.298439208984375,-0.017242811223864556,0.0025416838394477963,0.008561715880525298
1772618183302471400,1.308471435546875,0.014208558094501495,0.0013616437420248984,0.009094192489143461
1772618183312503300,1.31850341796875,-0.009095745125412941,0.01171036633690819,0.003793026474257931
1772618183322535200,1.32853515625,-0.0186567696750164,0.0027840960268862543,0.004064532325440086
1772618183332567300,1.3385673828125,-0.01653846234679222,-0.006720357763580978,0.006836335126333869
1772618183342598400,1.348598388671875,-0.015604980888962745,-0.004974317813850939,-0.003637612150260247
1772618183352630300,1.35863037109375,-0.006803250274062156,0.002468052347656339,-0.003291858319356106
1772618183362662400,1.368662353515625,0.01682955424785614,0.002651720085181296,-0.002068696032837033
1772618183372694300,1.3786943359375,0.007256254738569259,-0.000616213935893029,-0.006699114046152681
1772618183382726400,1.388726318359375,-0.0018757307440042494,0.002490355511009693,-0.006266307552880607
1772618183392757500,1.398757568359375,-0.006797989577054977,0.006336600876692682,-0.007608488542609848
1772618183402789400,1.408789306640625,-0.005756371569633483,0.0003857113819569349,-0.0027133688782341775
1772618183412821200,1.4188212890625,0.0011024082839488983,-0.007254464640282094,0.01617757031226065
1772618183422853000,1.42885302734375,0.011720832931995391,-0.003331920901685953,0.020646313224150798
1772618183432885500,1.438885498046875,-0.01549625981748104,-0.006563943359162658,0.0008948208147194236
1772618183442917400,1.44891748046875,-0.009502572360634804,0.005554200061038136,-0.008395501601300202
1772618183452948200,1.4589482421875,-0.005313888499140739,-0.010780921733379363,-0.01679079770662356
1772618183462980400,1.46898046875,-0.01788403173685074,-0.00678052698560059,0.005224817409622482
1772618183473012500,1.479012451171875,-0.01055062010884285,-0.004295925361942499,0.0005545103439129888
1772618183483044400,1.48904443359375,0.016539631390571595,-0.019812661711871623,0.0012617589975474402
1772618183493076200,1.499076171875,0.01234393326640129,-0.001078205424454063,-0.011108811114029959
1772618183503107300,1.509107421875,-0.018343465942144394,-0.008604728471767157,-0.00593334013831336
1772618183513139200,1.51913916015625,-0.021197101807594296,-0.01142628869852051,-0.009938940784172155
1772618183523171300,1.52917138671875,-0.01371639066338539,-0.008615523860417307,-0.00046019682369660583
1772618183533203500,1.539203369140625,0.0004898293435573578,-0.004013126365188509,-0.008995143428305163
1772618183543235300,1.5492353515625,0.010367664757370948,0.012428944668732582,-0.006563509534322656
1772618183553266200,1.55926611328125,-0.01671323439180851,0.004959869163390249,0.004120294800400734
1772618183563298300,1.56929833984375,-0.017627426627278328,0.0003147102386690676,-0.006043613846064545
1772618183573330400,1.579330322265625,0.000026888006925582884,0.0022347915810532865,0.0025289841880789025
1772618183583362300,1.5893623046875,-0.006720832687616348,0.007027140424121171,-0.0024476945462170987
1772618183593394200,1.599394287109375,-0.011963409516215323,-0.014048928819689898,0.006330148303019814
1772618183603425300,1.60942529296875,-0.014958499678969383,-0.009513203352503477,-0.007770652267802506
1772618183613457400,1.61945751953125,-0.017948913666605948,0.0061922970351763066,-0.008208395231096073
1772618183623489300,1.6294892578125,-0.017047580912709234,0.0007979089120402932,-0.0005267638204619288
1772618183633521400,1.639521484375,-0.004782558101415634,-0.012923614584188907,0.00008578315388876945
1772618183643553300,1.64955322265625,-0.0037350948750972746,0.004810103695467114,0.009482593585108407
1772618183653584100,1.659584228515625,-0.008517068454623222,-0.0006334025327116251,0.015751029162993653
1772618183663616500,1.669616455078125,-0.009112111738324165,0.00033796325009316204,0.0009441581154707819
1772618183673648400,1.6796484375,-0.006731354081630707,0.009852189515903591,0.01851612366188783
1772618183683680300,1.68968017578125,-0.020358897417783735,-0.001817333353962749,-0.0059698407903779295
1772618183693712100,1.699712158203125,0.0055371758610010145,0.0018400566424243152,-0.004809281711559742
1772618183703743200,1.7097431640625,-0.0016465981632471083,-0.002234974244143814,0.006614970293501392
1772618183713775400,1.719775390625,-0.006291209098696709,-0.0004888064302504062,0.0010220821898896248
1772618183723807200,1.72980712890625,-0.009731120419502257,0.0042799240752123295,-0.01656545995157212
1772618183733839400,1.73983935546875,-0.004953238493204117,-0.007783146423194557,-0.0007627006013412028
1772618183743870700,1.74987060546875,-0.007642039185762405,-0.0011944339489564299,0.012616630994249135
1772618183753902600,1.759902587890625,-0.011972177344560622,-0.007371661279164254,0.0021470950312912464
1772618183763933700,1.76993359375,-0.016762334230542183,0.010997468827199191,-0.008888089157524518
1772618183773965600,1.779965576171875,-0.007042904248833656,0.011206325804907828,0.005586636459338479
1772618183783997700,1.789997802734375,-0.005851648637652397,-0.002134144218172878,0.019954686831333675
1772618183794029800,1.80002978515625,-0.006600421178340912,-0.016005908106360583,0.008374367481726222
1772618183804061700,1.810061767578125,0.0013379706054925918,0.0030020678928121924,0.0009392490449128672
1772618183814092500,1.820092529296875,-0.01827040070593357,-0.0077527330186218015,-0.0020501648623030633
1772618183824125000,1.830125,-0.0034603695869445798,-0.02100687646511942,-0.00962784270811826
1772618183834156800,1.84015673828125,-0.006004793372750282,0.012084533411543816,0.0019606279819039626
1772618183844188700,1.850188720703125,-0.019159458500146866,-0.0053548050314188,-0.013866169831040314
1772618183854220500,1.860220458984375,-0.016758242577314376,0.002139605844579637,-0.010257532613514923
1772618183864251600,1.870251708984375,-0.009884849676489829,0.008635014012176543,0.0005881249191472306
1772618183874283800,1.88028369140625,-0.0064507835745811455,-0.0062016676517203445,0.012850631546368821
1772618183884315600,1.890315673828125,-0.003900514569878578,0.001251041240710765,-0.0019003400288755074
1772618183894347800,1.90034765625,-0.006747136172652244,-0.00758833623714745,0.004553831946034916
1772618183904379600,1.910379638671875,-0.011848843225836753,-0.0020442739776335653,-0.0048836164562497284
1772618183914410500,1.920410400390625,-0.005261866050958633,-0.00036359088169410825,0.007339128982741385
1772618183924443000,1.93044287109375,-0.00660568187534809,-0.002018865541741252,0.005035720011731609
1772618183934474800,1.940474853515625,-0.0037561376631259917,0.0024106778709217904,-0.001490754580986686
1772618183944506600,1.950506591796875,0.001633154159784317,-0.002517663643043488,-0.0007904334250604734
1772618183954538800,1.960538818359375,-0.008850245931744575,-0.010348065007757395,-0.008807452536211348
1772618183964569900,1.97056982421875,-0.009298574221134186,0.007342270787898451,0.004594762178044766
1772618183974601700,1.980601806640625,-0.009898878201842307,0.006499207559879869,0.001407519577210769
1772618183984633600,1.990633544921875,-0.013044190490245819,-0.008994568039570003,-0.009646707238792442
1772618183994665700,2.000665771484375,-0.011702712753415107,0.0001457286136224866,0.00010065192945767193
1772618184004697900,2.01069775390625,-0.00930968013703823,0.001088270160742104,0.015187604860262945
1772618184014728700,2.020728759765625,-0.009909984117746353,0.008055387493316083,-0.0020163447910919786
1772618184024760800,2.0307607421875,-0.018438743010163305,0.009196648216620086,-0.00933830344332382
1772618184034792700,2.040792724609375,-0.000037409400939941404,-0.0008353731119073927,0.000935075193294324
1772618184044824600,2.050824462890625,-0.014103928676247596,-0.0060373622017912566,0.005039140378101729
1772618184054856700,2.060856689453125,-0.018448095360398292,0.010480641878861933,-0.010642431144719012
1772618184064887800,2.0708876953125,-0.015158406165242194,0.013150445610005407,0.012539807464950717
1772618184074919700,2.080919677734375,-0.005135024800896644,0.010062014607992022,0.00045014578714035446
1772618184084951600,2.09095166015625,-0.010520224970579146,0.0049954701997339725,-0.004124413853092119
1772618184094984000,2.10098388671875,-0.016653028637170792,0.008965506341867149,0.004312264575390145
1772618184105015800,2.111015869140625,-0.010066635984182358,0.004906732470355927,0.0028622347304364665
1772618184115046700,2.121046630859375,-0.002590601015090942,0.008869224626850336,0.00983535254553426
1772618184125078800,2.131078857421875,-0.01695639549791813,0.006029343292117118,0.0016975383326178416
1772618184135110700,2.141110595703125,-0.01590191800892353,0.009113847037684171,0.0019815885715419425
1772618184145142800,2.151142822265625,-0.015748188751935958,-0.008702179230563342,0.00420316904457286
1772618184155174700,2.161174560546875,0.002508183428645134,-0.0007944931122474372,0.013632182978652417
1772618184165206800,2.171206787109375,-0.0034790742874145505,0.0007914974375627935,0.0060777398779522625
1772618184175237600,2.181237548828125,-0.01140636015534401,0.010409165811538695,-0.00293538673161529
1772618184185269500,2.19126953125,-0.000029810616374015806,0.020285375523846596,-0.006701237504580058
1772618184195302000,2.201302001953125,-0.014398527708649635,0.016337258952576667,0.001226815548329614
1772618184205333800,2.211333740234375,-0.01514554668366909,0.00045558001408353444,-0.007837712454912252
1772618184215365600,2.22136572265625,-0.016640169155597687,0.01280218016160652,-0.01188459495923016
1772618184225396700,2.231396728515625,-0.0052688803136348725,-0.007788644582219421,-0.021831445055222137
1772618184235428900,2.241428955078125,-0.006469488275051116,-0.0061852279735729095,0.005574977987585589
1772618184245460700,2.251460693359375,-0.0070709612995386115,0.0007969955965876579,0.0066327525453642
1772618184255492600,2.26149267578125,-0.006620294922590256,0.012119495127070695,0.007993610836099833
1772618184265524700,2.271524658203125,0.0019137246668338775,-0.0017980075989849865,-0.01077605832859408
1772618184275555600,2.2815556640625,0.006705635118484497,-0.002692563552223146,-0.018468370963446796
1772618184285587700,2.291587646484375,-0.016636662024259567,-0.007081117367371916,0.009004582543508149
1772618184295619800,2.301619873046875,-0.011846505138278007,-0.008152180664986372,-0.0030531633258098737
1772618184305651700,2.311651611328125,-0.018431728747487067,0.0030550584553740916,0.0000927517507923767
1772618184315683600,2.32168359375,-0.028463877940177917,0.013585384694859384,0.002431729792105034
1772618184325714700,2.331714599609375,-0.019186931028962136,-0.0030300336119718847,-0.005452452153037302
1772618184335746800,2.341746826171875,-0.008560907596349716,0.005405877631530166,0.01060066522907
1772618184345778700,2.35177880859375,-0.012900398105382918,0.008123082434665412,0.00813479570534546
1772618184355810600,2.361810546875,-0.003471475502848625,-0.0023589476836845275,-0.0009710917881689965
1772618184365843000,2.371843017578125,-0.0019739304214715955,0.0053814190437085924,0.0047094837320502845
1772618184375873800,2.381873779296875,0.003113748106360435,0.015119919052068144,-0.0007393927909899503
1772618184385905700,2.39190576171875,-0.008258709779381751,0.004352276925370097,-0.008487792127788997
1772618184395937800,2.401937744140625,-0.01484276434481144,0.012426442184392362,0.0004547443304443732
1772618184405969700,2.4119697265625,-0.015438392150402068,0.002299381249863654,-0.01042530409558676
1772618184416001800,2.422001708984375,-0.0055599722146987916,0.010438410172332078,-0.005884496027906425
1772618184426033000,2.432032958984375,-0.008549217158555984,0.00893898366112262,-0.002952205435675569
1772618184436064800,2.442064697265625,0.003423544707894325,0.0007991327547468244,0.00921600137106143
1772618184446096600,2.4520966796875,-0.0004611877709627151,-0.005099496829789132,0.004987081397301517
1772618184456128500,2.46212841796875,-0.00823649794757366,0.005796301721222698,-0.002714807350072078
1772618184466161000,2.472160888671875,-0.011081365984678267,0.002297152760159224,-0.004335759615409188
1772618184476191700,2.482191650390625,-0.017960019582509992,0.002431318800151348,0.0019607969452627
1772618184486223600,2.4922236328125,-0.011671733093261718,-0.0035072592022828758,-0.0025926970740547403
1772618184496255700,2.502255859375,-0.009123802176117897,-0.008249430494382978,0.006358958838973194
1772618184506287900,2.512287841796875,-0.0059784898877143855,0.0027287491104565557,0.0009028168915072456
1772618184516319700,2.52231982421875,-0.017948329144716262,0.0016147965191863477,-0.0011186972650466486
1772618184526350800,2.532350830078125,-0.005379939472675323,-0.0035878501578234133,0.009007454920606688
1772618184536382700,2.5423828125,-0.008367430850863456,-0.005097377937939017,0.006394884102302603
1772618184546414600,2.55241455078125,-0.013752631020545959,-0.012953333869017659,-0.007874322704831137
1772618184556446700,2.56244677734375,0.013181553134322165,-0.002631389683205634,0.0018213473753770813
1772618184566478800,2.572478759765625,-0.010313888743519782,0.0037402277079410847,-0.0026720778866205362
1772618184576509700,2.582509765625,-0.011516250270605087,0.0022743746727705,0.0043232700265944
1772618184586541600,2.59254150390625,-0.0065747022151947014,-0.005951674946025013,0.0019776795814046635
1772618184596573700,2.60257373046875,-0.021988544446229934,-0.011159308325406164,-0.004485821910854428
1772618184606605800,2.612605712890625,-0.004633505019545555,0.015596505321562289,-0.008656554557126946
1772618184616637700,2.6226376953125,-0.013014379873871803,0.01546641266848892,0.0086531250576023
1772618184626669600,2.632669677734375,-0.013459201031923293,0.003805968154221773,-0.012251706671994178
1772618184636700700,2.64270068359375,-0.013455693900585174,0.006364420465379953,-0.0026016155994497236
1772618184646732800,2.65273291015625,-0.010163082095980644,0.001722111084870994,-0.006148156499350443
1772618184656764700,2.6627646484375,-0.0134545248568058,0.0072557250156067305,0.0033483879792969673
1772618184666796800,2.672796875,-0.004629997888207435,-0.0011562756293453276,0.000567712318780832
1772618184676828700,2.68282861328125,-0.018847908332943916,-0.006117149439733475,-0.009705465388437733
1772618184686859500,2.692859619140625,0.0001607435196638107,-0.0028277707718312737,-0.003703927985276095
1772618184696892000,2.702891845703125,0.0003127192109823227,0.005749229442793876,0.012557726714131422
1772618184706923800,2.712923828125,-0.014650456643104553,0.0023284977464936673,-0.0003129247069591656
1772618184716955600,2.72295556640625,-0.006120528706908226,-0.0038010545170865952,-0.014439544705627486
1772618184726987500,2.732987548828125,-0.010008183795213699,0.012249131122417748,-0.007669858774449676
1772618184737019600,2.74301953125,-0.01120762271285057,-0.0021643018944188953,0.0013466105696745216
1772618184747051500,2.753051513671875,-0.014651041164994239,-0.00018043460082262753,0.000018202376971021293
1772618184757083400,2.76308349609375,-0.008812836530804634,0.003140343852341175,0.003784998431429267
1772618184767115500,2.773115478515625,-0.010308043524622917,-0.0015365984501317142,-0.010716510161082259
1772618184777147600,2.783147705078125,-0.012402385455369948,0.00830238452432677,0.0029790477768285198
1772618184787178500,2.793178466796875,-0.0022235212683677672,-0.005279109446704388,0.006782175519992597
1772618184797210400,2.80321044921875,-0.010156067833304404,0.005900200487114489,0.011883147354237735
1772618184807242500,2.813242431640625,-0.005063128608465194,-0.0011646781315095723,0.004443841366074047
1772618184817274600,2.823274658203125,-0.01329553490281105,0.008801164359319954,0.006306689795618876
1772618184827306500,2.833306396484375,-0.005963876840472221,0.0020593436826020477,0.0034732245019404215
1772618184837337600,2.843337646484375,0.00391220500767231,-0.007686791642941534,0.006554211983014829
1772618184847369500,2.853369384765625,-0.000723053577542305,0.006163125739619135,0.00602580876131542
1772618184857401600,2.863401611328125,-0.011795067211985588,0.0028287206199020145,0.013629511530953459
1772618184867433500,2.87343359375,-0.00895721343755722,0.006605700141657143,0.004316388194658793
1772618184877465600,2.883465576171875,-0.0029758009403944015,0.0016432736949995158,0.003228469660365954
1772618184887496400,2.893496337890625,-0.010156067833304404,-0.007088844016101211,0.006444312734599225
1772618184897528300,2.9035283203125,-0.006714987468719482,0.0029588315392844377,-0.008064963605836965
1772618184907560700,2.913560791015625,-0.013297872990369795,0.0009952398487366736,-0.012158475430589169
1772618184917592600,2.923592529296875,-0.005963876840472221,-0.002366802196577191,-0.0003091709804488346
1772618184927624400,2.93362451171875,0.002564297530055046,0.00034817411685362457,0.0043995729660848155
1772618184937655600,2.943655517578125,-0.007011924588680267,-0.0013469393632374704,0.0001064743154682219
1772618184947687400,2.9536875,-0.0037158056527376174,-0.011792893521208315,0.011424914158764295
1772618184957719600,2.963719482421875,-0.012093757897615432,-0.01963381627993658,-0.0026170369308674704
1772618184967751400,2.97375146484375,-0.00610942279100418,-0.0041979814128018916,-0.0031436683205887674
1772618184977783600,2.983783447265625,0.00646364305615425,0.0067795040722936385,-0.004267060027061962
1772618184987814400,2.993814453125,-0.013884732967615127,-0.0020147190895862875,-0.005144221887504682
1772618184997846500,3.003846435546875,-0.010147300004959106,-0.009541479598917067,0.017108663450181482
1772618185007878700,3.013878662109375,-0.009702478846907616,0.006163856391981244,-0.00824169927907642
1772618185017910500,3.02391064453125,-0.016438509103655814,-0.0028865334880538284,0.0071784174291184165
1772618185027942400,3.0339423828125,-0.0035737668335437773,-0.0114198041588068,-0.017096306292107327
1772618185037973500,3.043973388671875,-0.01644610788822174,0.006963190076127648,0.007007864901493303
1772618185048005600,3.054005615234375,-0.010912439158558844,0.005282726175896823,-0.0014278956449590623
1772618185058037500,3.06403759765625,-0.01495557706952095,0.005137801279872655,0.00275162766254507
1772618185068069400,3.0740693359375,-0.016303484547138213,-0.009464907231368124,0.005653418085235171
1772618185078101500,3.0841015625,-0.0013408932149410247,0.00713757852865383,0.002676164973271079
1772618185088132400,3.09413232421875,-0.008074585384130478,-0.007202935382444411,0.0015365756172453983
1772618185098164500,3.10416455078125,-0.016903788527846336,-0.003934142844844609,0.013915872457972727
1772618185108196600,3.114196533203125,-0.014814707294106482,-0.01491838686428964,0.004166312199481763
1772618185118228500,3.124228515625,-0.013168109130859374,0.004040781557094306,0.002928454667329788
1772618185128260600,3.134260498046875,-0.008234744381904602,0.0009385229591280221,0.0033977024471620095
1772618185138292500,3.14429248046875,-0.019311434191465377,-0.016735628886707127,-0.009441882548807188
1772618185148323600,3.154323486328125,-0.0027028292179107666,0.005587115949951112,0.0026656618455657734
1772618185158355500,3.16435546875,-0.008537526720762252,-0.0026825353485532104,-0.0034881252435501665
1772618185168387300,3.17438720703125,-0.003450432714819908,0.0039139403070323165,-0.001755652594869025
1772618185178419700,3.184419677734375,-0.01033142440021038,0.0011028832079842685,0.003953281370154582
1772618185188451600,3.19445166015625,-0.0037479543566703794,0.013816362172830849,-0.0027435128547484053
1772618185198482400,3.204482421875,0.004932195705175399,0.01299087113412097,-0.010754663914116098
1772618185208514600,3.2145146484375,-0.01122632741332054,-0.005645166280120611,-0.007662698381301015
1772618185218546400,3.22454638671875,-0.001353168174624443,0.0004417706844396889,-0.001833581235865131
1772618185228578600,3.23457861328125,-0.01377484285235405,0.01785244928849861,-0.01247296190697234
1772618185238610400,3.2446103515625,-0.015720131701231002,-0.0077425769507884976,-0.004080008455784991
1772618185248641500,3.2546416015625,-0.006889759513735771,0.002979052343405783,0.004274914539954625
1772618185258673400,3.26467333984375,0.004185761252045631,0.0015175832224078476,0.016585178432194515
1772618185268705500,3.27470556640625,-0.013318331256508827,-0.011062387289572507,0.0002981244300492108
1772618185278737700,3.284737548828125,-0.015710779350996018,0.0011142996511422096,-0.0008255138715961948
1772618185288769500,3.29476953125,-0.013766659545898436,0.0009632555415853857,0.0036292370475595813
1772618185298800400,3.30480029296875,0.0016489362508058548,-0.014562942756433038,0.013288274044962599
1772618185308832500,3.31483251953125,-0.007619827353954315,0.0007879172409884631,0.00029644392961636183
1772618185318864600,3.32486474609375,-0.004328384593129158,0.010248440558183938,0.005724606458190828
1772618185328896500,3.334896484375,-0.0034305589705705642,-0.007086962586268782,0.007410390420933254
1772618185338928400,3.344928466796875,-0.0016337386816740035,0.004663498299010097,-0.0029710927992360665
1772618185348959500,3.35495947265625,-0.014206220006942749,-0.0006261325417086482,0.0020808385617798195
1772618185358991400,3.364991455078125,-0.007471358793973922,-0.005739310836978257,-0.0005706714608473703
1772618185369023500,3.3750234375,-0.0061240358382463455,0.001114902439340949,0.0028571703962516036
1772618185379055600,3.3850556640625,-0.008520575585961341,0.0011859035826288164,-0.011261919316509737
1772618185389087500,3.39508740234375,0.0013549217402935027,-0.010901917764544486,0.0017764168216846882
1772618185399118300,3.405118408203125,-0.0029845687687397003,-0.002972987928800285,-0.0001453952534822747
1772618185409150700,3.415150634765625,-0.004781389057636261,-0.007755363367125391,-0.0007933560345089063
1772618185419182600,3.4251826171875,-0.013164017477631568,-0.005714139863103628,-0.003754694624710828
1772618185429214500,3.43521435546875,-0.0086748893648386,-0.0058804363407194615,0.007698189819790422
1772618185439246300,3.445246337890625,-0.0004489128112792969,0.005805526207294315,0.00654517016003374
1772618185449277400,3.45527734375,-0.012267360898852348,-0.0019002441307529806,0.004092091619223356
1772618185459309600,3.4653095703125,0.0029921675533056257,0.0055646118571981784,0.003408173608826473
1772618185469341400,3.475341552734375,0.0016407529443502424,-0.002935907321423292,-0.00034948929110541937
1772618185479373600,3.48537353515625,-0.007338087803125381,-0.0158311725939624,-0.0033130198383936656
1772618185489405400,3.495405517578125,0.0016436755537986754,-0.012819240894261747,0.00040230632373131807
1772618185499436500,3.5054365234375,-0.011673486658930778,0.003608125760871917,-0.000978297847090289
1772618185509468700,3.51546875,-0.01167640926837921,0.005796265188604593,0.0018051725587109103
1772618185519500500,3.52550048828125,-0.004794248539209366,0.00879120922088623,-0.0028738566695712506
1772618185529532400,3.535532470703125,-0.0056885670304298395,0.014786467580311,0.0009529305103933439
1772618185539564500,3.545564453125,-0.006882745251059532,0.004629212436918169,-0.002434063313086517
1772618185549595600,3.555595703125,-0.018705284991860388,-0.009833174288179725,0.011577985828625969
1772618185559627500,3.56562744140625,0.00478489618897438,-0.005399740151688456,0.009253922228654846
1772618185569659400,3.575659423828125,-0.004939209967851638,0.0018103008249774574,-0.005600007397565059
1772618185579691500,3.58569140625,0.007930208477377892,-0.004693308915384113,0.00954827009930741
1772618185589723600,3.5957236328125,-0.010177110621333122,0.0002889547429047525,-0.011989247210370375
1772618185599754500,3.60575439453125,-0.017357962036132813,0.008018343418557197,0.0028348535331664607
1772618185609786600,3.61578662109375,-0.01944938135743141,0.008472279464825988,-0.015185243939817883
1772618185619818500,3.625818603515625,-0.013910451930761337,0.010030286029167473,0.0036509785219095646
1772618185629850400,3.635850341796875,-0.012409984239935874,-0.002680452989321202,-0.00322712708665058
1772618185639882500,3.645882568359375,0.0013549217402935027,-0.00984300156245008,0.014581327796494587
1772618185649913600,3.65591357421875,-0.006430325308442115,-0.004921765642706305,0.0006270367240067571
1772618185659945500,3.665945556640625,-0.0113718733638525,-0.001074168570153415,0.004429680409980937
1772618185669977300,3.675977294921875,-0.013462123641371726,0.0007223229251801967,-0.008185996169620194
1772618185680009700,3.686009765625,0.0010544774889945983,0.003196969410404563,0.001942105944524519
1772618185690041600,3.69604150390625,-0.00971709189414978,-0.00482816907512024,-0.014243999300641007
1772618185700072400,3.706072509765625,-0.009565116202831268,-0.005619867442082613,0.006654105860646814
1772618185710104600,3.7161044921875,-0.004929273095726967,0.005878153052087873,-0.006362370072188787
1772618185720136400,3.726136474609375,-0.004482698372006416,0.010898008774407207,0.007779926986224018
1772618185730168600,3.73616845703125,-0.006427987220883369,0.00805927821714431,0.011856588140875101
1772618185740200400,3.746200439453125,-0.02348959665894508,0.0006563998158089816,0.005439916898449883
1772618185750231600,3.7562314453125,-0.010470540609955788,-0.0015101305683143437,-0.0033695403651800002
1772618185760263400,3.766263427734375,-0.001194178220629692,0.007489752967189997,0.00009722242993302642
1772618185770295300,3.77629541015625,-0.006433832439780235,-0.0009486242280341684,0.0059482363133458414
1772618185780327700,3.78632763671875,-0.01331774673461914,0.00040527459895238276,-0.0014098941973876206
1772618185790359600,3.796359619140625,-0.005680968245863914,0.002795311540644616,0.0055944133404176675
1772618185800391400,3.806391357421875,-0.0032879356294870377,-0.0031718349691480397,0.005553980865329503
1772618185810422500,3.816422607421875,-0.0029892449438571928,0.0071658913076855235,-0.00019461838980205356
1772618185820454400,3.826454345703125,-0.0022439795345067974,-0.005022248608805239,-0.0028411919424077493
1772618185830486500,3.836486572265625,-0.016460720935463906,0.0024962189962156114,-0.005863923597335815
1772618185840518400,3.846518310546875,-0.006883914294838905,0.006650598729308694,0.004235358847700991
1772618185850550500,3.856550537109375,-0.007786416092514991,0.007258190967328846,-0.009776498497766442
1772618185860581400,3.866581298828125,-0.004941548055410385,-0.004003901879116893,0.0035225344032282007
1772618185870613500,3.876613525390625,-0.013320669344067573,0.0027099713447503743,0.002317958086170256
1772618185880645600,3.886645751953125,0.00044482115805149076,-0.0090715057333,0.0023114781130338085
1772618185890677500,3.896677490234375,-0.010031564670801163,-0.007293938134144991,-0.003754616992897354
1772618185900708400,3.906708251953125,0.0007423427999019623,-0.014315160274133085,0.0010843063716776669
1772618185910740500,3.916740478515625,-0.013022563180327415,0.013756302548665552,0.006670778434234671
1772618185920772600,3.926772705078125,-0.00464636450111866,0.01476683129807934,-0.009876807933929376
1772618185930804500,3.936804443359375,0.011218728628754615,0.003395359793026,-0.012791060545970685
1772618185940836400,3.94683642578125,-0.011378303104639052,-0.004351948131807148,-0.015581974472710862
1772618185950868500,3.956868408203125,-0.007038228073716163,-0.005584905726555734,0.0014361383169190958
1772618185960899300,3.9668994140625,0.0005973813712596892,-0.01906140495315194,0.009031671479833312
1772618185970931500,3.976931396484375,-0.016460136413574217,0.02088865691293031,-0.008512492744205518
1772618185980963600,3.986963623046875,-0.005987842237949371,-0.005693553732801228,0.003807835884322412
1772618185990995500,3.996995361328125,-0.010173018968105315,-0.0027494996375404296,0.00906318086294923
1772618186001027300,4.00702734375,-0.006281272226572036,0.00008223492335528135,-0.0001019397042458877
1772618186011058700,4.01705859375,-0.005086509484052658,0.0033458580954931674,0.008289474810403772
1772618186021090600,4.027090576171875,-0.009425415471196174,-0.011945015342999249,0.003484545046975836
1772618186031122400,4.037122314453125,-0.017960019582509992,-0.003941485901083797,-0.011842294754041359
1772618186041154300,4.047154296875,-0.009433014255762099,0.006760123518388718,-0.006013515535322949
1772618186051186700,4.057186767578125,-0.009133739048242568,0.005408160920161754,-0.007234326034551486
1772618186061217500,4.067217529296875,0.0040308629512786865,0.0005696348478086293,-0.0008976886252406984
1772618186071249400,4.07724951171875,-0.008841478103399277,-0.0015435213812626898,-0.0041820075255353
1772618186081281500,4.087281494140625,-0.00360416197180748,0.009516710483841598,-0.012134359336062333
1772618186091313400,4.0973134765625,-0.01482347512245178,0.0035441206139512358,-0.004384749856288545
1772618186101345500,4.107345458984375,-0.02080839475095272,0.010561214568093419,0.002520663884305395
1772618186111376600,4.117376708984375,-0.009437105908989905,-0.005440017363149673,-0.00029504655697382983
1772618186121408500,4.127408447265625,-0.008538695764541625,0.0015497867252677678,0.004410678881988861
1772618186131440400,4.1374404296875,-0.008845569756627081,-0.0019166290099732577,0.0010697161573218182
1772618186141472300,4.14747216796875,-0.007949497699737549,-0.00006068067867308855,0.0021102975517045706
1772618186151504600,4.157504638671875,0.0002811550289392471,0.01636129741529003,-0.010771290821931324
1772618186161535500,4.167535400390625,-0.004806523498892784,0.0039629670805297786,-0.0033601651820586993
1772618186171567400,4.1775673828125,-0.012734978410601614,0.0055222522865049535,-0.004285700795450247
1772618186181599500,4.187599609375,-0.014683774390816688,-0.0012453056196682155,-0.009240656321705319
1772618186191631600,4.197631591796875,0.00042903906702995297,0.00028879034612327813,-0.0035156480047153307
1772618186201663500,4.20766357421875,-0.0012175590962171553,0.005396141688805073,-0.0009786768730031326
1772618186211694600,4.217694580078125,-0.020073066213726995,0.00321092487052083,-0.01080683705934789
1772618186221726500,4.2277265625,-0.004659223982691764,0.006911916546616703,-0.005520539820031263
1772618186231758300,4.23775830078125,0.00042670097947120663,-0.0003119702923111617,-0.0038993409595219418
1772618186241790500,4.24779052734375,-0.011693360403180121,0.005519147013965994,-0.008343871878762728
1772618186251822600,4.257822509765625,-0.008854922106862067,-0.0016835326401516794,-0.0011383426804328336
1772618186261853400,4.267853515625,-0.011697452056407927,-0.012623590457998216,-0.008146723605156876
1772618186271885300,4.27788525390625,0.012243395501375197,0.0025048589603975414,-0.006570651661162264
1772618186281917700,4.287917724609375,-0.007657236754894256,0.006200608205795288,-0.010338055070396512
1772618186291949600,4.297949462890625,-0.008552724289894103,0.00523227463029325,-0.005051228108117357
1772618186301981400,4.3079814453125,-0.019780220746994016,-0.015712752112373708,-0.007216726445779204
1772618186312012500,4.318012451171875,-0.007508183673024177,-0.007705459810793399,-0.0025976198443444444
1772618186322044400,4.32804443359375,-0.008552139768004417,0.005519147013965994,-0.014892247776035218
1772618186332076500,4.33807666015625,-0.013338789522647857,-0.0015479600943624973,0.001806793693639338
1772618186342108400,4.3481083984375,-0.011544891843199729,0.0009012048897333443,-0.0023913201499031855
1772618186352140500,4.358140625,-0.009304419440031051,0.005955309941526502,-0.0006875575724756345
1772618186362171400,4.36817138671875,-0.003323591464757919,0.0010358458537608384,-0.0007047370361397043
1772618186372203300,4.378203369140625,-0.004674421551823616,0.017355021160375326,0.004423693627188913
1772618186382235600,4.388235595703125,-0.013951368463039397,0.013586754668038338,0.0039394537742016835
1772618186392267500,4.398267578125,-0.01574409709870815,0.008828728219680488,-0.010601331949350423
1772618186402299400,4.40829931640625,-0.007213000118732452,0.00518036177996546,-0.003560455260821618
1772618186412330500,4.41833056640625,0.006100654962658882,-0.0002243285414762795,0.005519562572496943
1772618186422362600,4.428362548828125,-0.011405191111564636,0.008582005183305591,0.004720813410240225
1772618186432394500,4.43839453125,0.0013175123393535614,0.006683478085603565,-0.004724699567491188
1772618186442426400,4.44842626953125,0.0025181203007698058,-0.0016687551961280405,-0.013424065786460413
1772618186452458500,4.45845849609375,-0.00840425572991371,0.019090795444417743,-0.00588461932549253
1772618186462489300,4.4684892578125,-0.019027941074967383,0.00021607216978445647,-0.013405986707075499
1772618186472521500,4.478521484375,-0.015583938100934027,-0.0033267880688421427,0.004356720205047167
1772618186482553600,4.4885537109375,-0.0033148236364126202,0.006281911547388881,-0.007958945948095061
1772618186492585500,4.49858544921875,-0.009750994163751601,-0.01371213461337611,-0.012606753487628884
1772618186502617300,4.508617431640625,-0.002121229937672615,-0.002291124878171831,0.004418601893540472
1772618186512648400,4.5186484375,-0.006609773528575897,-0.00036311595765873786,0.012017788318265228
1772618186522680600,4.5286806640625,-0.0016769933015108108,0.00804510356131941,-0.007753258175007067
1772618186532712400,4.53871240234375,0.0034141923576593396,-0.0029581556858494875,-0.002508425457240082
1772618186542744300,4.548744384765625,-0.022025369325280188,0.007280731592699885,0.006134634864074178
1772618186552776400,4.5587763671875,-0.00975450129508972,-0.008003858235478402,-0.00047992443747352806
1772618186562807600,4.5688076171875,-0.011256722551584244,-0.00854622148387134,0.006279217266803607
1772618186572839400,4.57883935546875,-0.006768763482570648,-0.0031951975784264503,0.010541733549488707
1772618186582871600,4.58887158203125,-0.0070697922557592385,-0.0010505684988573194,-0.010589454281888901
1772618186592903400,4.5989033203125,0.0002671265035867691,0.006980981461144983,-0.008298233505594544
1772618186602935600,4.608935546875,-0.011254968985915183,0.001177793341409415,0.002414006905746646
1772618186612966700,4.618966552734375,-0.0018307225584983824,0.0008353000466711819,0.003079338946682401
1772618186622998500,4.62899853515625,-0.01394435420036316,0.006876096314564347,-0.015146898390538989
1772618186633030400,4.639030517578125,-0.01962882957756519,0.010414006383437664,-0.009628998052165843
1772618186643062300,4.649062255859375,0.007298340314626693,0.004106211476121098,-0.00020834095447789876
1772618186653094700,4.6590947265625,-0.0015372925698757171,-0.0025531550815328955,0.00181080771505367
1772618186663125500,4.66912548828125,-0.008266893085837364,0.0037317886731587347,0.004389206835697405
1772618186673157400,4.679157470703125,-0.004219663521647453,0.008616674637887626,0.0006350875997217371
1772618186683189500,4.689189453125,-0.013794132074713706,0.004629175904300064,-0.002653720246022567
1772618186693221600,4.6992216796875,-0.007957096484303474,-0.004083305524569004,-0.000992276140092872
1772618186703253500,4.70925341796875,-0.017536825734376905,0.018208715380262582,-0.006237195622827857
1772618186713284600,4.71928466796875,-0.004964344409108161,0.017533209005184472,0.0013761654577217996
1772618186723316500,4.72931640625,-0.011095979031920432,-0.0009793481598608196,-0.016097632377268745
1772618186733348400,4.739348388671875,-0.015728315007686615,0.012291435894183814,-0.002960649037035182
1772618186743380500,4.74938037109375,-0.0013636895686388016,0.01303028982905671,-0.00291123410447035
1772618186753412600,4.75941259765625,0.004623568147420883,-0.009663114950899034,-0.005258838410233147
1772618186763443500,4.769443359375,-0.017666005071997642,0.0007297573129646479,-0.01038778053021524
1772618186773475300,4.779475341796875,0.0016413374662399291,-0.003167286658193916,-0.0064888642623787745
1772618186783507500,4.789507568359375,-0.004790741407871246,0.0027432890924625098,0.006507555263116955
1772618186793539600,4.79953955078125,-0.008380290332436561,0.006094663613289595,-0.0033128782744985073
1772618186803571500,4.809571533203125,-0.016904957571625707,0.011030768308602272,-0.01280286971477326
1772618186813602600,4.8196025390625,-0.0020920038431882855,-0.006851108003780245,-0.011601115542463958
1772618186823634400,4.829634521484375,-0.0097205990254879,-0.014900138821545988,0.011046194206597283
1772618186833666600,4.83966650390625,-0.017799276062846182,-0.003102057668566704,-0.004960764212533831
1772618186843698400,4.849698486328125,-0.014207389050722122,0.004523066915012895,0.01618804147392511
1772618186853730600,4.85973046875,-0.005672784939408302,0.0016313823278062045,0.007085816375375725
1772618186863761400,4.869761474609375,-0.020928806260228156,0.007994889477733523,0.009526738687511534
1772618186873793300,4.879793212890625,-0.008805822268128394,-0.004555763608217239,0.004292431930336169
1772618186883825700,4.88982568359375,0.0031669395983219143,-0.005934212354570627,0.008169611290399916
1772618186893857500,4.899857421875,-0.007157470539212226,-0.004592771150358021,0.008362882539909333
1772618186903889400,4.909889404296875,-0.013443418940901756,0.009961714304983615,-0.012617421012115665
1772618186913920500,4.91992041015625,-0.0014782558590173721,0.012719671243615447,-0.005856320246192626
1772618186923952400,4.929952392578125,-0.007315875971317291,-0.0032393837800249454,0.00013433500335086136
1772618186933984500,4.939984619140625,-0.02167933236658573,-0.0075793674794025715,0.003962638286966831
1772618186944016400,4.950016357421875,-0.010005845707654953,0.003774239575397223,0.00856278445960488
1772618186954048500,4.960048583984375,0.0045054947257041926,-0.0004663754027336836,0.020338324987213125
1772618186964079400,4.970079345703125,0.001513327172398567,-0.012459394605923444,0.005634366324893198
1772618186974111500,4.980111572265625,0.002114215674996376,-0.007777008943352847,-0.001647109619900584
1772618186984143600,4.9901435546875,0.0013689502656459808,0.003824033533874899,-0.001955486015905626
1772618186994175500,5.000175537109375,-0.015840543210506437,0.016754954641684888,-0.013686374551034532
1772618187004207400,5.010207275390625,0.0016629647761583328,0.013456862944364547,-0.016823658796609377
1772618187014238500,5.020238525390625,-0.01225157880783081,0.012073920685984193,-0.003721440809080377
1772618187024270600,5.0302705078125,-0.0011748889982700348,-0.0009201470522210002,-0.0011836887926561757
1772618187034302500,5.040302490234375,-0.00042553193569183347,0.011737966729886829,0.01024883328382857
1772618187044334300,5.050334228515625,-0.0047691140979528425,-0.004444814047031104,0.002708272578008473
1772618187054366500,5.060366455078125,-0.0032785832792520523,0.006233359697926789,-0.005050584220723249
1772618187064397600,5.0703974609375,-0.0013297872990369797,-0.002696326411888003,-0.0008321993407094851
1772618187074429400,5.080429443359375,0.0055599722146987916,-0.001265380293317139,0.014974135639518498
1772618187084461600,5.090461669921875,-0.0167354462236166,0.009049549629818647,0.015021440813387743
1772618187094493400,5.100493408203125,-0.011795067211985588,-0.0018201646318659185,0.0011941690874751657
1772618187104525600,5.110525634765625,-0.006408113476634025,-0.011391217385139315,-0.00970823730083648
1772618187114556700,5.120556640625,-0.0005716624081134796,0.006947426251415163,-0.009847718836762942
1772618187124588500,5.130588623046875,0.00137421096265316,0.0034677309094928205,0.022219795918837187
1772618187134620400,5.140620361328125,-0.014189853394031523,0.005754654536582529,0.010051767208613454
1772618187144652300,5.15065234375,-0.010898410633206367,0.005467910017073154,0.0033032793290913103
1772618187154684400,5.160684326171875,-0.021968086180090902,-0.007104516509268432,0.0012597223040880636
1772618187164715500,5.170715576171875,0.0037701661884784695,0.00197429574765265,-0.0003632803544402122
1772618187174747400,5.180747314453125,-0.005210428124666214,0.0008989764000289142,-0.0009744253895711153
1772618187184779500,5.190779541015625,-0.0013198504269123076,-0.0009681143797934054,-0.011319257260626181
1772618187194811400,5.200811279296875,-0.0077519293010234825,-0.0010890008131042121,0.0016012383512919767
1772618187204843500,5.210843505859375,-0.010295184043049811,0.0031829956839792427,-0.008025786939496174
1772618187214874600,5.22087451171875,-0.020023381853103636,0.0011496997580863536,-0.017642405000701546
1772618187224906500,5.230906494140625,-0.01748304972052574,0.012033077218942343,0.0015985851699020712
1772618187234938400,5.2409384765625,-0.018380290821194648,0.0009199278565123677,0.00621753194113262
1772618187244970500,5.250970458984375,0.001076104798913002,0.002310834225639701,0.0032991191772045567
1772618187255002600,5.261002685546875,-0.015082418319582938,-0.00120577732687816,0.0025402134015690536
1772618187265033500,5.271033447265625,-0.012837269741296767,0.0010497282486408948,0.0043614877117099235
1772618187275065300,5.2810654296875,-0.0023638065218925474,-0.0016044212556444108,0.0016503107905620708
1772618187285097500,5.291097412109375,-0.008797054439783096,0.003127192109823227,-0.006501815075497143
1772618187295129600,5.301129638671875,-0.014335399344563484,0.0036555816317908464,-0.007774195931758731
1772618187305161500,5.311161376953125,-0.00954407341480255,-0.010193605098407716,0.008866169586661272
1772618187315192600,5.321192626953125,-0.0026619126856327053,-0.004924158529192209,0.00199436585472431
1772618187325224400,5.331224365234375,-0.0026648352950811383,-0.0048403892358765,0.001919716016203165
1772618187335256300,5.34125634765625,-0.013886486533284186,-0.006953527198638766,-0.008223181808274239
1772618187345288400,5.351288330078125,-0.007002572238445281,0.006179821146093309,-0.006317051359429024
1772618187355320600,5.361320556640625,-0.010893149936199187,0.012175992820970713,0.01230942820860073
1772618187365351400,5.371351318359375,-0.01867956602871418,0.024671792180836198,0.0052519839777611195
1772618187375383300,5.38138330078125,0.0019698387682437896,-0.010778309651184826,0.014173505047429352
1772618187385415700,5.391415771484375,-0.011198270362615585,-0.005816650389507413,0.008578931876807474
1772618187395447600,5.401447509765625,-0.01509235519170761,-0.006277838160470128,0.002640180344437249
1772618187405479400,5.4114794921875,-0.011352584141492842,-0.00699911990603432,0.0011173683910630642
1772618187415510500,5.421510498046875,0.0021130466312170026,-0.003360982599388808,0.0026837272252188994
1772618187425542400,5.43154248046875,-0.000879120922088623,0.01264596668658778,0.00006841646055690944
1772618187435574500,5.441574462890625,-0.0067120648592710495,0.00459249715572223,-0.006839467798336408
1772618187445606400,5.4516064453125,-0.0002741407662630081,-0.0031920923058874904,-0.013676341780787332
1772618187455638500,5.461638427734375,-0.009397942942380905,0.008768029274698346,-0.002572882695309818
1772618187465669400,5.47166943359375,-0.006855857244133949,-0.0013316504625603557,0.004354108122852631
1772618187475701500,5.481701416015625,-0.016584639576077462,0.013233867843449114,-0.010528116016089916
1772618187485733600,5.491733642578125,-0.004613046753406525,-0.00786424883538857,0.011658622449939138
1772618187495765500,5.501765625,-0.008651508489251137,-0.00805880329310894,-0.00306839742755983
1772618187505797400,5.51179736328125,-0.008196165937185288,0.0026644517025910318,-0.01793149674092419
1772618187515828500,5.521828369140625,-0.0007213000118732452,-0.018635525957588106,0.0013608948233537375
1772618187525860600,5.531860595703125,-0.0010229133069515229,0.006874251417350024,0.020788105448172427
1772618187535892500,5.541892578125,0.0009206219762563705,-0.000697225016541779,0.0005565516039496288
1772618187545924400,5.55192431640625,-0.003422375664114952,-0.011328034222126006,-0.004917107733897865
1772618187555956500,5.56195654296875,-0.009555179330706596,0.014202365815732627,-0.01111726841512136
1772618187565987300,5.5719873046875,-0.007009001979231834,0.010076938182488082,-0.0012285051819169892
1772618187576019500,5.58201953125,-0.022716274198889733,0.012461988421808928,0.010303134454065001
1772618187586051600,5.592051513671875,-0.019573884519934654,0.007522778453957289,0.00971385875744745
1772618187596083500,5.60208349609375,-0.009398527464270591,-0.0035575463511049745,-0.009144534436892717
1772618187606115300,5.612115234375,-0.013290858727693557,0.005310637096129357,-0.006875845152814872
1772618187616146700,5.622146728515625,-0.0055073652446269985,-0.006300378785841167,-0.002778159476444125
1772618187626178600,5.632178466796875,-0.01882160484790802,-0.013020206826459615,0.005411914646672084
1772618187636210400,5.64221044921875,-0.009240706554055213,-0.010741630902606993,-0.012342576992954126
1772618187646242300,5.6522421875,-0.0038549218624830245,0.0025944917389191685,-0.007465157382050528
1772618187656273400,5.6622734375,-0.025403905847668645,0.00322469766754657,0.00832481098526623
1772618187666305500,5.672305419921875,-0.0008633388310670852,-0.01088189788982272,-0.0012247377556748686
1772618187676337400,5.68233740234375,0.010652911439538,0.008918634992837906,-0.004304031036584638
1772618187686369500,5.69236962890625,-0.0117944826900959,-0.014033329391758888,-0.0023557282467139883
1772618187696401400,5.7024013671875,-0.006108838269114494,-0.0038526751064695414,-0.010634001243091188
1772618187706432300,5.712432373046875,-0.009099836778640747,0.0037224545892328023,-0.014383672632812521
1772618187716464600,5.722464599609375,-0.023914544072747228,-0.00658980845278129,-0.008240475436369889
1772618187726496500,5.73249658203125,0.0016729016482830046,0.00030415231203660367,-0.010136385885300114
1772618187736528400,5.7425283203125,0.007957096484303474,0.008086495017632842,0.0029944051761645824
1772618187746560800,5.752560791015625,-0.021523849543929097,-0.005174863620940596,0.012163617396587506
1772618187756591900,5.762591796875,0.00196457807123661,0.002627864285558462,0.013526699610450305
1772618187766624000,5.7726240234375,0.0012163900524377821,0.00188754904596135,0.005494391598622314
1772618187776656000,5.78265576171875,-0.0064151277393102646,-0.00528040635464713,0.005403155951481312
1772618187786687700,5.792687744140625,-0.0026712650358676907,0.0018183380009606479,0.004824433614918962
1772618187796719900,5.802719970703125,-0.0013204349488019943,0.002260674940980971,-0.006360899634310044
1772618187806750700,5.812750732421875,-0.012247487154603004,-0.004501256942003965,-0.008983987280051224
1772618187816782800,5.822782958984375,-0.014493804776668548,0.00001923442343249917,0.015604839325067586
1772618187826815000,5.83281494140625,-0.008806406790018081,0.0017725260978564618,0.005008352514193393
1772618187836846800,5.842846923828125,-0.010004092141985893,0.009874821472819893,0.005013234185287729
1772618187846878700,5.852878662109375,-0.016436171016097068,-0.004407569042872637,0.005324090232746675
1772618187856910000,5.86291015625,-0.01524140827357769,-0.005400014146324247,0.015882692718645557
1772618187866942000,5.87294189453125,-0.0047702831417322155,0.0025936514887027443,0.006061039904900826
1772618187876973800,5.882973876953125,-0.0011789806514978407,-0.004148315318487584,-0.009667791126016527
1772618187887005700,5.893005615234375,-0.015541268002986906,0.008360599251277745,0.006158874256187118
1772618187897036800,5.903036865234375,-0.010009937360882758,-0.010772080839797854,0.0012108781936811283
1772618187907069000,5.91306884765625,-0.01255611471235752,0.0030879012790508567,-0.0036932376279029994
1772618187917100800,5.923100830078125,-0.019737550649046896,-0.0021623291330412028,0.007566654128301888
1772618187927133000,5.9331328125,-0.013452186769247055,-0.0038445831315591927,-0.005913009736337699
1772618187937164800,5.943164794921875,-0.012106617379188537,-0.00543486626399681,0.010147016877168789
1772618187947197000,5.953197021484375,0.007200725159049033,-0.00944813875965774,0.005308184844139032
1772618187957228000,5.96322802734375,-0.005517886638641357,-0.003001154577359557,-0.007714602098474278
1772618187967260000,5.973260009765625,-0.00596738397181034,0.01226650238232687,-0.014064121822244487
1772618187977291800,5.983291748046875,-0.014648118555545805,-0.003959533014427871,-0.014715142210037446
1772618187987323600,5.99332373046875,-0.009411971467733383,-0.0016783267420716582,-0.0011701671573799103
1772618187997355000,6.00335498046875,0.0013654431343078613,-0.008562807292491197,-0.0036784601838793602
1772618188007387000,6.013386962890625,0.006901449951529502,0.000441514956112951,-0.008151267349533736
1772618188017418800,6.023418701171875,-0.0023749124377965927,-0.0008008315214887261,-0.016189868104830384
1772618188027451000,6.033450927734375,0.011689853271842002,-0.019001162665896118,-0.000019165924773551522
1772618188037483000,6.04348291015625,0.0004658639460802078,-0.007434515648614615,0.00104773722095415
1772618188047513900,6.053513916015625,-0.012699322575330733,0.007115732023026794,-0.00209517304780893
1772618188057546000,6.0635458984375,-0.019285715228319168,0.007652651911322027,-0.0009000495456857607
1772618188067577900,6.073577880859375,-0.0046212300598621366,0.008845259229373187,-0.000753645078628324
1772618188077609700,6.083609619140625,-0.014944471153616905,0.004169157177116722,0.005318564674258232
1772618188087641900,6.093641845703125,-0.00836333919763565,0.003252517256233841,-0.00836479136920534
1772618188097673000,6.1036728515625,-0.0047726212292909615,-0.006912354938033968,0.004214064897922799
1772618188107704800,6.113704833984375,-0.0023801731348037716,0.006361607453785836,0.004964691468980163
1772618188117736700,6.12373681640625,-0.004624152669310569,-0.0016009506569243967,-0.0025696952243801207
1772618188127768800,6.133768798828125,-0.009111527216434477,-0.00286116158477962,-0.0006718120140722021
1772618188137801000,6.143801025390625,-0.005818330889940261,0.0012512969690375029,-0.002589144276943989
1772618188147831800,6.153831787109375,-0.017341010901331902,-0.0017112608972936869,-0.005397392930975183
1772618188157864000,6.163864013671875,-0.022731471768021583,0.0017066943200305103,0.0013770970394834875
1772618188167895800,6.173895751953125,0.008391396248340606,-0.007339074183814227,-0.0036367445005802434
1772618188177928000,6.183927978515625,0.0007598784565925597,0.002123823753558099,-0.011918643359304405
1772618188187959800,6.193959716796875,-0.012711013013124465,-0.00014804843487218022,-0.00010445132174063474
1772618188197991000,6.203990966796875,-0.010762801554799079,-0.00010879413671791553,0.021416635442944244
1772618188208022800,6.214022705078125,-0.011215221497416496,0.003135192753188312,-0.0005437423547264189
1772618188218054700,6.2240546875,-0.006726677906513214,-0.005532992876227945,0.0009365364980185404
1772618188228087000,6.234087158203125,-0.007622165441513061,-0.005014978617802262,0.0003269577988889068
1772618188238119000,6.244118896484375,-0.007620996397733688,-0.0007305244979448616,-0.0019251228436827658
1772618188248149800,6.254149658203125,-0.007169745498895644,0.005790109442453831,0.003520593607891351
1772618188258182000,6.264181884765625,-0.01165770456790924,0.005899341970589012,0.0041042158818570896
1772618188268214000,6.274214111328125,-0.007018354329466819,-0.00012603753246366977,-0.0026341204964090135
1772618188278246000,6.284245849609375,-0.01450374164879322,-0.005498012894392014,0.003019681181316264
1772618188288277800,6.29427783203125,0.0009054244071245193,-0.003710855482984334,0.013087600373709573
1772618188298308900,6.304308837890625,-0.005384031125903129,0.0004735357958823442,-0.0027245980917243286
1772618188308340700,6.3143408203125,-0.01765606819987297,-0.005335954200476408,-0.0022510394629556684
1772618188318372900,6.324372802734375,-0.0019441198050975798,-0.0019243373923934996,0.006627523814397864
1772618188328405000,6.334405029296875,-0.00972585972249508,0.004240779374912381,0.00542777893608436
1772618188338435800,6.344435791015625,-0.008828034099936485,0.009163129539508373,0.019287194799352435
1772618188348467700,6.3544677734375,0.00014963760375976562,-0.009362981226854026,0.003627835108339786
1772618188358499800,6.364499755859375,-0.017657237243652344,-0.01010877635916695,-0.0018790415125200524
1772618188368532000,6.374531982421875,-0.018553893822431562,-0.00746560490662232,-0.012269575688824988
1772618188378563800,6.384563720703125,0.0071855275899171825,-0.002900141888298094,-0.00239428842512425
1772618188388595000,6.394594970703125,-0.008078677037358284,0.0035886356091126797,0.001793208126281388
1772618188398626800,6.404626708984375,-0.00044482115805149076,-0.006800418996158987,0.011340779539267532
1772618188408659000,6.414658935546875,-0.007930208477377892,0.0025908384771086276,0.005020330646354705
1772618188418690800,6.42469091796875,-0.01750876868367195,0.011042751007340848,0.00398039313936606
1772618188428723000,6.434722900390625,0.003291442760825157,0.00042799788741394875,-0.003389902733196504
1772618188438753800,6.44475390625,-0.0055383449047803875,-0.015290946503728628,-0.0008478764004539698
1772618188448785700,6.45478564453125,-0.013323591953516005,0.0034256088008172807,0.0006473990920232609
1772618188458818000,6.464818115234375,-0.010779168167710304,-0.0055752428490668535,0.0021851711525116115
1772618188468850000,6.474849853515625,-0.000002922609448432922,0.006466565665602684,-0.01130677680496592
1772618188478881800,6.4848818359375,-0.0010579846203327178,0.005811590621899813,-0.010685754263214766
1772618188488913000,6.494912841796875,-0.014973697248101233,-0.005887779396958649,-0.006515966898435727
1772618188498944800,6.50494482421875,-0.018564999738335607,-0.004289660017937421,0.009060760576999746
1772618188508977000,6.514976806640625,-0.013926234021782875,-0.0025010595681145787,-0.00023691859499085693
1772618188519008800,6.5250087890625,0.004325461983680725,0.014395842561218886,0.008952126270486041
1772618188529041000,6.535041015625,-0.003904606223106384,0.00015997633468359707,-0.0037150339011801405
1772618188539071700,6.54507177734375,-0.007198387071490287,-0.0008719970615580678,-0.023925216163811273
1772618188549103900,6.555103759765625,-0.009589081600308417,-0.004942826697044074,-0.0030208319587865843
1772618188559136000,6.565135986328125,-0.008088029387593268,-0.00451276471670717,0.01299156068728771
1772618188569168000,6.57516796875,-0.023800562304258345,-0.008963643178343772,-0.0014320649300003424
1772618188579199700,6.58519970703125,-0.0053916299104690545,0.0008622245862148701,-0.012398969655577092
1772618188589230800,6.59523095703125,-0.008536942198872566,0.006921268896851688,-0.003657303231419064
1772618188599263000,6.605262939453125,-0.0151145670235157,0.009107709557842463,-0.0031776253891177475
1772618188609294800,6.615294921875,-0.02065115836262703,0.004305259445868432,0.0015940551252570003
1772618188619326700,6.62532666015625,-0.02139993090331554,-0.000468768289219588,0.0032199712600791824
1772618188629357800,6.63535791015625,0.004934533792734146,-0.0014627477626316249,0.014273024465725757
1772618188639390000,6.645389892578125,-0.0070399816393852226,-0.007612557362951338,-0.00665906059697736
1772618188649421800,6.655421875,-0.00928746830523014,-0.00436316364556551,-0.007376479018176905
1772618188659454000,6.665453857421875,-0.0013549217402935027,-0.0009933401525951922,0.0048040210145525635
1772618188669485800,6.67548583984375,-0.0243950210660696,-0.006963555402308702,0.009987739228806457
1772618188679516700,6.6855166015625,0.005379939472675323,0.012448197358474135,-0.008420389447384513
1772618188689549000,6.695549072265625,-0.004944470664858818,0.00001207403028383851,-0.0027238309067441147
1772618188699581000,6.705580810546875,-0.003299626067280769,0.004195332797989249,0.004979619610053487
1772618188709612800,6.71561279296875,-0.007790507745742798,-0.00577180660078302,0.008462173629342578
1772618188719644700,6.725644775390625,-0.013179799568653106,-0.005403064619936049,0.0028428496099542826
1772618188729675800,6.73567578125,-0.0012064531803131103,0.006176478411536663,0.005931760102580301
1772618188739707000,6.745706787109375,-0.024549919366836547,0.01145611758120358,0.0041610697687836365
1772618188749739000,6.755739013671875,-0.015123334851860999,-0.0029080512001179158,0.0003876932764891535
1772618188759771000,6.76577099609375,-0.010485153657197951,0.005534947371296584,-0.00040308720844332125
1772618188769802800,6.775802734375,-0.011834814700484276,0.012252236394956708,0.010064156332728452
1772618188779833900,6.785833740234375,0.005374094253778458,-0.005727218540385365,0.007056097090546973
1772618188789865700,6.79586572265625,-0.016472411373257636,-0.003919785525929182,0.006869999933918006
1772618188799897900,6.80589794921875,-0.005993687456846237,-0.008383907061628997,-0.004721717592538334
1772618188809929700,6.8159296875,-0.013476152166724204,0.0007691942742094397,-0.006327298758807592
1772618188819961900,6.8259619140625,-0.01931260323524475,-0.002008234549872577,0.0014461436877027153
1772618188829992700,6.83599267578125,-0.00165828860104084,-0.0003038417847827077,-0.015445739773218519
1772618188840024800,6.84602490234375,-0.005846387940645218,-0.01084510954339057,-0.0012898206148296593
1772618188850057000,6.856056884765625,-0.016775778234004973,0.005946852640435099,-0.00783854357197415
1772618188860088800,6.8660888671875,-0.0012146364867687224,0.01108414246365428,0.0026846085746306926
1772618188870120000,6.876119873046875,-0.013635142120718955,0.020548501705750823,0.017749071112414822
1772618188880151800,6.88615185546875,-0.020220365729928014,-0.008876859944034367,0.00771019078483805
1772618188890184000,6.896183837890625,-0.02006722099483013,-0.0025641879322007297,-0.0083769247649936
1772618188900215800,6.9062158203125,-0.012285481077432632,0.01342650433871895,-0.016746867233351802
1772618188910247700,6.91624755859375,-0.0039010990917682647,0.007274594112858176,-0.010790255817305297
1772618188920278800,6.92627880859375,-0.006592237871885299,-0.0008906286967918277,-0.004051070055668242
1772618188930310700,6.936310546875,0.002835515686869621,-0.0031322518774308263,-0.0014179313733708114
1772618188940342800,6.9463427734375,-0.005693243205547332,0.006441065898165107,0.010755001840833573
1772618188950375000,6.956375,-0.01422317114174366,0.00183583712503314,-0.00022699085602071134
1772618188960406800,6.96640673828125,-0.0056903205960989,0.00039060675278306006,0.00449130180357024
1772618188970438000,6.97643798828125,-0.008680734583735465,0.001819580109976232,0.0038286549100652336
1772618188980470000,6.986469970703125,-0.006888005948066711,0.00583108077365905,0.012564325418276711
1772618188990502000,6.996501953125,-0.004046060520410537,0.009200100549031049,0.0018783017270034177
1772618189000533800,7.00653369140625,-0.018106734576821326,-0.003123447516467422,0.004816474070749245
1772618189010565600,7.016565673828125,-0.002240472403168678,-0.00016147417202591895,0.0037480319884838536
1772618189020596700,7.0265966796875,-0.010618424648046493,0.0007850676967762411,-0.0037216234721709042
1772618189030628900,7.03662890625,-0.014504326170682907,-0.0038599085648544132,-0.003522516136919148
1772618189040660700,7.04666064453125,-0.009567454290390014,0.0009641140581108629,0.0013449803015915677
1772618189050692900,7.05669287109375,-0.008070493730902671,0.00048409372251480813,0.006437092975946143
1772618189060723700,7.0667236328125,-0.0031377135038375852,0.007677128765452653,0.005148692566645331
1772618189070755800,7.076755859375,-0.01001812066733837,0.0005365910947322845,0.00034057989886496215
1772618189080788000,7.0867880859375,-0.006274842485785484,-0.00025766455549746753,-0.004163645318360068
1772618189090819800,7.09681982421875,-0.003881809869408607,-0.003141622493974864,-0.009576948204520158
1772618189100851700,7.106851806640625,-0.004328384593129158,-0.005440492287185043,0.008315294238249771
1772618189110882800,7.1168828125,-0.0146527947306633,0.006072470047790557,-0.011079479988268576
1772618189120915000,7.1269150390625,-0.010016951623558997,0.0003073123835027218,-0.00160492357914336
1772618189130946800,7.13694677734375,0.00315057298541069,0.006625500820670277,0.019638154528336598
1772618189140978700,7.146978759765625,-0.014655132818222045,-0.006880206234101205,0.011304329119552857
1772618189151010800,7.1570107421875,-0.021832477101683616,0.00012061243867501616,-0.0066351545650046315
1772618189161041700,7.167041748046875,-0.020037410378456116,-0.007922755823284387,-0.004807313516759313
1772618189171073800,7.17707373046875,-0.008369184416532517,0.000598020692076534,0.001441864804807119
1772618189181106000,7.18710595703125,0.0016524433821439742,-0.0007769026566296815,0.003584014232922345
1772618189191137800,7.1971376953125,-0.013157587736845016,-0.00556408213423565,-0.008126210540090687
1772618189201169700,7.207169677734375,-0.00836509276330471,0.012107293232623486,0.00745890573777724
1772618189211200800,7.21720068359375,-0.008662029883265495,0.022365670662932095,0.015015559061872772
1772618189221233000,7.22723291015625,-0.0014776713371276854,-0.0015128522483631968,0.013178520927019417
1772618189231264800,7.2372646484375,-0.0025227964758872986,0.0009272709127515554,0.008765969748352654
1772618189241297000,7.247296875,0.002565466573834419,-0.007881766225770115,0.0015493574670050292
1772618189251327700,7.25732763671875,-0.005063128608465194,0.00429775199284777,0.0007666461240965872
1772618189261359900,7.26735986328125,-0.01433598386645317,-0.0013784670126624405,-0.00006399144718889147
1772618189271391700,7.277391845703125,0.0007785831570625305,0.008746401964779943,0.01024079610784538
1772618189281424000,7.287423828125,0.0007797522008419036,-0.014363511194195598,0.0034466150562278922
1772618189291455700,7.297455810546875,-0.013733926320075989,-0.006341295318119227,0.0010901378908427432
1772618189301486800,7.30748681640625,-0.002508183428645134,0.01089289420787245,0.009096589942206627
1772618189311519000,7.31751904296875,-0.006998480585217476,0.008678615691885352,-0.004254753101337701
1772618189321550800,7.32755078125,-0.012836100697517394,0.0037995018808171153,0.0005647349104052409
1772618189331582700,7.337582763671875,-0.0007183774024248123,-0.014299560846202075,-0.008282880672835745
1772618189341614800,7.34761474609375,0.0001835398733615875,-0.009802888747770338,-0.003331820436986163
1772618189351646000,7.35764599609375,0.003474398112297058,-0.000027929186541587112,-0.001793701316625811
1772618189361677800,7.367677734375,-0.010740005201101303,0.0006792144358158111,0.006727184796589426
1772618189371709700,7.377709716796875,0.01455167244374752,0.0020714542455039916,0.0027153644724981856
1772618189381741800,7.387741943359375,0.006021744507551193,0.0035555187908001243,0.00739681398672983
1772618189391774000,7.39777392578125,-0.011485270610451698,-0.017376958997547626,0.0051002137824194506
1772618189401804800,7.4078046875,-0.011637830823659896,-0.003191051126271486,-0.0034964592470554633
1772618189411837000,7.4178369140625,-0.013732757276296614,-0.007326707892585545,0.011380677724815904
1772618189421868800,7.427868896484375,-0.00909925225675106,-0.0025023199434392155,-0.00046345735986251383
1772618189431900700,7.437900634765625,-0.016285364368557927,-0.004348039141669869,-0.0008699786344077438
1772618189441932800,7.447932861328125,-0.015832944425940514,-0.0005755165993236005,0.0004983277438441291
1772618189451964000,7.4579638671875,-0.013289689683914184,-0.005040788912493735,0.000055433681397698813
1772618189461995800,7.467995849609375,-0.00670329703092575,0.010708897676784545,0.003739798449678346
1772618189472028000,7.47802783203125,-0.008798223483562469,-0.011876644548214972,0.007497488749073818
1772618189482059800,7.488059814453125,-0.001319265905022621,0.011861867104191333,-0.0006029982612933963
1772618189492091000,7.4980908203125,-0.014788403809070587,-0.00855992121566087,0.0036682858497370033
1772618189502122800,7.508122802734375,-0.019274024790525434,0.00046199148856103416,-0.001666207046015188
1772618189512155000,7.51815478515625,-0.012390695017576217,0.0016672573587857185,0.0002802599797956645
1772618189522186800,7.528186767578125,-0.005355389553308487,-0.006505947827920317,0.007604501920659095
1772618189532219000,7.538218994140625,-0.0017605799317359924,-0.0004906878600828349,0.0061479784028371795
1772618189542250000,7.54825,-0.016425065100193023,-0.006496010955795646,-0.011262147645372896
1772618189552281900,7.55828173828125,-0.00969488006234169,0.010691964808292686,0.007856677450286224
1772618189562313700,7.568313720703125,0.008853753063082694,0.011085128844343125,-0.00005778090211097151
1772618189572345900,7.578345947265625,-0.010902502286434173,0.005699380685389042,0.005537130195228382
1772618189582378000,7.5883779296875,-0.016736615267395973,0.00564131208891049,0.006439810089417733
1772618189592408800,7.598408935546875,-0.013293196815252303,0.01857742082849145,0.009970536932256073
1772618189602441000,7.60844091796875,-0.009404957205057143,0.003826262023579329,0.005394420089176856
1772618189612472800,7.618472900390625,-0.004465162715315819,-0.00954177185986191,0.005122690475708805
1772618189622505000,7.6285048828125,-0.0017716858476400374,-0.00039278044356033204,-0.004096059974865057
1772618189632536800,7.638536865234375,-0.014191606959700584,0.0033467166120186445,0.0005535650624195113
1772618189642568000,7.64856787109375,-0.0080517890304327,-0.0032389453886076808,-0.004183194835623726
1772618189652599800,7.658599853515625,-0.017477789023518563,-0.001487078486289829,-0.01069807945524808
1772618189662631700,7.668631591796875,-0.01104337206184864,0.009998045993689447,0.003821343819866888
1772618189672663800,7.678663818359375,0.0037719197541475295,0.0068211147243157026,-0.0020513202063506468
1772618189682695000,7.68869482421875,0.0016764087796211243,-0.011874817917309701,0.0023114461469929664
1772618189692726800,7.698726806640625,0.0028711715221405028,0.008749580302555113,0.0047820146787213155
1772618189702759000,7.708759033203125,-0.014633505508303642,0.007745335163455456,-0.0038412677964661268
1772618189712790800,7.718790771484375,-0.004012158250808716,0.005020020119100809,-0.015073125334852375
1772618189722823000,7.728822998046875,-0.0013198504269123076,0.0068712557426653794,-0.004242587739508598
1772618189732854000,7.73885400390625,-0.01568506038784981,-0.0010434994372539221,-0.0198752786193043
1772618189742886700,7.74888671875,-0.012094342419505119,0.0046710422846488655,0.006917611068463884
1772618189752918500,7.75891845703125,-0.014486205992102623,0.012957334190700203,0.003505149443587288
1772618189762950400,7.768950439453125,-0.006703881552815437,0.0021634068452753125,-0.003762672435189597
1772618189772982300,7.778982177734375,-0.0074514850497245785,-0.01221742080990225,0.008244124131603166
1772618189783013400,7.789013427734375,-0.0025128596037626264,-0.00651838718438521,0.0002457001230679452
1772618189793045500,7.79904541015625,0.005118073666095733,-0.001853975569922477,-0.011671815291652456
1772618189803077400,7.809077392578125,-0.01239186406135559,-0.0053457266758196054,-0.012661036391556262
1772618189813109500,7.819109619140625,-0.018529928424954413,-0.011363616992160677,0.012823990134615451
1772618189823140400,7.829140380859375,-0.007304185533523559,-0.0038348106562159953,0.013173543357802554
1772618189833172500,7.83917236328125,-0.012396540236473083,0.005771550872456282,0.00897312795931939
1772618189843204600,7.84920458984375,-0.005064297652244568,0.014407350335922092,-0.00895567450101953
1772618189853236500,7.859236572265625,-0.01987725138068199,0.00506742119109258,0.0066245235731359564
1772618189863268400,7.869268310546875,-0.016437340059876442,0.0010771094459109008,0.00989530257184524
1772618189873299500,7.879299560546875,-0.003420622098445892,-0.01070765556776896,-0.0023120443686144424
1772618189883331600,7.88933154296875,-0.009700140759348868,0.010643230295740068,0.01605182047416456
1772618189893363500,7.899363525390625,-0.013588964891433715,0.00757659100042656,0.008525557721755467
1772618189903395300,7.909395263671875,-0.006254384219646454,0.0012019596682861446,-0.010700728070060722
1772618189913427500,7.919427490234375,-0.009245967251062392,-0.0028921595112420618,0.003338346075895242
1772618189923458300,7.929458251953125,-0.0055061962008476255,-0.000929097543656826,0.008189279538672416
1772618189933490400,7.939490478515625,-0.00939677389860153,0.005659523599036037,-0.0034506245110649614
1772618189943522600,7.9495224609375,-0.001914309188723564,0.007129212559107691,-0.008260408546123654
1772618189953554400,7.959554443359375,-0.008646832314133643,-0.006833024357818067,-0.007563334226631559
1772618189963585300,7.969585205078125,-0.02106324629485607,-0.0003836107564158737,0.000498350576730445
1772618189973617700,7.97961767578125,-0.015526654955744743,-0.000821326320245862,0.00758317600484006
1772618189983649500,7.9896494140625,-0.0011620295166969298,-0.0014051723564974963,0.004417761643324047
1772618189993681400,7.999681396484375,-0.010433131209015846,-0.008062730549555272,0.0025382543399231506
1772618190003713300,8.00971337890625,-0.01432253986299038,-0.005860982721578329,-0.0036242092459928244
1772618190013744400,8.019744384765625,-0.01028349360525608,0.005565762634668499,-0.0034346871564164758
1772618190023776500,8.029776611328124,-0.013576689931750296,-0.002780497564002871,0.01089641503894236
1772618190033808400,8.039808349609375,0.004679097726941108,0.0009344861048273742,-0.01356676219278015
1772618190043840500,8.049840576171874,0.0007885200291872024,-0.0023527554049156607,-0.004279956041253172
1772618190053872400,8.059872314453125,0.0033341128587722774,-0.00851314119817689,-0.0007339402977377176
1772618190063903500,8.069903564453124,-0.0036982699960470197,0.0008758147201500833,0.008957391534070484
1772618190073935600,8.079935546875,0.0064782561033964155,-0.007844356824830173,0.012818546774517743
1772618190083967500,8.089967529296874,-0.007287234398722648,-0.008649133869074285,0.01562905588429421
1772618190093999400,8.099999267578125,-0.012968202644586563,-0.00913834215812385,0.005293352601188235
1772618190104031500,8.110031494140625,-0.013123100945353508,-0.006135945471748709,0.0032240126809570937
1772618190114062600,8.1200625,-0.009228431594371795,0.0011793277113698421,-0.0008554203860927373
1772618190124094500,8.130094482421875,-0.010871522626280784,0.0024129063606262205,0.007356477409764192
1772618190134126300,8.140126220703126,-0.011173720443248748,-0.006033434945344925,-0.002748618288128637
1772618190144158500,8.150158447265625,-0.02359422607719898,0.006123012924939394,0.003576557012251578
1772618190154189300,8.160189208984375,-0.013114917638897895,-0.0084315273293294,0.013647430780134162
1772618190164221400,8.170221435546875,-0.004582651615142822,-0.022054431022983042,-0.00415641642655246
1772618190174253600,8.180253662109376,-0.0026391163319349287,-0.007646678828261792,0.002031250099278986
1772618190184285400,8.190285400390625,-0.014610709154605864,0.0020910357288084925,0.006464282376971096
1772618190194317300,8.2003173828125,-0.0023375030368566513,-0.00477821071986109,-0.011779079624987207
1772618190204348700,8.2103486328125,0.00559270544052124,-0.004805007395241409,-0.0099592483532615
1772618190214380500,8.220380615234374,-0.021796236744523047,0.001499791837390512,-0.0036067968868883325
1772618190224412400,8.230412353515625,-0.012965864557027817,-0.0021521730652078984,-0.0031519018593942744
1772618190234444300,8.2404443359375,-0.004881342300772667,-0.00440197955230251,-0.0035314803280867635
1772618190244476700,8.2504765625,-0.017896891218423843,0.007251706427615135,-0.00028843415309675035
1772618190254507500,8.260507568359374,-0.01954348938167095,-0.00696361020123586,0.0008338615748332813
1772618190264539400,8.270539306640625,-0.012808043646812439,-0.0009086758101359009,-0.012722365524200722
1772618190274571500,8.280571533203124,-0.010413257464766502,0.011631675077509134,0.01175966253846418
1772618190284603400,8.290603271484375,-0.0060737669557332985,0.003671564652211964,-0.004346007014787756
1772618190294635500,8.300635498046875,-0.005627192232012748,-0.003567391891684383,-0.00562616018555127
1772618190304666600,8.31066650390625,0.0005061959564685822,-0.01008866515289992,-0.0007059426125371829
1772618190314698500,8.320698486328125,0.008287351351976394,0.0002098250920884311,-0.016489659335580654
1772618190324730400,8.33073046875,-0.0017407061874866485,0.008548431707266718,0.001997434594645165
1772618190334762500,8.340762451171875,-0.00039572131931781766,0.003658193713985383,-0.016039139089104718
1772618190344793600,8.350793701171876,-0.009078209468722342,0.0036570429365150627,-0.005815248450287617
1772618190354825500,8.360825439453125,-0.015814239725470542,0.007040968020074069,0.00546376356491819
1772618190364857300,8.370857421875,-0.013868366354703902,-0.0015067695674486458,0.009206315660686231
1772618190374889500,8.380889404296875,-0.005039747732877731,-0.003761087832879275,-0.007455453405366279
1772618190384921600,8.390921630859374,-0.0004021510601043701,-0.009868738791905344,0.0000015115370741114018
1772618190394952400,8.400952392578125,0.009473346266150474,-0.012362473570089787,0.000974210760439746
1772618190404984600,8.410984619140624,-0.0033960721790790554,-0.0005515694681555032,0.0007645865977508947
1772618190415016400,8.421016357421875,-0.010279401952028274,-0.004148278785869479,-0.008257709698961117
1772618190425048300,8.43104833984375,-0.013720482316613197,0.010928623108379542,0.0012923093994380906
1772618190435079700,8.44107958984375,-0.0038461540341377257,-0.0006884389218874275,-0.00398040683909785
1772618190445111600,8.451111572265624,-0.0014496142864227294,0.009109755384456365,-0.002979308071732521
1772618190455143400,8.461143310546875,0.0033370354682207104,0.002120517551619559,0.0059455374661833045
1772618190465175300,8.47117529296875,-0.014323708906769752,-0.007229823389369994,0.011588434157404117
1772618190475207700,8.481207763671875,-0.010883213064074516,-0.001528853535093367,0.0007176787161035463
1772618190485238500,8.491238525390624,-0.0038514147311449047,-0.011538370770867914,-0.020038090798468328
1772618190495270400,8.5012705078125,-0.005194646033644676,-0.010474431333784014,-0.005842634214134886
1772618190505302500,8.511302490234375,-0.0030967969715595244,0.0007739252482540905,0.0038251158126862716
1772618190515334400,8.52133447265625,-0.009983049353957175,0.005818568351957947,0.004904088422120549
1772618190525366500,8.531366455078125,-0.008785364001989364,-0.0006517601733095944,0.00514640471143648
1772618190535397600,8.541397705078126,-0.01252864218354225,-0.0010475180252455174,-0.005612172759394161
1772618190545429500,8.551429443359375,-0.005196984121203422,0.0021187822522595523,-0.017426136468094773
1772618190555461400,8.56146142578125,-0.0028010288953781125,-0.004218658874649554,-0.006905523338448256
1772618190565493200,8.5714931640625,-0.0140209265679121,0.0027279636591672897,0.006042084042681381
1772618190575524600,8.581524658203126,-0.0021989713490009307,-0.003724445616919547,-0.0029237739256350323
1772618190585556500,8.591556396484375,-0.014764438411593436,-0.0073522076600231225,-0.004542374403681606
1772618190595588400,8.60158837890625,-0.019852116939425467,0.0035466778972186148,-0.014075515432516112
1772618190605620500,8.611620361328125,-0.017604045751690865,0.007770707066729664,-0.0032869949145708233
1772618190615652600,8.621652587890624,-0.005485153412818908,0.005613912625331431,0.004738942721975036
1772618190625683500,8.631683349609375,-0.004731120175123215,-0.008187909565493465,-0.0014626016321592032
1772618190635715600,8.641715576171874,-0.00039221418797969816,-0.0033479769873432813,0.001095517318858765
1772618190645747500,8.65174755859375,-0.015057283878326415,-0.007347184425033629,0.0005693745529046282
1772618190655779300,8.661779296875,-0.014757424148917198,0.006726440444495528,0.01668353337328881
1772618190665811500,8.6718115234375,0.004093406793475151,-0.011679861600790173,-0.002240408471086994
1772618190675842600,8.681842529296874,-0.005180617508292198,0.00241506178509444,-0.003442537102731876
1772618190685874400,8.69187451171875,-0.02088555164039135,-0.010994107826333492,-0.00894769669054076
1772618190695906300,8.70190625,-0.009960253000259399,-0.015421587146073579,-0.014095325244683772
1772618190705938400,8.7119384765625,0.0017079729616641998,-0.004063870171736926,-0.010343749592243693
1772618190715969500,8.721969482421875,-0.013406009539961815,0.002706153686158359,-0.017577879263972862
1772618190726001400,8.73200146484375,-0.0027829087167978283,0.01085718357367441,0.007982345089991577
1772618190736033500,8.742033447265625,-0.004129062628746033,0.003317892376333475,-0.009260018609301186
1772618190746066000,8.75206591796875,-0.010116904866695404,0.002333520981483161,0.01672736794843804
1772618190756097800,8.762097900390625,-0.0054763855844736095,-0.004929857617616653,-0.0006870050166267901
1772618190766129000,8.77212890625,-0.008166939842700957,-0.02190901293661445,-0.00026177904161158946
1772618190776160800,8.782160888671875,-0.01729483367204666,-0.005287256220541894,-0.01430783548420295
1772618190786192600,8.792192626953126,-0.009817045137286186,0.0038269926759414374,-0.004187071859720163
1772618190796224800,8.802224853515625,0.002601122409105301,-0.009346651146560907,0.012352299235947429
1772618190806257000,8.8122568359375,-0.0020388123512268064,-0.01099018056988716,0.009656959204748272
1772618190816287700,8.822287841796875,-0.009817629659175871,0.01630394120486453,-0.016608006751933135
1772618190826319600,8.832319580078124,0.0027466683596372604,-0.004812131255771964,-0.01099687973873224
1772618190836351700,8.842351806640625,0.004541735082864761,-0.0037447212199680506,0.01787599912744481
1772618190846383900,8.8523837890625,-0.005485153412818908,0.012589816052559762,-0.005375199365476146
1772618190856414700,8.862414794921875,-0.006079612174630164,0.00912066037096083,-0.0004995378868188709
1772618190866446800,8.87244677734375,0.0021516250759363175,0.01058687873231247,-0.00945100200360175
1772618190876478700,8.882478759765625,-0.004582651615142822,0.007608465709723532,-0.012318059039628132
1772618190886510800,8.8925107421875,0.003497778987884521,0.002641710147820413,-0.00016629647761583327
1772618190896542700,8.902542724609376,0.0006575871258974075,0.0003127922762185335,0.004599593616789206
1772618190906573800,8.91257373046875,0.0035059622943401335,-0.005873586474824696,-0.00037822219524532555
1772618190916605700,8.922605712890626,0.0070960957407951355,-0.013009447970427572,0.010039172588521614
1772618190926637600,8.932637451171875,-0.010108721560239791,0.011890874002967029,0.01423093432309106
1772618190936670000,8.942669921875,-0.017588263660669325,0.013019786701351404,-0.0033700061560608444
1772618190946700800,8.95270068359375,-0.007113631397485732,0.0011878763440065084,0.003197467167326249
1772618190956732700,8.962732666015626,-0.008906360033154486,0.004237363575119525,-0.01348994779663626
1772618190966764800,8.972764892578125,-0.012199556359648703,0.010682064468786119,-0.014641337188309988
1772618190976797000,8.982796875,-0.016989713245630263,-0.006445431546028703,-0.006258010081993416
1772618190986828800,8.992828857421875,-0.013992284995317458,0.00521702226223424,0.013575132728903554
1772618190996860000,9.00285986328125,0.0003752630531787872,0.0028594628180377184,-0.0005656710587441921
1772618191006891800,9.012891845703125,-0.007853051587939261,-0.007386055130697787,0.005679310578317381
1772618191016923600,9.022923583984374,-0.015333178210258484,-0.004457436066586524,-0.006152832674467936
1772618191026955800,9.032955810546875,-0.019070611172914503,0.0034933768074028194,-0.004183756524627096
1772618191036988000,9.04298779296875,-0.00036415713727474213,-0.004789371434692293,-0.003301119338045828
1772618191047018800,9.053018798828125,0.005918284133076667,-0.012474738305527717,0.00828648370229639
1772618191057050600,9.063050537109374,-0.00724924047589302,-0.013654650538787245,-0.005669104278134182
1772618191067082800,9.073082763671875,-0.015482815814018249,0.007837525225244462,-0.009922428040788508
1772618191077115000,9.083114990234375,-0.004559270739555359,-0.0016030147498473524,-0.0038705030241049823
1772618191087145700,9.093145751953125,-0.0023141221612691877,-0.0068811012832447884,0.006991411523614079
1772618191097177900,9.103177734375,-0.01114274078309536,-0.0053924153617583214,0.008169095267169177
1772618191107209700,9.113209716796876,-0.010094693034887314,-0.008117419878859073,-0.006288039894076064
1772618191117241900,9.123241943359375,-0.0048573769032955166,-0.0079646952688694,-0.0055179916699184105
1772618191127273700,9.133273681640626,0.0017278467059135437,0.00009419935578480362,0.010866476558404973
1772618191137304800,9.143304931640625,-0.012189619487524032,-0.00046445744028314945,-0.0016552974929334595
1772618191147336700,9.153336669921876,-0.006053308689594268,-0.0006879457315430045,-0.010960068559413776
1772618191157368600,9.16336865234375,-0.007848959934711457,0.0005152377794496715,-0.0002726748949615285
1772618191167401000,9.17340087890625,-0.016975684720277787,0.00856019521029666,-0.006216422262857668
1772618191177432800,9.183432861328125,-0.0005202244818210602,-0.004892174222040921,-0.0012962092564208433
1772618191187463700,9.193463623046876,0.004118541234731674,-0.008183872711192816,0.0037702666531782593
1772618191197495800,9.203495849609375,0.009205050718784332,-0.010101871694345026,-0.01063169055499602
1772618191207527700,9.213527587890624,-0.008450432959198952,-0.0013426285143010317,-0.010057347566029056
1772618191217559800,9.223559814453125,-0.0021639000356197357,-0.0003453793715685606,-0.0064021175606874745
1772618191227591000,9.2335908203125,0.013251695761084556,0.0009047850863076746,0.006876858932967298
1772618191237622800,9.243622802734375,-0.021613281393051145,-0.0047840194061398505,0.007549072805838659
1772618191247654700,9.253654541015624,-0.005603226834535599,0.004552493938896804,-0.011218650996941141
1772618191257686800,9.263686767578125,0.0005319149196147918,-0.012349979414697735,-0.0028424705840414386
1772618191267719000,9.273718994140625,-0.0011135141998529433,0.0007988222274929285,0.0003183406675932929
1772618191277749800,9.283749755859375,-0.003657353463768959,-0.004361793672386556,0.006530990937631577
1772618191287781600,9.29378173828125,-0.010392214676737784,-0.013176128040533513,0.009553485130541958
1772618191297813800,9.303813720703126,-0.009942717343568802,0.0017992862406186758,-0.005311660009436309
1772618191307846000,9.313845947265625,-0.004554594564437866,0.006219623433519154,0.008997038557869382
1772618191317876700,9.323876708984375,-0.004106850796937942,-0.005133362566772848,-0.004151840716134757
1772618191327908900,9.333908935546875,-0.004108019840717315,-0.005105871771648526,-0.004228691644896753
1772618191337940700,9.343940673828126,-0.00486029951274395,-0.006771101570129394,0.0035315579599002373
1772618191347972600,9.35397265625,-0.00710720165669918,-0.0020541377845220265,-0.0027611581092933193
1772618191358004700,9.364004638671876,-0.011143325304985045,-0.014772548652812838,-0.01132339457962662
1772618191368035800,9.374035888671875,-0.017127660411596298,-0.009546247105579823,0.001940863835508935
1772618191378067700,9.384067626953126,-0.021620880177617072,-0.006261508080177009,-0.018247590652504003
1772618191388099600,9.394099609375,-0.000671031129360199,0.0021072014123201368,-0.01477334323725663
1772618191398132000,9.404132080078124,-0.0015694412738084791,0.000012512421701103448,0.007569777667149901
1772618191408163800,9.414163818359375,-0.005757540613412856,0.0027799313084222376,-0.004571445234538987
1772618191418194700,9.424194580078124,0.0017220014870166778,0.008059314749762415,0.00980917235808447
1772618191428226800,9.434226806640625,0.021021160718798636,-0.00047296954030171033,-0.005497729766601696
1772618191438258700,9.4442587890625,-0.0050122752040624614,0.000603975508827716,0.0014569984418572857
1772618191448290800,9.454290771484375,-0.001717325311899185,-0.0023445355658419428,-0.0003695091658271849
1772618191458322000,9.464322021484374,-0.004559855261445045,-0.012812591957766562,0.0027557056160410864
1772618191468353800,9.474353759765625,0.0003758475750684738,-0.004364332689344883,0.0013448798368917777
1772618191478385700,9.4843857421875,0.010400397983193397,0.00783076669089496,-0.008617272859509103
1772618191488417800,9.494417724609375,0.011450199297070503,-0.005403557810280472,-0.010757933583436532
1772618191498450000,9.504449951171875,0.006664134064316749,-0.016583433999679983,0.003818631272972561
1772618191508480800,9.514480712890625,0.007713350856304168,-0.010517941681947559,0.008871941740321927
1772618191518512600,9.5245126953125,-0.011740122154355048,-0.014362232552561909,-0.00002609798905905336
1772618191528544800,9.534544677734376,0.0011298808127641678,-0.014396061756927519,-0.004594072624878026
1772618191538577000,9.544576904296875,-0.015476970595121382,-0.005188508553802967,-0.0013014379873871802
1772618191548608800,9.55460888671875,-0.009342997884750365,-0.0004725676815025508,0.0032864606250310314
1772618191558639900,9.564639892578125,0.0006803834795951843,-0.013242982731666415,-0.002055873083882034
1772618191568671700,9.574671630859376,0.011900281152129173,-0.0035474998811259864,-0.007548127524345182
1772618191578703600,9.58470361328125,0.0029196868389844894,-0.0002922609448432922,0.012895151108107529
1772618191588735700,9.59473583984375,0.0038157588958740232,0.003816069423127919,0.00485398850296624
1772618191598766800,9.604766845703125,-0.0012713351100683212,-0.010710632976144552,0.011042723607877268
1772618191608798700,9.614798828125,-0.001717325311899185,-0.004679517852049321,0.0074624357020016754
1772618191618830600,9.62483056640625,-0.01159457620382309,0.00522275788327679,0.00409865379075054
1772618191628863000,9.634863037109374,0.00710895522236824,0.006751136494334787,0.010751485576340928
1772618191638894800,9.644894775390625,0.000824175864458084,0.000583553775306791,0.01323399114103522
1772618191648925700,9.65492578125,-0.009349427625536918,-0.0021360439143143593,-0.00044793099716771394
1772618191658957800,9.664957763671875,0.00007598784565925598,0.011994754502549767,-0.013267724447278305
1772618191668989700,9.67498974609375,0.00022504092752933502,-0.0012882862448692321,0.00606957027122844
1772618191679021800,9.685021728515625,0.0012725041538476944,-0.003212221778463572,-0.0004723165197530761
1772618191689053000,9.695052978515625,0.002917348751425743,0.0011578465319238603,0.010156328128208405
1772618191699084800,9.705084716796875,0.004115034103393554,-0.011116693026386201,0.00005395411036442965
1772618191709116700,9.71511669921875,0.000671031129360199,-0.00038050548387691375,0.005996231040381826
1772618191719148500,9.7251484375,0.0018716390907764435,-0.004962280316185206,0.006984904151014052
1772618191729180000,9.735179931640625,-0.011744213807582855,-0.0003618921149522066,-0.0009556704567512497
1772618191739211800,9.745211669921876,-0.0021650690793991088,-0.00045505029112100597,0.0041261400192975995
1772618191749243100,9.7552431640625,0.0021738369077444076,0.0018153057936578989,0.0011351369431940837
1772618191759275000,9.76527490234375,0.003376782956719398,0.0029733532549813388,0.014119185610883869
1772618191769307000,9.775306884765625,-0.0032090251743793485,-0.010537906757742166,0.009035703767556696
1772618191779338000,9.785337890625,0.0006786299139261245,-0.009540127892047166,0.010991107585071585
1772618191789370000,9.7953701171875,-0.011892682367563247,-0.00046922494694590566,0.006397354620601981
1772618191799402000,9.805402099609376,0.013692425265908241,0.005617492821905761,0.007031008315063082
1772618191809433900,9.815433837890625,-0.008153495839238167,0.0022623006424866616,0.0028869855792028826
1772618191819465000,9.82546484375,-0.018023147946596145,-0.006032412032037973,-0.0003204458597116172
1772618191829496800,9.835496826171875,-0.007398293557763099,0.005746452963817864,-0.002819824927393347
1772618191839529000,9.845529052734374,-0.01338613579571247,0.0019502755512483417,0.0029476616912987082
1772618191849561000,9.85556103515625,0.0015764555364847182,-0.005503602384962141,0.002445790283498354
1772618191859593000,9.865593017578124,0.007260346391797065,-0.005458283672202378,0.01695553698139265
1772618191869623800,9.875623779296875,-0.007705167549848556,-0.011545695560798049,-0.0005977010316681117
1772618191879656000,9.885656005859374,-0.012343348744511604,-0.013750292932987213,-0.0029817557571455836
1772618191889688000,9.89568798828125,0.0026227497190237045,0.012077099023759365,0.006561966031207703
1772618191899720000,9.905719970703124,0.00426642527282238,0.014386453678365796,0.004868957743234932
1772618191909751800,9.915751708984375,-0.0021650690793991088,-0.004608498442452401,-0.004964202845213003
1772618191919783000,9.925782958984374,0.003822773158550262,-0.0020075769627466798,-0.0023386583809042348
1772618191929815000,9.93581494140625,-0.016376549783349036,-0.0014462715518660844,0.0008673939516767859
1772618191939847000,9.945846923828125,-0.01293956107199192,0.004121317713707685,-0.015027683324506505
1772618191949879000,9.955879150390626,0.0018768997877836226,0.005878116519469768,0.00801623365986161
1772618191959910000,9.965909912109375,-0.005005845463275909,0.007811459202226251,0.008813740713102742
1772618191969941800,9.975941650390626,0.0044184009641408915,0.017073646935727445,0.0007759117093635722
1772618191979974100,9.98597412109375,0.005015782335400581,-0.01431890486748889,-0.0016331221937434747
1772618191990006000,9.996006103515626,0.009503741404414177,-0.006675349578075111,-0.0026173520246986297
1772618192000038000,10.006037841796875,-0.0020171850413084028,-0.00509381600767374,-0.008274943961552345
1772618192010069000,10.016069091796876,-0.005462941581010818,-0.008846062946971505,-0.008165912362816743
1772618192020101000,10.02610107421875,0.010395721808075905,0.016103870321810244,-0.011410903899720869
1772618192030133000,10.036133056640624,-0.00007832593321800231,0.006654178925883025,0.024144037413108162
1772618192040164900,10.046164794921875,0.0009714753806591034,-0.010226228726375847,0.02479433628169354
1772618192050196000,10.056196044921874,0.010551789152622223,0.00846055249441415,0.0020485208944883196
1772618192060227800,10.066227783203125,0.008607669347524643,0.01890983112063259,0.0144940833378816
1772618192070260000,10.076260009765624,0.014293898290395736,0.0027735928991809485,0.003975351638067513
1772618192080292000,10.0862919921875,0.016537877824902535,0.0014643369315192102,0.0007486994754523039
1772618192090324000,10.096323974609374,0.006513911938667297,0.00795302309738472,0.009808975995262153
1772618192100354800,10.106354736328125,0.007864742025732993,-0.0036180626329965888,0.02683394321736414
1772618192110387000,10.116386962890624,-0.006051555123925209,-0.0029000505567528304,-0.0008407342736143618
1772618192120419000,10.126419189453125,-0.013831541475653648,0.0028672077330760657,-0.0030386553098447617
1772618192130451000,10.136450927734375,-0.003358662778139114,0.00378636840460822,0.010418668858823366
1772618192140482000,10.14648193359375,0.0030775077491998672,-0.00963061918709427,0.01194264528939966
1772618192150514000,10.156513916015625,-0.009791326174139976,-0.006761895350366831,-0.0002481295421719551
1772618192160546000,10.166546142578126,-0.019365794727206228,0.00035829365206882356,-0.0010819180517690256
1772618192170578000,10.176577880859375,-0.004848609074950218,0.002531290309596807,0.004668434769031592
1772618192180610000,10.186610107421876,-0.00799041423201561,-0.005738726315088569,-0.004235057453601621
1772618192190641000,10.196640869140625,-0.004696048861742019,-0.006738660605251788,0.010276881201379
1772618192200672800,10.2066728515625,-0.008434650868177414,0.006377316479571163,0.003182223932421766
1772618192210705200,10.216705078125,0.007426350608468055,0.0020313779634423554,0.016219856817717662
1772618192220737000,10.226737060546874,0.000391045144200325,-0.004786668020952492,0.015698312595067546
1772618192230767900,10.236767822265625,0.009364040672779083,0.002276000374276191,0.0026934814342530443
1772618192240800000,10.246800048828124,0.007869418200850487,0.008199691334832459,0.009371105167805217
1772618192250832000,10.256831787109375,-0.016368950998783112,-0.004478113528434187,-0.0006664097531698643
1772618192260864000,10.266864013671874,-0.011427402943372725,0.0015060023824684321,-0.0024827019275166094
1772618192270895900,10.276895751953125,0.001743044275045395,-0.00024568185675889254,0.0037275600226130334
1772618192280927000,10.286927001953124,0.00518704724907875,-0.00014662366276606915,-0.008924539577239193
1772618192290958800,10.296958740234375,0.011623217776417732,0.0005261427659541368,0.0066079377645161
1772618192300991000,10.306990966796874,0.009679097971320152,-0.016868863344937562,-0.00026764252681750803
1772618192311023000,10.317023193359375,0.002942483192682266,0.004032159859221429,0.008297521119541488
1772618192321054000,10.327053955078124,-0.010079495465755463,-0.014419113838952034,0.01987354331994429
1772618192331085800,10.3370859375,0.0014420155018568038,-0.00748646503156051,0.009516989045054651
1772618192341118000,10.347117919921875,-0.0040939913153648375,-0.014965495675336568,0.004157334308582358
1772618192351150000,10.357150146484376,0.0024900632500648497,0.004179806435294449,0.002380337531585246
1772618192361182000,10.367181884765625,0.00577916792333126,-0.0004979578510858118,-0.0019304657390806822
1772618192371213000,10.377213134765626,-0.0057435120880603785,0.00012799202753230928,0.007488629589183255
1772618192381245000,10.387244873046875,-0.006337970849871635,0.0029356333267875016,0.016325061624706722
1772618192391277000,10.397277099609376,0.009372223979234694,0.004184573941957205,0.015404362016636877
1772618192401309000,10.407308837890625,0.0033820436537265776,-0.00855701687252149,0.008352849769662133
1772618192411341000,10.417341064453124,-0.0006605097353458404,-0.0019194968204945325,0.01375224286147859
1772618192421372000,10.427371826171875,0.004131400716304779,-0.01043870243327692,0.00398272209377028
1772618192431403800,10.43740380859375,0.008466799572110176,-0.012551128009986132,0.007359975407947785
1772618192441436200,10.447436279296875,0.009659808748960495,0.0025759697015397248,0.0003849944293266162
1772618192451468000,10.457468017578124,0.005465864190459251,0.0013720007392577825,-0.008638740339223294
1772618192461499000,10.467498779296875,-0.014733458751440047,0.007469879222940653,0.008212783711845986
1772618192471531000,10.477531005859374,0.01579378145933151,-0.00500862194225192,0.002656665688357316
1772618192481563000,10.48756298828125,-0.0012649053692817688,-0.007060111111961305,0.0011540243067545816
1772618192491595000,10.497594970703124,-0.004110357928276062,0.004700122248660773,0.00027302195483352987
1772618192501627000,10.507626953125,0.0032236382216215133,-0.0032791130022145807,0.008584754262818023
1772618192511658000,10.517657958984374,0.015494506251811981,-0.0001682692389935255,-0.003281793583068065
1772618192521689900,10.52768994140625,-0.00919511384665966,-0.0007586546138860285,0.0008208194301696493
1772618192531722000,10.537721923828125,0.01085866314470768,-0.001292195235006511,0.012364455464622006
1772618192541754000,10.547754150390626,-0.0035042087286710735,-0.0020057685981504617,-0.0055673563701333474
1772618192551785000,10.557784912109375,-0.003797638717293739,0.0031547011712566016,0.007895685153268278
1772618192561816800,10.56781689453125,0.0072808046579360955,0.015795827285945415,0.0048745928995776915
1772618192571849000,10.577848876953125,-0.003797638717293739,0.01061192184202373,0.012268548208940773
1772618192581881000,10.587881103515626,-0.01487666661441326,-0.009496160886157304,0.009361200261721388
1772618192591912000,10.597911865234375,-0.0015600889235734938,-0.004808167466707527,0.035728475815407
1772618192601944000,10.607944091796876,-0.0035071313381195065,-0.0036725875655189153,0.015346252320962957
1772618192611976000,10.617975830078125,0.002627425894141197,-0.001996014389116317,0.002494136636983603
1772618192622007800,10.6280078125,0.007265607088804245,0.006989877153653651,-0.003985293076769448
1772618192632040000,10.6380400390625,-0.00874678555727005,-0.0017862258296459912,0.0234657591256313
1772618192642071000,10.648071044921876,0.015052023181319235,-0.0000785999278537929,-0.004884095946862362
1772618192652103000,10.65810302734375,0.006675239980220795,0.005337579901982099,-0.0026765348660293966
1772618192662134800,10.668134765625,0.013709376400709152,-0.004395586344134062,0.003434413161780685
1772618192672167200,10.678167236328125,0.002637362766265869,0.01037171987798065,0.004308136389544233
1772618192682198000,10.688197998046874,-0.9413549676835536,0.029707155999541282,-0.36042233466058965
1772618192692230000,10.69822998046875,1.619625400647521,-0.07389229815211147,0.42046844175718723
1772618192702262000,10.708261962890624,-0.2009896053344011,0.02667714065387845,0.09610546340076252
1772618192712294000,10.7182939453125,-0.5458902534753084,0.02488768168753013,-0.22054982665516434
1772618192722326000,10.728325927734375,0.20381167701780795,-0.025672493655979633,0.0810545544642955
1772618192732357000,10.738357177734375,0.07729132947325706,0.011939937309082597,0.012043794975779018
1772618192742389000,10.748388916015625,-0.11823358071446419,-0.00835300046671182,-0.0026417147143976763
1772618192752420900,10.7584208984375,0.023632220000028608,-0.003522054912615567,-0.008735268649412318
