time,seconds_elapsed,z,y,x
1772618182058527700,0.06452783203125,-0.0033452967181801796,0.24828505516052246,0.05719168484210968
1772618182068559600,0.0745595703125,-0.004038404673337936,0.16623534262180328,0.03159327059984207
1772618182078591500,0.084591552734375,0.006776425521820784,-0.22551512718200684,-0.044549427926540375
1772618182088622600,0.09462255859375,0.005774336867034435,-0.21208006143569946,-0.05643199011683464
1772618182098654500,0.104654541015625,-0.003733946941792965,0.21122565865516663,0.05295069143176079
1772618182108686600,0.1146865234375,-0.0018791691400110722,0.1840737909078598,0.03803576901555061
1772618182118718700,0.12471875,0.006138543598353863,-0.1954847127199173,-0.038569528609514236
1772618182128750600,0.13475048828125,0.0058910781517624855,-0.19848500192165375,-0.049462854862213135
1772618182138781400,0.144781494140625,-0.003252086229622364,0.1721218377351761,0.041937366127967834
1772618182148813800,0.154813720703125,-0.002820122055709362,0.20031805336475372,0.04607192426919937
1772618182158845700,0.164845703125,0.0013722265139222145,-0.14407742023468018,-0.03198373317718506
1772618182168877600,0.174877685546875,0.0064615849405527115,-0.18138487637043,-0.04175733029842377
1772618182178909400,0.184909423828125,-0.0036131534725427628,0.10215015709400177,0.027694977819919586
1772618182188940500,0.1949404296875,-0.004069086164236069,0.17988117039203644,0.04301827773451805
1772618182198972700,0.20497265625,0.0022577852942049503,-0.028222497552633286,-0.0030328393913805485
1772618182209004500,0.215004638671875,0.005812704563140869,-0.1635245382785797,-0.038680434226989746
1772618182219036700,0.22503662109375,0.002191870706155896,-0.07882562279701233,-0.020280923694372177
1772618182229068500,0.235068603515625,-0.004601320717483759,0.1350610852241516,0.03356846049427986
1772618182239099600,0.245099609375,-0.00524127809330821,0.15294873714447021,0.031600117683410645
1772618182249131800,0.2551318359375,0.002119148150086403,-0.12186095118522644,-0.028999298810958862
1772618182259163600,0.26516357421875,0.003138340078294277,-0.12970955669879913,-0.03224196657538414
1772618182269195500,0.275195556640625,0.0016700446140021086,-0.026421424001455307,-0.006270724348723888
1772618182279227600,0.2852275390625,-0.0037399004213511944,0.11464221775531769,0.027364468201994896
1772618182289259800,0.295259765625,-0.0038680569268763065,0.13468895852565765,0.03327515348792076
1772618182299290600,0.30529052734375,0.00044519826769828796,-0.08311980217695236,-0.016944075003266335
1772618182309322500,0.315322509765625,0.003215246833860874,-0.11664324253797531,-0.025602106004953384
1772618182319354600,0.325354736328125,0.001223468454554677,-0.07202889770269394,-0.01506903674453497
1772618182329386800,0.33538671875,-0.0008684047497808933,0.06070328503847122,0.013597442768514156
1772618182339418600,0.345418701171875,-0.0015240749344229698,0.10539805144071579,0.027641888707876205
1772618182349449700,0.35544970703125,-0.0030165500938892365,0.10430139303207397,0.022651709616184235
1772618182359481600,0.365481689453125,0.002277281368151307,-0.0950777605175972,-0.020290696993470192
1772618182369513500,0.375513427734375,0.0005471599288284779,-0.09338704496622086,-0.019244486466050148
1772618182379545600,0.385545654296875,-0.00007548695430159569,-0.052518442273139954,-0.011470985598862171
1772618182389577700,0.39557763671875,0.0004299064166843891,0.003955302760004997,0.0015766946598887444
1772618182399608600,0.405608642578125,-0.0020210007205605507,0.06120101734995842,0.013807528652250767
1772618182409640400,0.415640380859375,-0.0027351859025657177,0.09018091857433319,0.024398066103458405
1772618182419672800,0.4256728515625,-0.00010771118104457855,0.07286078482866287,0.017010988667607307
1772618182429704700,0.43570458984375,0.00035649677738547325,-0.08767618238925934,-0.020027201622724533
1772618182439736600,0.445736572265625,0.002242547459900379,-0.07984834909439087,-0.016799984499812126
1772618182449767700,0.455767578125,0.0007035643793642521,-0.038696177303791046,-0.009182344190776348
1772618182459799600,0.465799560546875,-0.000002439599484205246,0.009078534319996834,0.002271378645673394
1772618182469831700,0.475831787109375,0.00046827271580696106,0.05255609750747681,0.013953213579952717
1772618182479863600,0.485863525390625,-0.002409006468951702,0.08007027953863144,0.0196694228798151
1772618182489895700,0.495895751953125,-0.002120396587997675,0.047141965478658676,0.00839367788285017
1772618182499927600,0.505927490234375,0.0018013743683695793,-0.07795869559049606,-0.019280027598142624
1772618182509958400,0.51595849609375,0.0007606707513332367,-0.06286580860614777,-0.016023337841033936
1772618182519990800,0.52599072265625,-0.0008651888929307461,-0.027278251945972443,-0.007180578075349331
1772618182530022700,0.536022705078125,-0.0007530897855758667,0.01044970192015171,0.0029171016067266464
1772618182540054500,0.546054443359375,-0.0008236635476350784,0.050003767013549805,0.012769998051226139
1772618182550086700,0.556086669921875,-0.0006705131381750107,0.07033006101846695,0.017687512561678886
1772618182560117800,0.56611767578125,-0.001369326375424862,0.0234413780272007,0.0074415323324501514
1772618182570149600,0.576149658203125,0.004209882114082575,-0.06769000738859177,-0.012852446176111698
1772618182580181500,0.586181396484375,-0.0004083053208887577,-0.053182441741228104,-0.011994375847280025
1772618182590213600,0.596213623046875,-0.001311061903834343,-0.01992548443377018,-0.003550599329173565
1772618182600245800,0.606245849609375,-0.00009745918214321136,0.01749379187822342,0.004084150772541761
1772618182610276600,0.616276611328125,-0.000998406670987606,0.04461462423205376,0.01269734650850296
1772618182620308700,0.626308837890625,-0.0019302465952932835,0.05837731063365936,0.012353532016277313
1772618182630340600,0.636340576171875,-0.002427648287266493,0.008865876123309135,-0.001367419259622693
1772618182640372500,0.64637255859375,0.0017220890149474144,-0.056437764316797256,-0.011546020396053791
1772618182650404600,0.656404541015625,0.0019930670969188213,-0.041691966354846954,-0.012660698965191841
1772618182660436700,0.666436767578125,0.001019948162138462,-0.012282148003578186,-0.0035795862786471844
1772618182670467600,0.676467529296875,-0.0010324367322027683,0.017231952399015427,0.0032145632430911064
1772618182680499500,0.68649951171875,-0.0015770532190799713,0.04389498755335808,0.008930239826440811
1772618182690531800,0.69653173828125,-0.0025345911271870136,0.054692380130290985,0.011374076828360558
1772618182700563700,0.706563720703125,-0.0025348574854433537,-0.008436521515250206,-0.0008703387575224042
1772618182710595600,0.716595703125,0.0010399408638477325,-0.04787078872323036,-0.012802126817405224
1772618182720626700,0.726626708984375,0.0016380867455154657,-0.034163765609264374,-0.005822514183819294
1772618182730658600,0.736658447265625,0.0008581597357988358,-0.00906785111874342,-0.0036034095101058483
1772618182740690200,0.746690185546875,0.00047519709914922714,0.019461529329419136,0.0039442554116249084
1772618182750722300,0.756722412109375,0.0006723874248564243,0.03997308760881424,0.007167879957705736
1772618182760754400,0.76675439453125,-0.0036520534195005894,0.044881824404001236,0.012310710735619068
1772618182770785300,0.776785400390625,0.0007848669774830341,-0.017856750637292862,-0.003528266679495573
1772618182780817200,0.786817138671875,-0.0003150184638798237,-0.03907894715666771,-0.010408011265099049
1772618182790849500,0.796849609375,0.0017996637616306543,-0.024542754516005516,-0.004875947721302509
1772618182800881400,0.80688134765625,0.0004161517135798931,-0.005452684126794338,0.00001707853516563773
1772618182810913300,0.816913330078125,-0.0003018057905137539,0.0180324986577034,0.00412136921659112
1772618182820944400,0.8269443359375,0.00042683491483330727,0.032677486538887024,0.008831169456243515
1772618182830976300,0.836976318359375,-0.003838013857603073,0.03415454179048538,0.006295348983258009
1772618182841008400,0.84700830078125,0.0008901623077690601,-0.02326987124979496,-0.005763710476458073
1772618182851040300,0.857040283203125,-0.00045394618064165115,-0.03188707306981087,-0.0068489243276417255
1772618182861072400,0.867072265625,0.0009253048337996006,-0.020061839371919632,-0.005024925339967012
1772618182871103200,0.877103271484375,0.001079091802239418,0.000497905071824789,0.0005902046104893088
1772618182881135000,0.887135009765625,-0.0003547538071870804,0.01893230527639389,0.0021185926161706448
1772618182891167500,0.89716748046875,-0.0003437735140323639,0.02933906391263008,0.005087405443191528
1772618182901199400,0.907199462890625,-0.0030876281671226025,0.023944033309817314,0.004374743439257145
1772618182911231200,0.917231201171875,0.0017444530967622995,-0.02715037576854229,-0.006186329759657383
1772618182921263000,0.92726318359375,-0.0005956664681434631,-0.023147378116846085,-0.006856114603579044
1772618182931294500,0.93729443359375,-0.0006687254644930363,-0.013716783374547958,-0.0018245249520987272
1772618182941326300,0.947326416015625,-0.0012197336181998253,0.00617410009726882,-0.0008218447328545153
1772618182951358200,0.957358154296875,-0.001453970093280077,0.018594160676002502,0.002043304732069373
1772618182961390300,0.967390380859375,0.0015705821570008993,0.028528280556201935,0.008176032453775406
1772618182971422500,0.97742236328125,0.00019952747970819473,0.005654454696923494,-0.00021208496764302254
1772618182981453300,0.987453369140625,0.002117003547027707,-0.026418793946504593,-0.005243328865617514
1772618182991485400,0.9974853515625,0.0013151366729289293,-0.017917484045028687,-0.004110143054276705
1772618183001517300,1.007517333984375,-0.0006241770461201668,-0.0036402777768671513,-0.001349243801087141
1772618183011549200,1.017549072265625,0.001134838443249464,0.009662757627665997,0.0017370689893141389
1772618183021581300,1.027581298828125,-0.0010353713296353817,0.020333245396614075,0.005793329793959856
1772618183031612400,1.0376123046875,-0.0001772637479007244,0.022738035768270493,0.004862526897341013
1772618183041644300,1.047644287109375,0.0016366150230169296,-0.006707469001412392,-0.0046090055257081985
1772618183051676200,1.05767626953125,-0.0019590985029935837,-0.02156239002943039,-0.005422147922217846
1772618183061708300,1.067708251953125,-0.0005396334454417229,-0.011667149141430855,-0.0036383625119924545
1772618183071740400,1.077740478515625,-0.0008346857503056526,-0.0011495486833155155,-0.0002915817894972861
1772618183081772300,1.087772216796875,0.00003696698695421219,0.009624270722270012,0.0022115232422947884
1772618183091803400,1.097803466796875,-0.0006052269600331783,0.01777472533285618,0.002749056089669466
1772618183101835300,1.107835205078125,-0.001998858992010355,0.010811891406774521,0.0026161647401750088
1772618183111867400,1.117867431640625,0.00039560580626130104,-0.018350254744291306,-0.0032244138419628143
1772618183121899300,1.127899169921875,-0.0006217220798134804,-0.016616005450487137,-0.003354109823703766
1772618183131931400,1.137931396484375,-0.00023984350264072418,-0.006650425959378481,-0.0016997023485600948
1772618183141962200,1.147962158203125,0.00015084212645888329,0.006913586053997278,-0.00034415331901982427
1772618183151994000,1.157994140625,0.0009005432948470116,0.015157399699091911,0.0018217957112938166
1772618183162026500,1.168026611328125,-0.0008933618664741516,0.01671375147998333,0.0030793403275310993
1772618183172058400,1.178058349609375,-0.00039855390787124634,-0.005123325157910585,-0.00021309824660420418
1772618183182090200,1.18809033203125,0.0006097187288105488,-0.01229601725935936,-0.0020890289451926947
1772618183192121300,1.198121337890625,-0.00006268126890063286,-0.010287993587553501,-0.00003519910387694836
1772618183202153500,1.208153564453125,0.000029463786631822586,0.0006203143857419491,0.0001994253834709525
1772618183212185300,1.218185302734375,0.0007178373634815216,0.009238664992153645,0.002946835942566395
1772618183222217200,1.22821728515625,-0.001479536760598421,0.015496295876801014,0.0017164553282782435
1772618183232249300,1.238249267578125,-0.00017349887639284134,0.001010851003229618,-0.0009395013912580907
1772618183242280200,1.2482802734375,0.0007237200625240803,-0.014273829758167267,-0.0019983742386102676
1772618183252312300,1.258312255859375,-0.00001972215250134468,-0.012681313790380955,-0.0021782033145427704
1772618183262344400,1.268344482421875,0.0007528606802225113,-0.002453709952533245,0.0013526156544685364
1772618183272376300,1.278376220703125,-0.002155532129108906,0.005831404123455286,0.004138029646128416
1772618183282408200,1.288408203125,0.0006154868751764297,0.01035664789378643,0.0023569073528051376
1772618183292439300,1.298439208984375,0.0007241996936500072,0.006404530256986618,-0.00014456157805398107
1772618183302471400,1.308471435546875,-0.00010590767487883568,-0.009599470533430576,-0.0007405770011246204
1772618183312503300,1.31850341796875,-0.00037307338789105415,-0.011194832623004913,-0.003318662289530039
1772618183322535200,1.32853515625,0.00042853783816099167,-0.0025962842628359795,0.00117568823043257
1772618183332567300,1.3385673828125,0.0020830712746828794,0.0019864197820425034,0.004628435242921114
1772618183342598400,1.348598388671875,-0.003024871926754713,0.009668041951954365,0.0016148022841662169
1772618183352630300,1.35863037109375,-0.0022110464051365852,0.007930477149784565,0.000887918402440846
1772618183362662400,1.368662353515625,0.002026309259235859,-0.00804955419152975,-0.0027456986717879772
1772618183372694300,1.3786943359375,-0.0025322241708636284,-0.007194050587713718,-0.0025011268444359303
1772618183382726400,1.388726318359375,-0.00009596440941095352,-0.0015721176750957966,0.0006336799124255776
1772618183392757500,1.398757568359375,-0.0009258650243282318,0.004062524531036615,0.000913232215680182
1772618183402789400,1.408789306640625,-0.0016198847442865372,0.005292105954140425,0.003557484829798341
1772618183412821200,1.4188212890625,-0.0002873116172850132,0.008469469845294952,0.0028042772319167852
1772618183422853000,1.42885302734375,-0.0018612397834658623,-0.004916376434266567,-0.002554801758378744
1772618183432885500,1.438885498046875,-0.0000015599653124809265,-0.005809483118355274,-0.001685172668658197
1772618183442917400,1.44891748046875,-0.0003738701343536377,-0.001942307222634554,0.002580412197858095
1772618183452948200,1.4589482421875,0.0008883709087967873,0.003351704217493534,0.00017925130669027567
1772618183462980400,1.46898046875,0.0034151780419051647,0.005731238983571529,0.002854662947356701
1772618183473012500,1.479012451171875,0.0014560080599039793,0.0013636848889291286,0.001492178882472217
1772618183483044400,1.48904443359375,0.0005167112685739994,-0.00937977246940136,-0.0013235812075436115
1772618183493076200,1.499076171875,0.00004230299964547157,-0.005299871787428856,-0.0007531734299845994
1772618183503107300,1.509107421875,0.002340344712138176,0.0008352524600923061,0.0008766811806708574
1772618183513139200,1.51913916015625,-0.0023848875425755978,0.004927541129291058,-0.00032379227923229337
1772618183523171300,1.52917138671875,-0.001219488214701414,0.006239414215087891,0.0026693344116210938
1772618183533203500,1.539203369140625,-0.00006302865222096443,-0.0005082506686449051,-0.0021880432032048702
1772618183543235300,1.5492353515625,0.0001939665526151657,-0.0054990146309137344,-0.0034511806443333626
1772618183553266200,1.55926611328125,-0.0003469404764473438,-0.003381788032129407,-0.0004159376840107143
1772618183563298300,1.56929833984375,0.00004667462781071663,0.0012728851288557053,0.0010863515781238675
1772618183573330400,1.579330322265625,-0.0005910145118832588,0.00400799373164773,0.002274903003126383
1772618183583362300,1.5893623046875,0.001507024047896266,0.0006404262967407703,0.0011840721126645803
1772618183593394200,1.599394287109375,0.00032734964042901993,-0.007220372557640076,0.0011202922323718667
1772618183603425300,1.60942529296875,0.0006605111993849277,-0.0009654061868786812,-0.000007822876796126366
1772618183613457400,1.61945751953125,-0.0003484431654214859,-0.0007690787315368652,0.0004317587590776384
1772618183623489300,1.6294892578125,-0.002229167614132166,0.004910644609481096,0.0032685580663383007
1772618183633521400,1.639521484375,-0.000852885190397501,0.003610669169574976,0.004313183017075062
1772618183643553300,1.64955322265625,0.00027363188564777374,-0.002637372352182865,0.0006598584586754441
1772618183653584100,1.659584228515625,0.0010389573872089386,-0.002459302544593811,0.0005602934979833663
1772618183663616500,1.669616455078125,0.0015092717949301004,0.0002976018004119396,0.002555001061409712
1772618183673648400,1.6796484375,0.0010341964662075043,0.004265218041837215,0.00146164046600461
1772618183683680300,1.68968017578125,-0.0006808796897530556,0.0026534730568528175,0.00008771568536758423
1772618183693712100,1.699712158203125,0.0007630614563822746,-0.0033889361657202244,-0.00021029304480180144
1772618183703743200,1.7097431640625,0.0007569361478090286,-0.0009457520209252834,0.0017553861252963543
1772618183713775400,1.719775390625,0.0006231134757399559,-0.001341021154075861,-0.0011653350666165352
1772618183723807200,1.72980712890625,-0.00004454096779227257,0.005456431303173304,0.000254662474617362
1772618183733839400,1.73983935546875,-0.00003703916445374489,0.0008052862249314785,-0.000027767149731516838
1772618183743870700,1.74987060546875,-0.0011110920459032059,-0.002526594791561365,-0.0021891887299716473
1772618183753902600,1.759902587890625,0.0017471204046159983,-0.004228843841701746,-0.000982841127552092
1772618183763933700,1.76993359375,0.0013098292984068394,0.0013930890709161758,0.003739742562174797
1772618183773965600,1.779965576171875,0.001199671532958746,0.0018996084108948708,0.0008491221815347672
1772618183783997700,1.789997802734375,-0.0022150338627398014,0.0023510148748755455,0.0011623100144788623
1772618183794029800,1.80002978515625,0.0005661342293024063,-0.003104095347225666,0.00012333516497164965
1772618183804061700,1.810061767578125,0.00031792744994163513,0.0007146117277443409,-0.0001171482726931572
1772618183814092500,1.820092529296875,-0.0016752188093960285,0.002234784886240959,-0.001107283984310925
1772618183824125000,1.830125,0.0011655748821794987,0.003101910464465618,0.00017849018331617117
1772618183834156800,1.84015673828125,-0.0004963520914316177,-0.0009931167587637901,-0.0018110503442585468
1772618183844188700,1.850188720703125,0.00024001160636544228,-0.002380091231316328,-0.001230747438967228
1772618183854220500,1.860220458984375,0.0019236223306506872,0.0030137989670038223,-0.0008009800803847611
1772618183864251600,1.870251708984375,0.00024423282593488693,0.00018978305160999298,0.00038812129059806466
1772618183874283800,1.88028369140625,0.0009097927249968052,-0.0008599236607551575,0.001327676814980805
1772618183884315600,1.890315673828125,0.00012762239202857018,-0.00033847661688923836,-0.0011096482630819082
1772618183894347800,1.90034765625,0.0013586774002760649,0.0036744489334523678,0.0022321983706206083
1772618183904379600,1.910379638671875,-0.0013782531023025513,0.0010291305370628834,0.000528840406332165
1772618183914410500,1.920410400390625,0.000048041343688964844,-0.001551472581923008,-0.0002376236952841282
1772618183924443000,1.93044287109375,-0.0016862088814377785,-0.0019016782753169537,-0.0013010238762944937
1772618183934474800,1.940474853515625,-0.0003292239271104336,0.001659521833062172,-0.0009636679315008223
1772618183944506600,1.950506591796875,-0.002921811304986477,0.0012874780222773552,-0.00045740100904367864
1772618183954538800,1.960538818359375,0.003970281686633825,-0.001738500315696001,0.0017404836835339665
1772618183964569900,1.97056982421875,-0.0007544322870671749,-0.000727564562112093,0.0014211706584319472
1772618183974601700,1.980601806640625,-0.00024210521951317787,-0.0008755093440413475,-0.0009330209577456117
1772618183984633600,1.990633544921875,-0.0022067194804549217,0.001868345309048891,0.0025479968171566725
1772618183994665700,2.000665771484375,-0.0021263468079268932,-0.0009604962542653084,0.00029686233028769493
1772618184004697900,2.01069775390625,-0.0028954679146409035,-0.0005554291419684887,-0.0003175289020873606
1772618184014728700,2.020728759765625,0.00204141135327518,0.0004705269820988178,0.0003092968254350126
1772618184024760800,2.0307607421875,-0.000285392627120018,0.0021059741266071796,-0.0008691519615240395
1772618184034792700,2.040792724609375,0.000855863094329834,0.002846000250428915,-0.0006342791020870209
1772618184044824600,2.050824462890625,0.0023440374061465263,-0.0034840668085962534,0.003866729326546192
1772618184054856700,2.060856689453125,-0.0016620941460132599,-0.0012099058367311954,0.0012149729300290346
1772618184064887800,2.0708876953125,-0.00038191257044672966,0.0001307292841374874,-0.0004518997448030859
1772618184074919700,2.080919677734375,0.0012245734687894583,0.0026989937759935856,0.002313042525202036
1772618184084951600,2.09095166015625,0.0004565180279314518,-0.00022808602079749107,0.000593439326621592
1772618184094984000,2.10098388671875,0.0001749410293996334,-0.001146591268479824,0.0000905651249922812
1772618184105015800,2.111015869140625,-0.0003512995317578316,-0.0002925153821706772,0.002469300525262952
1772618184115046700,2.121046630859375,0.0017022539395838976,-0.002189050894230604,0.0006306774448603392
1772618184125078800,2.131078857421875,0.0007757400162518024,0.0009023463353514671,0.0004245487507432699
1772618184135110700,2.141110595703125,0.0022674661595374346,-0.0028619160875678062,0.0009480554726906121
1772618184145142800,2.151142822265625,-0.00048171496018767357,0.00020577898249030113,0.0014716330915689468
1772618184155174700,2.161174560546875,0.00018352409824728966,-0.0009955591522157192,-0.002594213467091322
1772618184165206800,2.171206787109375,0.00014384323731064796,-0.0016427072696387768,0.0014822869561612606
1772618184175237600,2.181237548828125,0.0009170142002403736,-0.0005966797471046448,0.00022123893722891808
1772618184185269500,2.19126953125,0.000780926551669836,0.0011964268051087856,-0.000028565526008605957
1772618184195302000,2.201302001953125,0.00001541944220662117,0.0007790504023432732,0.00012036599218845367
1772618184205333800,2.211333740234375,0.00011608703061938286,-0.000042801257222890854,0.0014724528882652521
1772618184215365600,2.22136572265625,-0.0006954348646104336,-0.0018723360262811184,-0.0011219328735023737
1772618184225396700,2.231396728515625,-0.0038512805476784706,0.0015309173613786697,-0.00005373894236981869
1772618184235428900,2.241428955078125,-0.0011745798401534557,-0.002345736138522625,0.0027741219382733107
1772618184245460700,2.251460693359375,0.000737303402274847,0.0007190299220383167,0.0008419984369538724
1772618184255492600,2.26149267578125,0.001111696707084775,0.0006703492254018784,-0.000969808257650584
1772618184265524700,2.271524658203125,0.0002552242949604988,0.0006825998425483704,0.0015604610089212656
1772618184275555600,2.2815556640625,0.0000010100193321704865,0.001478652935475111,0.0005811722949147224
1772618184285587700,2.291587646484375,-0.0002695671282708645,0.0010661291889846325,-0.0004132520407438278
1772618184295619800,2.301619873046875,0.004012764431536198,-0.0020177452825009823,0.002954342635348439
1772618184305651700,2.311651611328125,-0.00015694694593548775,0.00044860830530524254,-0.0009085723431780934
1772618184315683600,2.32168359375,0.0013966071419417858,-0.0002884841524064541,0.0017387528205290437
1772618184325714700,2.331714599609375,-0.002818111330270767,0.0007711872458457947,0.0023661935701966286
1772618184335746800,2.341746826171875,0.001205002423375845,-0.0007873070426285267,-0.0007614800706505775
1772618184345778700,2.35177880859375,0.0008550630882382393,0.0009317630901932716,0.0007740985602140427
1772618184355810600,2.361810546875,0.0010180342942476273,0.0004156050272285938,0.0026069446466863155
1772618184365843000,2.371843017578125,0.0005186917260289192,0.000054214149713516235,-0.001833077403716743
1772618184375873800,2.381873779296875,-0.0018024635501205921,-0.00025524338707327843,-0.0015978026203811169
1772618184385905700,2.39190576171875,-0.0014653070829808712,0.0009615547023713589,0.0003889154177159071
1772618184395937800,2.401937744140625,-0.00007861480116844177,-0.0012594200670719147,0.001052247709594667
1772618184405969700,2.4119697265625,-0.0011915499344468117,0.0002849469892680645,-0.001330482424236834
1772618184416001800,2.422001708984375,-0.0008606198243796825,0.0005662315525114536,-0.00007065886165946722
1772618184426033000,2.432032958984375,-0.0004409058019518852,-0.00029583368450403214,-0.0025391429662704468
1772618184436064800,2.442064697265625,-0.0019529890269041061,-0.0007556569762527943,-0.0010074866004288197
1772618184446096600,2.4520966796875,-0.002535955049097538,-0.00021902984008193016,-0.0004599406966008246
1772618184456128500,2.46212841796875,-0.0009001642465591431,-0.0009068567305803299,0.002645143773406744
1772618184466161000,2.472160888671875,0.0006487304344773293,0.0006875782273709774,0.000502364244312048
1772618184476191700,2.482191650390625,-0.0009790272451937199,-0.00041552865877747536,-0.0009229640709236264
1772618184486223600,2.4922236328125,-0.0010623843409121037,0.0001104455441236496,-0.0007458638283424079
1772618184496255700,2.502255859375,-0.0019828598015010357,0.0006304439157247543,0.00008983793668448925
1772618184506287900,2.512287841796875,0.00046431925147771835,-0.0009557348676025867,-0.002044419292360544
1772618184516319700,2.52231982421875,-0.00025971606373786926,-0.0006944546476006508,0.0009384462609887123
1772618184526350800,2.532350830078125,-0.0028624236583709717,-0.0024164547212421894,-0.0011428141733631492
1772618184536382700,2.5423828125,0.00011579133570194244,-0.0009398455731570721,-0.0016351764788851142
1772618184546414600,2.55241455078125,-0.0012304363772273064,0.0001858724281191826,0.0008764506783336401
1772618184556446700,2.56244677734375,-0.0008906610310077667,0.0021755965426564217,0.0002627179492264986
1772618184566478800,2.572478759765625,0.00010482873767614365,-0.001275327056646347,0.0024843267165124416
1772618184576509700,2.582509765625,-0.0010752743110060692,0.0015778769738972187,-0.00039185385685414076
1772618184586541600,2.59254150390625,-0.0014355997554957867,0.00045508798211812973,0.0008513097418472171
1772618184596573700,2.60257373046875,-0.0018699346110224724,-0.0009768116287887096,0.001391366240568459
1772618184606605800,2.612605712890625,0.0011879068333655596,0.0010623703710734844,0.0006350285839289427
1772618184616637700,2.6226376953125,0.0005543665029108524,-0.0009407349862158298,-0.0008977687684819102
1772618184626669600,2.632669677734375,-0.0012983949854969978,-0.000056033022701740265,-0.005652576684951782
1772618184636700700,2.64270068359375,0.001226810272783041,0.0005129734054207802,0.00029506394639611244
1772618184646732800,2.65273291015625,-0.0014832224696874619,-0.001040981151163578,0.0006862822920084
1772618184656764700,2.6627646484375,0.0004321560263633728,-0.0003885808400809765,0.0007417692104354501
1772618184666796800,2.672796875,0.00012988736853003502,0.0007350067608058453,0.0012459055287763476
1772618184676828700,2.68282861328125,0.0011775984894484282,-0.0012348536401987076,-0.0003168040420860052
1772618184686859500,2.692859619140625,0.0000026118941605091095,0.0017995517700910568,0.000490133767016232
1772618184696892000,2.702891845703125,-0.0007333443500101566,-0.0007156236097216606,-0.0005146125331521034
1772618184706923800,2.712923828125,-0.0011397427879273891,0.00011368468403816223,0.00028859684243798256
1772618184716955600,2.72295556640625,0.0006252666935324669,0.0006503844633698463,-0.0013043750077486038
1772618184726987500,2.732987548828125,-0.0005965917371213436,0.00267492001876235,-0.0006337910890579224
1772618184737019600,2.74301953125,-0.0006177993491292,-0.0017788512632250786,-0.0003742197877727449
1772618184747051500,2.753051513671875,0.0015785093419253826,0.0021580997854471207,-0.0015348254237324
1772618184757083400,2.76308349609375,-0.0011586803011596203,0.0005143820308148861,0.0013766757911071181
1772618184767115500,2.773115478515625,-0.0024561723694205284,0.0004512653686106205,-0.001819117576815188
1772618184777147600,2.783147705078125,0.0021938697900623083,-0.0006761476397514343,0.0022805752232670784
1772618184787178500,2.793178466796875,-0.00019392045214772224,0.00013132253661751747,0.0009505926864221692
1772618184797210400,2.80321044921875,-0.002377859316766262,-0.0012471890076994896,0.00019808427896350622
1772618184807242500,2.813242431640625,-0.003423149697482586,-0.0001731361262500286,-0.0012472132220864296
1772618184817274600,2.823274658203125,-0.0005854973569512367,0.0008103749714791775,0.0004380119498819113
1772618184827306500,2.833306396484375,0.0021474387031048536,0.00220826780423522,0.0009895525872707367
1772618184837337600,2.843337646484375,0.002165157813578844,0.0011489852331578732,0.0006114518037065864
1772618184847369500,2.853369384765625,-0.0014032116159796715,-0.0006430554203689098,-0.0006681970553472638
1772618184857401600,2.863401611328125,0.0007421132177114487,0.0015227347612380981,0.0029861414805054665
1772618184867433500,2.87343359375,0.000973009504377842,-0.00026850728318095207,0.0011381737422198057
1772618184877465600,2.883465576171875,-0.0005552368238568306,-0.0007460769265890121,-0.0013160139787942171
1772618184887496400,2.893496337890625,-0.000753908883780241,-0.0018600770272314548,0.00018734042532742023
1772618184897528300,2.9035283203125,-0.0002228952944278717,-0.0007272842340171337,0.00021028309129178524
1772618184907560700,2.913560791015625,-0.0006721708923578262,-0.0014442075043916702,-0.0006009158096276224
1772618184917592600,2.923592529296875,-0.000023165252059698105,-0.0008412315510213375,0.001262991107068956
1772618184927624400,2.93362451171875,0.0008535473607480526,0.0017468286678195,0.0020174644887447357
1772618184937655600,2.943655517578125,-0.002620176412165165,0.00023392727598547935,0.0006121774204075336
1772618184947687400,2.9536875,-0.0008459785021841526,-0.004103030543774366,-0.0009915782138705254
1772618184957719600,2.963719482421875,-0.002258945256471634,0.001986729446798563,-0.0011358388001099229
1772618184967751400,2.97375146484375,-0.002486911602318287,0.00045088399201631546,-0.0019795282278209925
1772618184977783600,2.983783447265625,0.00003693951293826103,0.0012236488983035088,-0.0004941713414154947
1772618184987814400,2.993814453125,-0.00035800738260149956,0.0018116747960448265,-0.0011873921612277627
1772618184997846500,3.003846435546875,-0.0014941291883587837,-0.00019393721595406532,0.0015361782861873507
1772618185007878700,3.013878662109375,-0.003077644854784012,0.0005413615144789219,-0.0008255130378529429
1772618185017910500,3.02391064453125,0.0013061375357210636,-0.0026131710037589073,0.002741823438555002
1772618185027942400,3.0339423828125,0.0009748400188982487,0.0008204425685107708,-0.00019298010738566518
1772618185037973500,3.043973388671875,-0.000925939530134201,0.0009729298762977123,-0.00010246888268738985
1772618185048005600,3.054005615234375,0.0007550478912889957,-0.000042533036321401596,0.0015881058061495423
1772618185058037500,3.06403759765625,-0.0023051202297210693,-0.0008216402493417263,0.0009187363320961595
1772618185068069400,3.0740693359375,0.0006563151255249977,-0.00036064721643924713,0.0015147518133744597
1772618185078101500,3.0841015625,-0.002037505153566599,0.0006562601774930954,0.00030334608163684607
1772618185088132400,3.09413232421875,0.00001046573743224144,0.0014738505706191063,0.0015694127650931478
1772618185098164500,3.10416455078125,-0.000641978345811367,0.0006362446583807468,-0.0015317631186917424
1772618185108196600,3.114196533203125,0.001080021494999528,-0.001297210343182087,0.0019186284625902772
1772618185118228500,3.124228515625,0.0005942811258137226,-0.0007409537211060524,-0.0010931688593700528
1772618185128260600,3.134260498046875,0.0013317104894667864,0.0001650541089475155,0.004433422815054655
1772618185138292500,3.14429248046875,-0.000755267683416605,-0.002926275134086609,0.0011361156357452273
1772618185148323600,3.154323486328125,-0.002320940140634775,0.0010183989070355892,0.000519593944773078
1772618185158355500,3.16435546875,0.000004557427018880844,0.00174750667065382,-0.0031103177461773157
1772618185168387300,3.17438720703125,-0.0025376961566507816,0.000676383264362812,-0.00218886393122375
1772618185178419700,3.184419677734375,-0.001565349753946066,-0.0004914621822535992,-0.0005276412703096867
1772618185188451600,3.19445166015625,0.0014677245635539293,0.000249695498496294,0.00025080074556171894
1772618185198482400,3.204482421875,0.0019191666506230831,0.001395474188029766,-0.002170813735574484
1772618185208514600,3.2145146484375,0.00005095917731523514,-0.00023730937391519547,0.0006345601286739111
1772618185218546400,3.22454638671875,-0.0003994717262685299,-0.0006913449615240097,0.0004487896803766489
1772618185228578600,3.23457861328125,-0.0005153194069862366,-0.0008386177942156792,0.0022424287162721157
1772618185238610400,3.2446103515625,0.00006970204412937164,0.0003272388130426407,-0.0014091093325987458
1772618185248641500,3.2546416015625,-0.00023363204672932625,0.0022585629485547543,-0.00007353408727794886
1772618185258673400,3.26467333984375,-0.0006892508827149868,0.003162005916237831,-0.002358800731599331
1772618185268705500,3.27470556640625,0.00221679056994617,0.0019681109115481377,0.0008742768550291657
1772618185278737700,3.284737548828125,-0.0017889272421598434,0.00217995373532176,0.0009101526811718941
1772618185288769500,3.29476953125,-0.0008120797574520111,0.0013043065555393696,-0.0023756553418934345
1772618185298800400,3.30480029296875,0.0007327618077397346,0.001593293622136116,0.0005642003379762173
1772618185308832500,3.31483251953125,-0.002546388190239668,0.0003274930641055107,-0.0014419588260352612
1772618185318864600,3.32486474609375,0.0013253975193947554,-0.0005944361910223961,0.0003969779936596751
1772618185328896500,3.334896484375,-0.00041524460539221764,-0.0014956495724618435,-0.0009668267448432744
1772618185338928400,3.344928466796875,-0.0009114956483244896,-0.0012495359405875206,0.000708100269548595
1772618185348959500,3.35495947265625,0.0003316677175462246,0.0013193492777645588,0.0016431361436843872
1772618185358991400,3.364991455078125,-0.0015827575698494911,-0.0028019999153912067,0.0024170507676899433
1772618185369023500,3.3750234375,-0.0008322787471115589,0.0017493423074483871,-0.0010138996876776218
1772618185379055600,3.3850556640625,0.0010703317821025848,-0.00026681041345000267,0.0040029557421803474
1772618185389087500,3.39508740234375,-0.0007909517735242844,-0.000738190021365881,-0.0002346665132790804
1772618185399118300,3.405118408203125,-0.0019588577561080456,-0.0014143041335046291,0.0016628538724035025
1772618185409150700,3.415150634765625,-0.0008259490132331848,0.0025772415101528168,-0.00019869569223374128
1772618185419182600,3.4251826171875,0.0019024680368602276,-0.0020955675281584263,0.0023240854497998953
1772618185429214500,3.43521435546875,-0.00010981643572449684,0.0003979504108428955,-0.0009601247729733586
1772618185439246300,3.445246337890625,-0.00028036627918481827,-0.0010590925812721252,0.0004718031268566847
1772618185449277400,3.45527734375,0.000951878260821104,-0.0018159630708396435,0.001114690094254911
1772618185459309600,3.4653095703125,0.00012769503518939018,0.0016650035977363586,0.0022555626928806305
1772618185469341400,3.475341552734375,-0.0017045596614480019,0.00009826617315411568,-0.0020696772262454033
1772618185479373600,3.48537353515625,-0.001382600050419569,0.0010792254470288754,0.0003362142015248537
1772618185489405400,3.495405517578125,0.0006046504713594913,-0.0008446420542895794,-0.00039216032018885016
1772618185499436500,3.5054365234375,-0.0011716070584952831,-0.00003116019070148468,-0.00007105548866093159
1772618185509468700,3.51546875,-0.0008051563054323196,-0.0009382325224578381,0.0007374802371487021
1772618185519500500,3.52550048828125,0.0010229558683931828,0.000032327137887477875,0.0007932853186503053
1772618185529532400,3.535532470703125,-0.0001861192286014557,0.0014280900359153748,-0.0010813138214871287
1772618185539564500,3.545564453125,-0.0014965897426009178,-0.000554998405277729,-0.002233788836747408
1772618185549595600,3.555595703125,-0.0006012348458170891,0.0010002879425883293,0.0003966153599321842
1772618185559627500,3.56562744140625,-0.001134463120251894,0.001397442538291216,-0.0013301899889484048
1772618185569659400,3.575659423828125,-0.0018191616982221603,0.0011215382255613804,-0.0023104995489120483
1772618185579691500,3.58569140625,0.0025473011191934347,0.0014638863503932953,0.0016232577618211508
1772618185589723600,3.5957236328125,0.001494020689278841,0.0016295351088047028,0.001138562336564064
1772618185599754500,3.60575439453125,-0.0028766626492142677,0.002476203255355358,-0.002330535789951682
1772618185609786600,3.61578662109375,-0.001507798209786415,0.000755801796913147,-0.0017750004772096872
1772618185619818500,3.625818603515625,-0.0016823122277855873,-0.0015383046120405197,-0.00409273523837328
1772618185629850400,3.635850341796875,-0.0008588628843426704,-0.000026161782443523407,-0.00009533064439892769
1772618185639882500,3.645882568359375,0.001617685193195939,0.0008142869919538498,-0.00041005847742781043
1772618185649913600,3.65591357421875,-0.0024447008036077023,0.001257969532161951,0.0011670654639601707
1772618185659945500,3.665945556640625,-0.0005881665274500847,-0.000371287576854229,0.0006462811725214124
1772618185669977300,3.675977294921875,0.000832896213978529,-0.0007353420369327068,0.0006763748824596405
1772618185680009700,3.686009765625,-0.0003098924644291401,0.0004955148324370384,-0.0007494003511965275
1772618185690041600,3.69604150390625,-0.0004473114386200905,0.00004837010055780411,0.0010242648422718048
1772618185700072400,3.706072509765625,-0.0012784856371581554,-0.003222956322133541,-0.0007933182641863823
1772618185710104600,3.7161044921875,-0.00043426360934972763,0.0019347872585058212,0.000462894793599844
1772618185720136400,3.726136474609375,-0.0007935459725558758,-0.0005739261396229267,-0.00038789439713582397
1772618185730168600,3.73616845703125,-0.0009855600073933601,0.0006982660852372646,0.002467280486598611
1772618185740200400,3.746200439453125,-0.0047849933616817,0.0030606547370553017,-0.0013677458046004176
1772618185750231600,3.7562314453125,-0.0013604345731437206,0.001618819311261177,-0.0019288738258183002
1772618185760263400,3.766263427734375,-0.0026432168669998646,-0.000007043126970529556,0.0013003770727664232
1772618185770295300,3.77629541015625,0.00012593809515237808,0.00048377783969044685,0.001508636400103569
1772618185780327700,3.78632763671875,-0.0010526711121201515,0.0004300740547478199,-0.001766254659742117
1772618185790359600,3.796359619140625,-0.0008577276021242142,-0.0013915281742811203,0.0011562982108443975
1772618185800391400,3.806391357421875,0.0014515321236103773,0.002580224070698023,0.0007833554409444332
1772618185810422500,3.816422607421875,-0.0010619591921567917,-0.00109200831502676,-0.00028270791517570615
1772618185820454400,3.826454345703125,-0.0009750206954777241,0.0008983048610389233,-0.0011346903629601002
1772618185830486500,3.836486572265625,-0.0014594499953091145,0.00007299147546291351,0.002560445573180914
1772618185840518400,3.846518310546875,0.0011291592381894588,-0.0004576477222144604,0.0024389135651290417
1772618185850550500,3.856550537109375,-0.0015161586925387383,-0.002126384526491165,0.00029027508571743965
1772618185860581400,3.866581298828125,-0.0006789145991206169,-0.0021045366302132607,0.0012067637871950865
1772618185870613500,3.876613525390625,-0.0008054147474467754,-0.000154037494212389,-0.0006169689586386085
1772618185880645600,3.886645751953125,0.0016486726235598326,-0.00013616681098937988,0.00180625740904361
1772618185890677500,3.896677490234375,-0.00010315468534827232,-0.002261902205646038,0.0013609769521281123
1772618185900708400,3.906708251953125,0.00013407599180936813,0.0005519348196685314,-0.001514633186161518
1772618185910740500,3.916740478515625,0.0022837799042463303,0.0017804508097469807,0.0018372214399278164
1772618185920772600,3.926772705078125,0.0009500193409621716,0.0006516692228615284,0.0015006746398285031
1772618185930804500,3.936804443359375,0.0011132708750665188,0.0011893617920577526,-0.0017489143647253513
1772618185940836400,3.94683642578125,-0.0010617859661579132,0.0004105423577129841,-0.0004320241860114038
1772618185950868500,3.956868408203125,-0.0005866782739758492,0.0012084259651601315,-0.0033588381484150887
1772618185960899300,3.9668994140625,-0.0013840938918292522,-0.00019594328477978706,-0.0030484418384730816
1772618185970931500,3.976931396484375,-0.00048580998554825783,0.0010480196215212345,0.0003841063007712364
1772618185980963600,3.986963623046875,-0.0006484691984951496,0.0006215851753950119,0.001547376741655171
1772618185990995500,3.996995361328125,0.0016884547658264637,0.00047244830057024956,-0.0005538573022931814
1772618186001027300,4.00702734375,-0.0005178116261959076,-0.001220629084855318,0.0006399163976311684
1772618186011058700,4.01705859375,-0.0014515160582959652,-0.0010051792487502098,-0.0017478738445788622
1772618186021090600,4.027090576171875,0.00036604516208171844,0.0011404631659388542,0.002381478901952505
1772618186031122400,4.037122314453125,0.0007793675176799297,-0.00041189324110746384,0.00040434824768453836
1772618186041154300,4.047154296875,0.0016075929161161184,-0.001115391030907631,0.002445669611915946
1772618186051186700,4.057186767578125,-0.0006060265004634857,0.0014923764392733574,0.00034443545155227184
1772618186061217500,4.067217529296875,-0.0007188809104263783,0.00040724966675043106,0.00229141628369689
1772618186071249400,4.07724951171875,-0.000052824150770902634,-0.00018956465646624565,0.0023891543969511986
1772618186081281500,4.087281494140625,0.001349413301795721,-0.00039379438385367393,0.002464671852067113
1772618186091313400,4.0973134765625,-0.0019039041362702847,0.0006973026320338249,-0.0012435135431587696
1772618186101345500,4.107345458984375,-0.0000037103891372680664,0.00102672865614295,-0.00040908396476879716
1772618186111376600,4.117376708984375,-0.00046710018068552017,0.0015841280110180378,0.0012684410903602839
1772618186121408500,4.127408447265625,0.0012682636734098196,0.0005093785002827644,0.0009573528077453375
1772618186131440400,4.1374404296875,-0.0000814264640212059,-0.0006957021541893482,0.0018239454366266727
1772618186141472300,4.14747216796875,0.0001275520771741867,0.0001752111129462719,-0.0003944353084079921
1772618186151504600,4.157504638671875,0.0004023900255560875,0.001317175105214119,-0.0016676925588399172
1772618186161535500,4.167535400390625,-0.001191635150462389,-0.002681461628526449,-0.001166393281891942
1772618186171567400,4.1775673828125,0.0009002778679132462,0.0010664048604667187,-0.0021853186190128326
1772618186181599500,4.187599609375,-0.001278574112802744,-0.0001541045494377613,0.0035080029629170895
1772618186191631600,4.197631591796875,0.0008498243987560272,-0.0012297551147639751,0.0000648018904030323
1772618186201663500,4.20766357421875,-0.0008394317701458931,0.0010719881393015385,-0.00008810940198600292
1772618186211694600,4.217694580078125,-0.0009041465818881989,-0.001798633486032486,-0.00010009360266849399
1772618186221726500,4.2277265625,0.0016352704260498285,-0.00029237382113933563,0.001266301260329783
1772618186231758300,4.23775830078125,-0.0008364091627299786,-0.0008689481765031815,0.0030977572314441204
1772618186241790500,4.24779052734375,0.0006734561175107956,0.0001648562029004097,0.0008793369634076953
1772618186251822600,4.257822509765625,0.0009450986981391907,0.00015926314517855644,0.0008606947958469391
1772618186261853400,4.267853515625,-0.0008587203919887543,0.002388270106166601,-0.0012999012833461165
1772618186271885300,4.27788525390625,0.0010190745815634727,0.0008726646192371845,0.0003856134135276079
1772618186281917700,4.287917724609375,0.000767142977565527,-0.0008160322904586792,-0.002381951082497835
1772618186291949600,4.297949462890625,-0.0018760445527732372,0.001322486437857151,0.001245274324901402
1772618186301981400,4.3079814453125,0.0003147837705910206,0.0005675316788256168,0.000480870483443141
1772618186312012500,4.318012451171875,-0.0027672923170030117,-0.00031637120991945267,-0.0008006425923667848
1772618186322044400,4.32804443359375,0.005281680729240179,-0.0025025447830557823,0.00096977932844311
1772618186332076500,4.33807666015625,-0.00224920641630888,0.0009100297465920448,-0.0006273183971643448
1772618186342108400,4.3481083984375,-0.0011390778236091137,0.0007097232155501842,-0.0012971166288480163
1772618186352140500,4.358140625,-0.000581678468734026,0.0012207846157252789,0.001053655636496842
1772618186362171400,4.36817138671875,-0.0005454677157104015,-0.0032370127737522125,0.0038377330638468266
1772618186372203300,4.378203369140625,0.00024122977629303932,0.000617380253970623,-0.0017650253139436245
1772618186382235600,4.388235595703125,0.0006110165268182755,-0.0017430908046662807,-0.002376007381826639
1772618186392267500,4.398267578125,0.000762017909437418,0.00010221358388662338,-0.0028798775747418404
1772618186402299400,4.40829931640625,0.00019998429343104362,0.0003245635889470577,0.0013919228222221136
1772618186412330500,4.41833056640625,-0.00009828992187976837,-0.00008103623986244202,-0.00038573716301470995
1772618186422362600,4.428362548828125,-0.0015240577049553394,-0.0012493422254920006,0.0004348079673945904
1772618186432394500,4.43839453125,-0.001464935950934887,-0.0000011189840734004974,-0.0005497626261785626
1772618186442426400,4.44842626953125,0.002634892240166664,-0.000874795950949192,-0.0020654320251196623
1772618186452458500,4.45845849609375,0.0000052871182560920715,0.0007537268102169037,0.0019596696365624666
1772618186462489300,4.4684892578125,0.003748434130102396,-0.0012301970273256302,0.00031749624758958817
1772618186472521500,4.478521484375,-0.0014425995759665966,0.0017544077709317207,0.0018592003034427762
1772618186482553600,4.4885537109375,0.0006291004829108715,0.0005679815076291561,-0.000686872168444097
1772618186492585500,4.49858544921875,0.0013532140292227268,0.00022736331447958946,-0.0001427883980795741
1772618186502617300,4.508617431640625,0.003344413358718157,-0.000015997793525457382,-0.000030060764402151108
1772618186512648400,4.5186484375,-0.0009517981670796871,0.00256939884275198,0.0009646299295127392
1772618186522680600,4.5286806640625,-0.0007558572106063366,0.0017145276069641113,0.000652337446808815
1772618186532712400,4.53871240234375,-0.0009843562729656696,-0.00328715518116951,0.002839591819792986
1772618186542744300,4.548744384765625,-0.0024556596763432026,0.00024450477212667465,-0.0010031083365902305
1772618186552776400,4.5587763671875,0.0018914183601737022,-0.0008833440952003002,0.00029251957312226295
1772618186562807600,4.5688076171875,0.0009280527010560036,-0.002375671174377203,0.0016886948142200708
1772618186572839400,4.57883935546875,0.0018319296650588512,-0.00042943330481648445,0.00036377215292304754
1772618186582871600,4.58887158203125,0.0008824095129966736,0.0009131878614425659,-0.0003535969299264252
1772618186592903400,4.5989033203125,-0.000041973311454057693,-0.00029428908601403236,-0.00042550225043669343
1772618186602935600,4.608935546875,-0.002045503817498684,0.00013638800010085106,0.0018646441167220473
1772618186612966700,4.618966552734375,0.001277322182431817,-0.0014969287440180779,-0.0010264834854751825
1772618186622998500,4.62899853515625,-0.0018172860145568848,-0.0013236571103334427,-0.002657056786119938
1772618186633030400,4.639030517578125,0.00024453364312648773,0.0010359035804867744,0.000027409521862864494
1772618186643062300,4.649062255859375,-0.001348045188933611,-0.0006212424486875534,0.0031043756753206253
1772618186653094700,4.6590947265625,-0.0012841294519603252,0.0014988994225859642,0.0006452128291130066
1772618186663125500,4.66912548828125,0.00011260062456130981,-0.0026423954404890537,-0.003703623777255416
1772618186673157400,4.679157470703125,0.0019895967561751604,-0.002270085271447897,-0.0005965136806480587
1772618186683189500,4.689189453125,-0.0020642471499741077,-0.00036345794796943665,-0.0013728337362408638
1772618186693221600,4.6992216796875,0.0016756297554820776,0.0004980750381946564,0.00218514958396554
1772618186703253500,4.70925341796875,0.000386187806725502,0.0008620722219347954,0.0012840735726058483
1772618186713284600,4.71928466796875,0.0002373172901570797,-0.0016341088339686394,-0.0019407481886446476
1772618186723316500,4.72931640625,-0.0007684980519115925,0.0010084961540997028,-0.001950110774487257
1772618186733348400,4.739348388671875,-0.0005796798504889011,0.0005863853730261326,-0.0019485128577798605
1772618186743380500,4.74938037109375,0.0002323179505765438,0.0008524344302713871,0.0009471421362832189
1772618186753412600,4.75941259765625,0.0012634939048439264,0.0012005097232758999,-0.0009210653370246291
1772618186763443500,4.769443359375,0.0010827956721186638,-0.0009906110353767872,-0.0005214700940996408
1772618186773475300,4.779475341796875,-0.00039685703814029694,-0.0018276423215866089,-0.001152372919023037
1772618186783507500,4.789507568359375,0.002191739622503519,0.001399850007146597,0.00003435590770095587
1772618186793539600,4.79953955078125,0.0008814642205834389,-0.0009583788923919201,-0.00025406450731679797
1772618186803571500,4.809571533203125,-0.0010959520004689693,-0.000531989149749279,0.0008482316043227911
1772618186813602600,4.8196025390625,0.0008702599443495274,0.001095468644052744,-0.0015728480648249388
1772618186823634400,4.829634521484375,0.0005172761157155037,0.0003597498871386051,-0.002235068939626217
1772618186833666600,4.83966650390625,-0.00019219005480408669,-0.0012810234911739826,0.0005958712426945567
1772618186843698400,4.849698486328125,-0.00006799306720495224,-0.00013156654313206673,-0.0005798948113806546
1772618186853730600,4.85973046875,-0.0005572154186666012,-0.0012916396372020245,-0.003326412755995989
1772618186863761400,4.869761474609375,0.0006724945269525051,0.000933272298425436,-0.001380591420456767
1772618186873793300,4.879793212890625,-0.000914216972887516,0.00011861138045787811,0.0004828224191442132
1772618186883825700,4.88982568359375,-0.0013310117647051811,-0.00009760912507772446,-0.00029170437483116984
1772618186893857500,4.899857421875,-0.000026063062250614166,-0.000003865920007228851,0.00007581186946481466
1772618186903889400,4.909889404296875,-0.000373785849660635,0.001663419883698225,-0.0002663860213942826
1772618186913920500,4.91992041015625,0.0006957394070923328,-0.0011182515881955624,0.003600257681682706
1772618186923952400,4.929952392578125,0.0011580572463572025,-0.0035417736507952213,0.0020073656924068928
1772618186933984500,4.939984619140625,0.000995604321360588,-0.002380635589361191,0.0012398427352309227
1772618186944016400,4.950016357421875,-0.0007058554328978062,-0.0004429197870194912,-0.0008932811906561255
1772618186954048500,4.960048583984375,-0.0005170376971364021,0.001638340763747692,0.0034178439527750015
1772618186964079400,4.970079345703125,0.0009105349890887737,-0.0001224735751748085,-0.00318154226988554
1772618186974111500,4.980111572265625,-0.0006705839186906815,-0.00002686586230993271,0.00095860764849931
1772618186984143600,4.9901435546875,0.0022785633336752653,-0.0021771821193397045,0.00019269646145403385
1772618186994175500,5.000175537109375,0.0007496424950659275,0.00013097934424877167,0.0024949992075562477
1772618187004207400,5.010207275390625,0.0012611772399395704,-0.0016099377535283566,-0.0006907233037054539
1772618187014238500,5.020238525390625,0.00022467505186796188,0.0006058122962713242,-0.0007312033558264375
1772618187024270600,5.0302705078125,-0.0012391679920256138,-0.0009988057427108288,0.0007967196870595217
1772618187034302500,5.040302490234375,0.0006964178755879402,0.0021069729700684547,-0.001222222694195807
1772618187044334300,5.050334228515625,0.0004571303725242615,-0.00021170731633901596,0.003122661728411913
1772618187054366500,5.060366455078125,0.00030293315649032593,-0.0002844114787876606,0.0024536754935979843
1772618187064397600,5.0703974609375,-0.0002525714226067066,-0.0006975186988711357,-0.0008536764071322978
1772618187074429400,5.080429443359375,-0.001509317196905613,-0.001192866824567318,-0.0022837938740849495
1772618187084461600,5.090461669921875,0.001155803445726633,0.0019423910416662693,0.0009082881733775139
1772618187094493400,5.100493408203125,-0.00045833876356482506,0.0016497098840773106,-0.0022049471735954285
1772618187104525600,5.110525634765625,0.00013489509001374245,-0.00030569732189178467,-0.002965120365843177
1772618187114556700,5.120556640625,-0.001065657939761877,0.0027273772284388542,0.0016725081950426102
1772618187124588500,5.130588623046875,-0.00010031042620539665,-0.00011076591908931732,0.0006708623841404915
1772618187134620400,5.140620361328125,0.002403859980404377,-0.00035018427297472954,0.0008199993753805757
1772618187144652300,5.15065234375,0.00035740993916988373,0.0004243268631398678,-0.0011587918270379305
1772618187154684400,5.160684326171875,0.0017774077132344246,-0.0001722211018204689,-0.00015211699064821005
1772618187164715500,5.170715576171875,0.002041736850515008,-0.00032256729900836945,0.0010334227699786425
1772618187174747400,5.180747314453125,0.003261198289692402,-0.0020751934498548508,-0.0002978913835249841
1772618187184779500,5.190779541015625,0.001291859894990921,-0.0012145517393946648,0.0017960331169888377
1772618187194811400,5.200811279296875,0.0008582971058785915,0.0015074647963047028,-0.0013052178546786308
1772618187204843500,5.210843505859375,-0.00023676641285419464,0.0015198071487247944,0.0015427294420078397
1772618187214874600,5.22087451171875,-0.002910314127802849,0.0014170086942613125,0.0003506984794512391
1772618187224906500,5.230906494140625,-0.0010183746926486492,0.0010299519635736942,0.0011274723801761866
1772618187234938400,5.2409384765625,-0.0009081196039915085,-0.0005671456456184387,-0.0023836391046643257
1772618187244970500,5.250970458984375,0.00026636337861418724,-0.0001467326655983925,0.0013810002710670233
1772618187255002600,5.261002685546875,-0.001026068814098835,-0.0022040242329239845,-0.00046110834227874875
1772618187265033500,5.271033447265625,-0.000571196898818016,-0.0015797344967722893,-0.00023085193242877722
1772618187275065300,5.2810654296875,0.00048474641516804695,0.001057594083249569,0.00009059160947799683
1772618187285097500,5.291097412109375,-0.0007138140499591827,0.001935587264597416,0.0008809528080746531
1772618187295129600,5.301129638671875,-0.0010198112577199936,0.0010586082935333252,-0.000693508074618876
1772618187305161500,5.311161376953125,-0.0005571162328124046,-0.0007352805696427822,-0.0008391638984903693
1772618187315192600,5.321192626953125,-0.00029985466971993446,0.0016719512641429901,0.0017757939640432596
1772618187325224400,5.331224365234375,0.0009747343137860298,0.000310276634991169,0.001696964493021369
1772618187335256300,5.34125634765625,0.0028977699112147093,0.00040671974420547485,-0.0015157487941905856
1772618187345288400,5.351288330078125,-0.001222266349941492,-0.0015022549778223038,0.0003249914152547717
1772618187355320600,5.361320556640625,0.0012904258910566568,0.0001438446342945099,0.0014099633553996682
1772618187365351400,5.371351318359375,-0.003047388978302479,-0.0023997356183826923,0.000015245052054524422
1772618187375383300,5.38138330078125,0.00014946935698390007,-0.000330459326505661,-0.00007476971950381994
1772618187385415700,5.391415771484375,-0.00009930459782481194,0.0000035641714930534363,0.0018625056836754084
1772618187395447600,5.401447509765625,-0.0009235525503754616,0.00017134333029389381,-0.00005230703391134739
1772618187405479400,5.4114794921875,-0.0016231434419751167,0.0007031192071735859,0.0005655302666127682
1772618187415510500,5.421510498046875,-0.000487305223941803,-0.0007264656014740467,-0.0004302256857044995
1772618187425542400,5.43154248046875,-0.0003432398661971092,0.0003560138866305351,-0.0022524185478687286
1772618187435574500,5.441574462890625,-0.0006950437091290951,-0.0005374765023589134,-0.00042735430179163814
1772618187445606400,5.4516064453125,0.00010920269414782524,-0.0010577780194580555,-0.00121705187484622
1772618187455638500,5.461638427734375,-0.0006308900192379951,0.002107655629515648,-0.00040824984898790717
1772618187465669400,5.47166943359375,-0.0013727406039834023,-0.0007467153482139111,0.0010370442178100348
1772618187475701500,5.481701416015625,-0.001121337991207838,0.000744920689612627,-0.0013190543977543712
1772618187485733600,5.491733642578125,0.000005862675607204437,-0.0023257755674421787,-0.0001896600006148219
1772618187495765500,5.501765625,0.000015716534107923508,-0.0008655642159283161,-0.0014999352861195803
1772618187505797400,5.51179736328125,-0.0029881340451538563,0.00010544992983341217,-0.00010339351138100028
1772618187515828500,5.521828369140625,0.000022835563868284225,0.000907061155885458,0.0008489529136568308
1772618187525860600,5.531860595703125,0.003144209273159504,-0.0005030366592109203,0.0017101787962019444
1772618187535892500,5.541892578125,0.001620881026610732,-0.0008271434344351292,0.0009655591566115618
1772618187545924400,5.55192431640625,0.0005344264209270477,-0.00021223537623882294,-0.00023904850240796804
1772618187555956500,5.56195654296875,-0.00023096613585948944,-0.00018267426639795303,0.001141534186899662
1772618187565987300,5.5719873046875,-0.0007939436472952366,0.0012677917256951332,-0.0029670221265405416
1772618187576019500,5.58201953125,0.0004665306769311428,0.0012856349349021912,0.0007566097192466259
1772618187586051600,5.592051513671875,-0.0007371264509856701,0.0014944719150662422,-0.0007213999051600695
1772618187596083500,5.60208349609375,0.002012853743508458,0.0003322684206068516,-0.00004921801155433059
1772618187606115300,5.612115234375,0.0006298101507127285,0.0004883282817900181,-0.00211276370100677
1772618187616146700,5.622146728515625,0.0007392661646008492,-0.0008453824557363987,-0.002121818484738469
1772618187626178600,5.632178466796875,0.00019172672182321548,-0.0019082478247582912,-0.0016945784445852041
1772618187636210400,5.64221044921875,0.0015227748081088066,-0.0012693554162979126,0.0012354314094409347
1772618187646242300,5.6522421875,0.00040274765342473984,0.0011660540476441383,0.0008248529629781842
1772618187656273400,5.6622734375,-0.0006409455090761185,-0.0005029491148889065,-0.0016476258169859648
1772618187666305500,5.672305419921875,-0.0020114192739129066,0.0018630488775670528,-0.001873725326731801
1772618187676337400,5.68233740234375,-0.0009754495695233345,-0.0015500588342547417,0.0012709354050457478
1772618187686369500,5.69236962890625,0.001508734654635191,0.0003149774856865406,0.0009174481965601444
1772618187696401400,5.7024013671875,0.0020192626398056746,-0.0014480352401733398,-0.0010279909474775195
1772618187706432300,5.712432373046875,0.0010762806050479412,-0.0006907363422214985,0.00013606820721179247
1772618187716464600,5.722464599609375,0.00006055086851119995,0.002138872165232897,0.0011238347506150603
1772618187726496500,5.73249658203125,0.0012541431933641434,0.0011100778356194496,-0.0004450342967174947
1772618187736528400,5.7425283203125,-0.0019866572692990303,0.0008328426629304886,-0.0001331781386397779
1772618187746560800,5.752560791015625,-0.0029777088202536106,0.002348529640585184,0.0018666971009224653
1772618187756591900,5.762591796875,0.0004274090752005577,-0.00014259107410907745,-0.0007655713707208633
1772618187766624000,5.7726240234375,-0.0003112349659204483,-0.0009745154529809952,0.001533630071207881
1772618187776656000,5.78265576171875,-0.0008987286128103733,-0.0019966368563473225,-0.00127733638510108
1772618187786687700,5.792687744140625,-0.0008064555004239082,0.0003148023970425129,-0.0010374982375651598
1772618187796719900,5.802719970703125,0.0021046458277851343,0.0002841758541762829,-0.0009746475843712687
1772618187806750700,5.812750732421875,-0.00024855369701981544,0.0006229095160961151,0.002706000814214349
1772618187816782800,5.822782958984375,-0.0006948993541300297,0.0015978929586708546,0.0003831916255876422
1772618187826815000,5.83281494140625,-0.001150738913565874,0.0007492778822779655,-0.0013550318544730544
1772618187836846800,5.842846923828125,0.0009393100626766682,-0.0012709959410130978,0.0015044041210785508
1772618187846878700,5.852878662109375,-0.00014740321785211563,-0.00026901206001639366,-0.001208086614497006
1772618187856910000,5.86291015625,-0.0004731076769530773,0.0028740507550537586,0.00026597303804010153
1772618187866942000,5.87294189453125,0.001043024007230997,0.0014067990705370903,-0.0005720624467357993
1772618187876973800,5.882973876953125,0.0011924272403120995,0.0004672356881201267,-0.0005395718617364764
1772618187887005700,5.893005615234375,-0.001870445441454649,-0.0009736055508255959,-0.0004472722648642957
1772618187897036800,5.903036865234375,0.001607909332960844,0.0028999620117247105,0.0025397292338311672
1772618187907069000,5.91306884765625,0.0011115481611341238,-0.0011796113103628159,0.0017138250404968858
1772618187917100800,5.923100830078125,-0.0007012654095888138,0.0005684876814484596,0.0011513653444126248
1772618187927133000,5.9331328125,-0.0007846648804843426,-0.00025007594376802444,-0.0001493770396336913
1772618187937164800,5.943164794921875,-0.00019291043281555176,0.0015656673349440098,0.0017726264195516706
1772618187947197000,5.953197021484375,0.0018949962686747313,-0.0014449269510805607,-0.0009990897960960865
1772618187957228000,5.96322802734375,0.0002728649415075779,-0.0001772623509168625,0.0009175871964544058
1772618187967260000,5.973260009765625,0.0006168773397803307,-0.0003562835045158863,0.0008341034408658743
1772618187977291800,5.983291748046875,0.0010088947601616383,-0.0010095569305121899,-0.00011824292596429586
1772618187987323600,5.99332373046875,0.0021939692087471485,-0.0002722288481891155,0.00020113459322601557
1772618187997355000,6.00335498046875,-0.00274752639234066,0.0008462988771498203,-0.0025725476443767548
1772618188007387000,6.013386962890625,-0.004039844498038292,-0.0002375333569943905,-0.0005871491739526391
1772618188017418800,6.023418701171875,0.0009506531059741974,-0.0020796419121325016,0.0015465754549950361
1772618188027451000,6.033450927734375,0.00027730874717235565,-0.001245502382516861,0.002850356511771679
1772618188037483000,6.04348291015625,-0.001704083289951086,-0.0008707959204912186,-0.0018469268688932061
1772618188047513900,6.053513916015625,-0.0024888264015316963,0.002782368566840887,0.0013978382339701056
1772618188057546000,6.0635458984375,-0.00026508700102567673,-0.0002139541320502758,-0.00011856568744406104
1772618188067577900,6.073577880859375,0.0003793206997215748,-0.00019757496193051338,-0.0003756586811505258
1772618188077609700,6.083609619140625,-0.00015970272943377495,-0.0015022577717900276,0.0022576749324798584
1772618188087641900,6.093641845703125,0.0004715528339147568,0.0000938810408115387,0.0005004095146432519
1772618188097673000,6.1036728515625,-0.0028502075001597404,0.0013168049044907093,0.0005281064659357071
1772618188107704800,6.113704833984375,-0.0015061497688293457,-0.0002635209821164608,0.0003625414101406932
1772618188117736700,6.12373681640625,0.0008499487303197384,0.002444914076477289,0.0011819960782304406
1772618188127768800,6.133768798828125,-0.0009261658415198326,-0.0008957558311522007,-0.0018643747316673398
1772618188137801000,6.143801025390625,0.0011622849851846695,0.0012816442176699638,-0.0002744675730355084
1772618188147831800,6.153831787109375,0.0007073166780173779,-0.0008567194454371929,0.0029885999392718077
1772618188157864000,6.163864013671875,0.0013241046108305454,0.0014144242741167545,0.0020399820059537888
1772618188167895800,6.173895751953125,0.0004996187053620815,-0.0021764622069895267,0.00036272313445806503
1772618188177928000,6.183927978515625,-0.0018860413692891598,-0.0006520687602460384,-0.0006655233446508646
1772618188187959800,6.193959716796875,0.001118890242651105,-0.0018477663397789001,0.0015375011134892702
1772618188197991000,6.203990966796875,-0.0026071383617818356,0.0008886316791176796,-0.002010095864534378
1772618188208022800,6.214022705078125,-0.00006345240399241447,0.0002720276825129986,0.0004499545320868492
1772618188218054700,6.2240546875,-0.0010560122318565845,0.0008893487975001335,-0.0025213342159986496
1772618188228087000,6.234087158203125,0.0015346817672252655,-0.0011565242893993855,0.0004765476332977414
1772618188238119000,6.244118896484375,0.0010411981493234634,-0.0008494616486132145,-0.0026406822726130486
1772618188248149800,6.254149658203125,0.0012483869213610888,0.0007929033599793911,-0.0023258717264980078
1772618188258182000,6.264181884765625,0.0014561132993549109,0.000274918507784605,-0.0008078698883764446
1772618188268214000,6.274214111328125,0.002303882036358118,-0.0014088279567658901,-0.0002006584545597434
1772618188278246000,6.284245849609375,0.0017270413227379322,-0.0018820716068148613,-0.0005066556623205543
1772618188288277800,6.29427783203125,-0.00015443982556462288,0.0010204296559095383,0.003556553740054369
1772618188298308900,6.304308837890625,-0.000618095975369215,0.0016835564747452736,-0.0001740021980367601
1772618188308340700,6.3143408203125,0.0013576059136539698,0.0023395316675305367,-0.0017432536697015166
1772618188318372900,6.324372802734375,0.0009325654245913029,-0.00047170137986540794,-0.0017080999678000808
1772618188328405000,6.334405029296875,-0.0006741438992321491,-0.0021002967841923237,0.0018649937119334936
1772618188338435800,6.344435791015625,-0.0013204929418861866,0.00034341961145401,0.00022022542543709278
1772618188348467700,6.3544677734375,-0.0006765439175069332,-0.000748929101973772,0.0012065826449543238
1772618188358499800,6.364499755859375,0.0004486413672566414,0.00013923551887273788,0.0008553117513656616
1772618188368532000,6.374531982421875,-0.0001822034828364849,0.00055281026288867,-0.0009124703356064856
1772618188378563800,6.384563720703125,0.003771259216591716,-0.002151896245777607,0.0017333801370114088
1772618188388595000,6.394594970703125,-0.0009186621755361557,0.00015315087512135506,-0.00007100310176610947
1772618188398626800,6.404626708984375,0.000992421992123127,-0.0010735010728240013,0.001979364547878504
1772618188408659000,6.414658935546875,0.0009568766690790653,-0.0007301722653210163,0.0007195915095508099
1772618188418690800,6.42469091796875,0.0022005727514624596,-0.0015040868893265724,0.0027590403333306313
1772618188428723000,6.434722900390625,0.00021799607202410698,-0.000398517120629549,0.001963795628398657
1772618188438753800,6.44475390625,-0.0005146395415067673,0.00044144364073872566,-0.00021067529451102018
1772618188448785700,6.45478564453125,0.0019415426068007946,0.0003422810696065426,0.0014497702941298485
1772618188458818000,6.464818115234375,0.0011593722738325596,0.0007145912386476994,-0.00035984773421660066
1772618188468850000,6.474849853515625,-0.0008871653117239475,0.00028784899041056633,-0.0003034317633137107
1772618188478881800,6.4848818359375,-0.0005651894025504589,0.0018375422805547714,-0.0007282059523276985
1772618188488913000,6.494912841796875,-0.0007026637904345989,0.0002967929467558861,-0.00023754528956487775
1772618188498944800,6.50494482421875,-0.0003521917387843132,0.0012755049392580986,-0.003694328246638179
1772618188508977000,6.514976806640625,-0.0012678010389208794,0.00016332371160387993,0.0005933612119406462
1772618188519008800,6.5250087890625,0.00017137080430984497,0.00023789238184690475,0.000750487670302391
1772618188529041000,6.535041015625,0.0005228770896792412,0.0007782480679452419,0.0007844303036108613
1772618188539071700,6.54507177734375,-0.00049205357208848,0.003916517365723848,-0.000495484855491668
1772618188549103900,6.555103759765625,-0.0014982516877353191,-0.0006102807819843292,-0.0011155260726809502
1772618188559136000,6.565135986328125,-0.001238859724253416,0.00038520898669958115,-0.002004222944378853
1772618188569168000,6.57516796875,-0.0008810381405055523,-0.0032715708948671818,-0.0013503886293619871
1772618188579199700,6.58519970703125,-0.00007969280704855919,-0.0012776623480021954,0.0003010374493896961
1772618188589230800,6.59523095703125,0.0012884580064564943,0.0016246652230620384,0.00043837109114974737
1772618188599263000,6.605262939453125,0.0005840519443154335,-0.0010763127356767654,-0.0021614069119095802
1772618188609294800,6.615294921875,0.0010295584797859192,0.00017343414947390556,-0.0004846153315156698
1772618188619326700,6.62532666015625,0.00011396361514925957,0.0007819663733243942,-0.0016502809012308717
1772618188629357800,6.63535791015625,0.0017768065445125103,-0.0015390529297292233,0.0012484780745580792
1772618188639390000,6.645389892578125,-0.0006669098511338234,0.000779228750616312,-0.00022584793623536825
1772618188649421800,6.655421875,-0.0005292263813316822,0.00037308037281036377,0.0003636323381215334
1772618188659454000,6.665453857421875,-0.002667744643986225,-0.0002913782373070717,-0.0030641222838312387
1772618188669485800,6.67548583984375,0.0007725423201918602,-0.0012861392460763454,0.0003085249336436391
1772618188679516700,6.6855166015625,0.0010822676122188568,0.001298725139349699,0.00012157100718468428
1772618188689549000,6.695549072265625,0.002001229440793395,0.0007295864634215832,-0.0014007805148139596
1772618188699581000,6.705580810546875,0.0002579241991043091,0.0005836454220116138,-0.0004993005422875285
1772618188709612800,6.71561279296875,-0.0005810870788991451,-0.00046866992488503456,0.0020004480611532927
1772618188719644700,6.725644775390625,0.0017774084117263556,0.0013774335384368896,0.0006526221986860037
1772618188729675800,6.73567578125,0.00044590188190340996,-0.0031760637648403645,0.0005677216686308384
1772618188739707000,6.745706787109375,0.0023007935378700495,-0.0002226182259619236,-0.001384907984174788
1772618188749739000,6.755739013671875,0.00039461255073547363,-0.0000835382379591465,-0.0016241315752267838
1772618188759771000,6.76577099609375,0.0020130155608057976,-0.00204602163285017,0.0028129611164331436
1772618188769802800,6.775802734375,-0.00041541922837495804,0.000007510185241699219,-0.002484844299033284
1772618188779833900,6.785833740234375,0.0009949910454452038,-0.0011528292670845985,0.0033983448520302773
1772618188789865700,6.79586572265625,0.0009311200119554996,-0.0014571752399206161,-0.0026312009431421757
1772618188799897900,6.80589794921875,-0.00008114753291010857,0.0010829474776983261,0.00003036228008568287
1772618188809929700,6.8159296875,0.0009860428981482983,-0.0005200854502618313,0.0017170830396935344
1772618188819961900,6.8259619140625,0.0027024499140679836,0.0006085624918341637,0.00018736324273049831
1772618188829992700,6.83599267578125,-0.0003327466547489166,0.0013196002691984177,-0.001519210054539144
1772618188840024800,6.84602490234375,-0.0007644454017281532,0.0011488916352391243,0.0008067948510870337
1772618188850057000,6.856056884765625,0.0004645800217986107,0.00035336799919605255,0.0023962808772921562
1772618188860088800,6.8660888671875,-0.0008763214573264122,-0.0014184331521391869,0.0012668344425037503
1772618188870120000,6.876119873046875,-0.002674669958651066,-0.0027248808182775974,0.0007496096659451723
1772618188880151800,6.88615185546875,0.0006992886774241924,-0.0010976893827319145,0.0023781326599419117
1772618188890184000,6.896183837890625,-0.0006181485950946808,-0.0013205567374825478,-0.00039489835035055876
1772618188900215800,6.9062158203125,0.0011227598879486322,-0.001793800387531519,-0.0004170025931671262
1772618188910247700,6.91624755859375,-0.0009140446782112122,0.0015012165531516075,-0.0016777433920651674
1772618188920278800,6.92627880859375,0.0012401861604303122,-0.0030751596204936504,0.000492732971906662
1772618188930310700,6.936310546875,0.0009305332787334919,-0.000872249249368906,-0.0011971340281888843
1772618188940342800,6.9463427734375,0.0033476180396974087,-0.002214216161519289,-0.00016009906539693475
1772618188950375000,6.956375,-0.0007230187766253948,-0.003487135050818324,0.0004203972639515996
1772618188960406800,6.96640673828125,-0.0003365944139659405,-0.00012436136603355408,-0.0027056210674345493
1772618188970438000,6.97643798828125,-0.00011893687769770622,-0.001306793186813593,0.001674496685154736
1772618188980470000,6.986469970703125,0.0004677572287619114,-0.0009336839430034161,0.0026484145782887936
1772618188990502000,6.996501953125,-0.0023225992918014526,-0.0013900678604841232,-0.001432866440154612
1772618189000533800,7.00653369140625,0.0012838533148169518,-0.00041375309228897095,-0.0014746780507266521
1772618189010565600,7.016565673828125,0.00022433605045080185,-0.0006139446049928665,-0.004229394719004631
1772618189020596700,7.0265966796875,-0.0017195050604641438,0.002006339840590954,-0.0004058940685354173
1772618189030628900,7.03662890625,0.0022013576235622168,-0.002918877638876438,0.0002980938879773021
1772618189040660700,7.04666064453125,-0.0010138768702745438,0.0010694721713662148,-0.0009727665456011891
1772618189050692900,7.05669287109375,-0.0017662551254034042,-0.0002526836469769478,0.002543262206017971
1772618189060723700,7.0667236328125,-0.0013662483543157578,-0.0003770533949136734,-0.001181967556476593
1772618189070755800,7.076755859375,-0.001278796698898077,-0.002130725886672735,-0.0024114197585731745
1772618189080788000,7.0867880859375,0.00196812953799963,-0.0041502006351947784,-0.0005461417022161186
1772618189090819800,7.09681982421875,0.003181513398885727,-0.0037784958258271217,0.0006634204182773829
1772618189100851700,7.106851806640625,-0.0011719558387994766,0.002467948477715254,-0.0013185041025280952
1772618189110882800,7.1168828125,-0.00031756050884723663,0.0007291981019079685,-0.0014072208432480693
1772618189120915000,7.1269150390625,-0.0026646042242646217,0.0016988557763397694,-0.0003637943300418556
1772618189130946800,7.13694677734375,-0.0008324319496750832,-0.00019205547869205475,0.00041898712515830994
1772618189140978700,7.146978759765625,-0.0004215063527226448,-0.00033373571932315826,-0.0025483067147433758
1772618189151010800,7.1570107421875,-0.0025244029238820076,-0.00011901790276169777,-0.002383813029155135
1772618189161041700,7.167041748046875,0.002174478257074952,-0.002000807784497738,0.0014527367893606424
1772618189171073800,7.17707373046875,-0.0029024919494986534,-0.0006995829753577709,0.0009909289656206965
1772618189181106000,7.18710595703125,-0.0010071205906569958,0.0006892555393278599,0.0028231837786734104
1772618189191137800,7.1971376953125,-0.001674814149737358,0.0017353147268295288,-0.003750007366761565
1772618189201169700,7.207169677734375,-0.0020615053363144398,0.0005249078385531902,-0.0021324034314602613
1772618189211200800,7.21720068359375,0.00012329593300819397,-0.0009062560275197029,-0.002393473871052265
1772618189221233000,7.22723291015625,-0.001492976676672697,0.001759568229317665,-0.0022581852972507477
1772618189231264800,7.2372646484375,0.0021519616711884737,-0.0005380036309361458,-0.00014856288908049464
1772618189241297000,7.247296875,-0.00017484230920672417,-0.0027841138653457165,-0.0004247326869517565
1772618189251327700,7.25732763671875,-0.00004231370985507965,-0.0007979916408658028,-0.0023415822070091963
1772618189261359900,7.26735986328125,0.002163848839700222,0.00027845799922943115,-0.0017500941175967455
1772618189271391700,7.277391845703125,0.0005186912603676319,0.0024138172157108784,0.0013166670687496662
1772618189281424000,7.287423828125,0.0006313426420092583,0.001472389791160822,0.002324673580005765
1772618189291455700,7.297455810546875,0.0012082005850970745,0.0006961766630411148,-0.0013731559738516808
1772618189301486800,7.30748681640625,-0.0008586789481341839,0.0007345257326960564,0.0010939964558929205
1772618189311519000,7.31751904296875,0.0016563849058002234,0.00004002312198281288,-0.0009597531752660871
1772618189321550800,7.32755078125,-0.0005447175353765488,-0.000015104655176401138,0.0022797160781919956
1772618189331582700,7.337582763671875,-0.00006088940426707268,-0.00244926568120718,-0.000038814032450318336
1772618189341614800,7.34761474609375,-0.0017448063008487225,0.001239212229847908,0.0019087555119767785
1772618189351646000,7.35764599609375,-0.00015841703861951828,-0.00046429457142949104,-0.0013777719577774405
1772618189361677800,7.367677734375,-0.0007301978766918182,0.0001807231456041336,-0.0021210601553320885
1772618189371709700,7.377709716796875,0.00004224991425871849,0.00040146196261048317,-0.0025534790474921465
1772618189381741800,7.387741943359375,0.003144033718854189,0.00046218233183026314,0.001122215879149735
1772618189391774000,7.39777392578125,0.0016283327713608742,0.0001940857619047165,0.001101701520383358
1772618189401804800,7.4078046875,-0.0008694459684193134,0.0012761284597218037,-0.0018125956412404776
1772618189411837000,7.4178369140625,0.0034634959883987904,-0.0020420034416019917,0.0007864355575293303
1772618189421868800,7.427868896484375,-0.0004747863858938217,0.0016390178352594376,0.0021688826382160187
1772618189431900700,7.437900634765625,0.000723026692867279,0.0005410420708358288,-0.0003123107017017901
1772618189441932800,7.447932861328125,-0.0008373195305466652,-0.000029406975954771042,0.0004160638200119138
1772618189451964000,7.4579638671875,-0.001859287265688181,-0.000314472708851099,-0.0005363690434023738
1772618189461995800,7.467995849609375,-0.001859020907431841,0.0003140335902571678,-0.0018687485717236996
1772618189472028000,7.47802783203125,0.0006518918089568615,0.0021441825665533543,0.002427887637168169
1772618189482059800,7.488059814453125,0.0018455206882208586,-0.0007291021756827831,0.0010997693752869964
1772618189492091000,7.4980908203125,0.0019713109359145164,-0.0017569735646247864,-0.0024935435503721237
1772618189502122800,7.508122802734375,-0.001627152319997549,0.000854256097227335,-0.0011656915303319693
1772618189512155000,7.51815478515625,-0.0013127364218235016,0.0017778202891349792,-0.0013058980694040656
1772618189522186800,7.528186767578125,-0.0019106161780655384,-0.0008150329813361168,-0.0022571790032088757
1772618189532219000,7.538218994140625,0.0009168288670480251,-0.0014239153824746609,-0.0024156123399734497
1772618189542250000,7.54825,-0.0004941136576235294,0.000276247039437294,0.0021751446183770895
1772618189552281900,7.55828173828125,0.002947331639006734,0.002335434313863516,0.00044108089059591293
1772618189562313700,7.568313720703125,0.0034072594717144966,-0.001917100977152586,0.0034368708729743958
1772618189572345900,7.578345947265625,0.00045990897342562675,0.0013508172705769539,-0.0005408019060268998
1772618189582378000,7.5883779296875,-0.0005028233863413334,-0.0017062253318727016,-0.00025344680761918426
1772618189592408800,7.598408935546875,-0.0003712293691933155,0.0007965001277625561,-0.00081476173363626
1772618189602441000,7.60844091796875,-0.0015792394988238811,-0.0009145806543529034,0.0002824605908244848
1772618189612472800,7.618472900390625,-0.00101831229403615,0.0006789411418139935,-0.0009880184661597013
1772618189622505000,7.6285048828125,-0.0006934064440429211,0.0003585629165172577,-0.0013600620441138744
1772618189632536800,7.638536865234375,-0.00019848579540848732,-0.0006013456732034683,-0.00178526621311903
1772618189642568000,7.64856787109375,0.00004625879228115082,-0.00124290119856596,-0.0005282542551867664
1772618189652599800,7.658599853515625,-0.0007210057228803635,-0.00020997598767280579,0.000191217171959579
1772618189662631700,7.668631591796875,-0.000009941868484020233,0.002373289782553911,-0.0012570098042488098
1772618189672663800,7.678663818359375,0.0006307722069323063,-0.0002077925018966198,0.0011468947632238269
1772618189682695000,7.68869482421875,-0.0007668547332286835,-0.0010877009481191635,-0.0003508671070449054
1772618189692726800,7.698726806640625,-0.0012672715820372105,-0.0012129554525017738,-0.0003970292746089399
1772618189702759000,7.708759033203125,-0.001607357058674097,0.0010174415074288845,-0.0011632207315415144
1772618189712790800,7.718790771484375,0.0005382061935961246,0.0016504707746207714,0.002768375212326646
1772618189722823000,7.728822998046875,-0.0011877883225679398,0.0008778874762356281,-0.0008708342211320996
1772618189732854000,7.73885400390625,-0.0010008360259234905,-0.0022901585325598717,0.0003516388824209571
1772618189742886700,7.74888671875,-0.0016234833747148514,0.001546657644212246,-0.0009277436183765531
1772618189752918500,7.75891845703125,0.0016060259658843279,0.00011841487139463425,-0.0005911223706789315
1772618189762950400,7.768950439453125,0.00028563058003783226,0.0016417433507740498,-0.000565822352655232
1772618189772982300,7.778982177734375,-0.0009438870474696159,0.0014859121292829514,-0.001587606966495514
1772618189783013400,7.789013427734375,0.0009046127088367939,-0.0008811051957309246,0.0013866114895790815
1772618189793045500,7.79904541015625,0.0006285929121077061,0.00003487430512905121,-0.0005851223249919713
1772618189803077400,7.809077392578125,-0.0004534497857093811,0.0005171727389097214,0.00038773042615503073
1772618189813109500,7.819109619140625,-0.00018264539539813995,-0.00093087088316679,0.0017451575258746743
1772618189823140400,7.829140380859375,0.0012868870981037617,0.0005650268867611885,-0.000004805508069694042
1772618189833172500,7.83917236328125,0.000570621807128191,-0.00039498740807175636,0.0022793328389525414
1772618189843204600,7.84920458984375,0.0015245662070810795,0.003216525074094534,-0.0028171585872769356
1772618189853236500,7.859236572265625,-0.00023551331833004951,-0.0014968300238251686,-0.0006375343073159456
1772618189863268400,7.869268310546875,-0.0023620477877557278,0.00245157303288579,-0.0003674897598102689
1772618189873299500,7.879299560546875,-0.0005035591311752796,0.0001278640702366829,0.00003918760921806097
1772618189883331600,7.88933154296875,-0.000010075513273477554,0.000384326558560133,-0.00004789780359715223
1772618189893363500,7.899363525390625,-0.00036549707874655724,0.0008374364115297794,-0.00041537778452038765
1772618189903395300,7.909395263671875,-0.001711991149932146,0.0008129351772367954,-0.003954985179007053
1772618189913427500,7.919427490234375,0.0015469433274120092,0.0013989456929266453,0.0008241987088695168
1772618189923458300,7.929458251953125,0.0012401470448821783,-0.00040135160088539124,0.001877478905953467
1772618189933490400,7.939490478515625,0.000908000860363245,-0.00046792393550276756,-0.0017600918654352427
1772618189943522600,7.9495224609375,0.0008475468493998051,-0.00002610543742775917,-0.0006295799394138157
1772618189953554400,7.959554443359375,-0.0008598910644650459,-0.0007752999663352966,-0.00010960758663713932
1772618189963585300,7.969585205078125,-0.00012991903349757195,-0.002248294185847044,-0.001149571966379881
1772618189973617700,7.97961767578125,0.0004517538473010063,0.0004634070210158825,0.0008915833896026015
1772618189983649500,7.9896494140625,-0.0001735561527311802,0.0006570187397301197,-0.0009963314514607191
1772618189993681400,7.999681396484375,-0.0005556177347898483,0.0000769980251789093,-0.001631587976589799
1772618190003713300,8.00971337890625,0.002598363906145096,-0.0008793431334197521,-0.0005809708964079618
1772618190013744400,8.019744384765625,0.0014625818002969027,-0.001534332986921072,-0.000046839239075779915
1772618190023776500,8.029776611328124,-0.0015803459100425243,0.0029533598572015762,0.000012815580703318119
1772618190033808400,8.039808349609375,0.00044765323400497437,-0.0011130920611321926,-0.001269435160793364
1772618190043840500,8.049840576171874,-0.0002391762100160122,-0.00030402373522520065,-0.0011690340470522642
1772618190053872400,8.059872314453125,0.0006740186363458633,-0.0019022440537810326,0.00002068839967250824
1772618190063903500,8.069903564453124,-0.00022826017811894417,-0.0005733268335461617,0.0009296252392232418
1772618190073935600,8.079935546875,-0.0016628247685730457,-0.000871188472956419,-0.00013196084182709455
1772618190083967500,8.089967529296874,0.00008847005665302277,0.0009331032633781433,-0.00046192650916054845
1772618190093999400,8.099999267578125,0.00016466015949845314,0.00034839101135730743,0.0018277635099366307
1772618190104031500,8.110031494140625,0.000009397976100444794,-0.0001578759402036667,0.002609135117381811
1772618190114062600,8.1200625,0.0013319733552634716,0.00016954494640231133,-0.0017519263783469796
1772618190124094500,8.130094482421875,0.0005306280218064785,0.0006696865893900394,0.0012505212798714638
1772618190134126300,8.140126220703126,-0.00046041514724493027,0.0012644026428461075,0.0016813393449410796
1772618190144158500,8.150158447265625,-0.0019957274198532104,-0.00013721920549869537,-0.0025754570960998535
1772618190154189300,8.160189208984375,-0.0005534309893846512,0.0009088288061320782,-0.00148968945723027
1772618190164221400,8.170221435546875,-0.0013539772480726242,0.0005586235783994198,-0.0014532040804624557
1772618190174253600,8.180253662109376,-0.0017025046981871128,-0.0006787022575736046,-0.0013122014934197068
1772618190184285400,8.190285400390625,0.0006490661762654781,-0.0013743196614086628,-0.0013015487929806113
1772618190194317300,8.2003173828125,-0.0005403459072113037,0.002631979063153267,-0.002514089923352003
1772618190204348700,8.2103486328125,0.0002700542099773884,-0.00021387450397014618,0.0002500048140063882
1772618190214380500,8.220380615234374,0.00022777682170271873,0.00023992685601115227,0.00204004836268723
1772618190224412400,8.230412353515625,0.0005649328231811523,0.001336083747446537,0.0011681292671710253
1772618190234444300,8.2404443359375,-0.0006419210694730282,0.0008266475051641464,-0.0015626888489350677
1772618190244476700,8.2504765625,-0.0017588506452739239,0.0013219951651990414,-0.0037344968877732754
1772618190254507500,8.260507568359374,-0.0016674995422363281,0.0025076656602323055,-0.00035540969111025333
1772618190264539400,8.270539306640625,-0.0006507048383355141,0.0017606490291655064,0.000010242336429655552
1772618190274571500,8.280571533203124,0.0002250433899462223,0.002930128015577793,-0.00007593352347612381
1772618190284603400,8.290603271484375,-0.00018801307305693626,-0.0010997666977345943,-0.0004256066167727113
1772618190294635500,8.300635498046875,0.000982129480689764,-0.0002847840078175068,0.0010763062164187431
1772618190304666600,8.31066650390625,-0.0004386669024825096,0.001360516995191574,-0.00039082911098375916
1772618190314698500,8.320698486328125,0.00029461970552802086,-0.0021969638764858246,-0.001891457475721836
1772618190324730400,8.33073046875,0.0008877054788172245,-0.0017173285596072674,0.003195446450263262
1772618190334762500,8.340762451171875,-0.0018205824308097363,0.0017366139218211174,0.0008682569023221731
1772618190344793600,8.350793701171876,0.004023724235594273,-0.0007816711440682411,0.0034134399611502886
1772618190354825500,8.360825439453125,-0.00044330162927508354,-0.0012866049073636532,-0.0014093455392867327
1772618190364857300,8.370857421875,0.00014925142750144005,-0.0010967212729156017,0.0007749791257083416
1772618190374889500,8.380889404296875,0.0013230026233941317,-0.0005207443609833717,-0.0006205865647643805
1772618190384921600,8.390921630859374,0.0011443046387284994,0.0006129634566605091,0.00028302392456680536
1772618190394952400,8.400952392578125,-0.001771649345755577,-0.0025124158710241318,0.0009601416531950235
1772618190404984600,8.410984619140624,-0.0007721651345491409,0.002314829733222723,0.0017247351352125406
1772618190415016400,8.421016357421875,0.0015392450150102377,-0.0009015775285661221,-0.0006713246693834662
1772618190425048300,8.43104833984375,-0.0008267075754702091,-0.0007279394194483757,0.0021066186018288136
1772618190435079700,8.44107958984375,-0.0005340902134776115,0.0015483438037335873,0.00030951073858886957
1772618190445111600,8.451111572265624,0.0017514345236122608,-0.000572065357118845,-0.0002441605320200324
1772618190455143400,8.461143310546875,-0.0006036097183823586,0.003704947419464588,-0.0010353539837524295
1772618190465175300,8.47117529296875,0.001641967799514532,0.0008564302697777748,0.00234259944409132
1772618190475207700,8.481207763671875,-0.00044187111780047417,-0.0006354316137731075,0.0023291115649044514
1772618190485238500,8.491238525390624,0.0034522032365202904,-0.0008974866941571236,-0.0024581868201494217
1772618190495270400,8.5012705078125,-0.00046354392543435097,0.0014345869421958923,0.0010822192998602986
1772618190505302500,8.511302490234375,-0.0012411866337060928,0.0006596073508262634,-0.00173460622318089
1772618190515334400,8.52133447265625,-0.0006304881535470486,-0.0021496890112757683,-0.00025130470748990774
1772618190525366500,8.531366455078125,0.0005628741346299648,0.002267163712531328,0.002080825623124838
1772618190535397600,8.541397705078126,-0.00000506080687046051,0.001305281650274992,-0.001094816718250513
1772618190545429500,8.551429443359375,-0.0002974756062030792,-0.0003298991359770298,0.0016341244336217642
1772618190555461400,8.56146142578125,-0.0009655109606683254,-0.0005625714547932148,-0.0012450426584109664
1772618190565493200,8.5714931640625,-0.0015149209648370743,-0.00047442084178328514,-0.0017987138126045465
1772618190575524600,8.581524658203126,0.002068993868306279,0.000195434782654047,-0.0024868063628673553
1772618190585556500,8.591556396484375,-0.003114582970738411,0.002059381455183029,-0.0013837250880897045
1772618190595588400,8.60158837890625,0.0004888419061899185,0.0007863342761993408,-0.000874023768119514
1772618190605620500,8.611620361328125,-0.0007364782504737377,-0.0009250128641724586,0.0017643698956817389
1772618190615652600,8.621652587890624,0.0007269596680998802,-0.002190613653510809,0.0003072365652769804
1772618190625683500,8.631683349609375,-0.0005761249922215939,-0.001430547796189785,-0.0013191559119150043
1772618190635715600,8.641715576171874,0.0007184897549450397,-0.0009824815206229687,-0.0006537829176522791
1772618190645747500,8.65174755859375,-0.0006418526172637939,-0.0007286821492016315,0.00014170329086482525
1772618190655779300,8.661779296875,0.001548820175230503,-0.0009952206164598465,-0.0004947449779137969
1772618190665811500,8.6718115234375,0.002133916597813368,0.0012570149265229702,0.002873354824259877
1772618190675842600,8.681842529296874,0.0010232492350041866,-0.0005720010958611965,-0.0023456476628780365
1772618190685874400,8.69187451171875,-0.0013949009589850903,0.0010682400315999985,-0.0021533675026148558
1772618190695906300,8.70190625,-0.0008973567746579647,0.000022653955966234207,-0.0004025539383292198
1772618190705938400,8.7119384765625,0.002126396168023348,0.0007057548500597477,0.0028861835598945618
1772618190715969500,8.721969482421875,-0.000779131893068552,-0.0023345905356109142,0.0003049697261303663
1772618190726001400,8.73200146484375,0.0009710974991321564,-0.0005255052819848061,-0.0018569844542071223
1772618190736033500,8.742033447265625,0.0002869553864002228,0.0020936811342835426,-0.0016600405797362328
1772618190746066000,8.75206591796875,-0.003948802128434181,0.0023163212463259697,-0.001125810551457107
1772618190756097800,8.762097900390625,0.0003427439369261265,-0.001878049224615097,-0.000045730266720056534
1772618190766129000,8.77212890625,-0.00009188428521156311,-0.001588829793035984,0.00020354159642010927
1772618190776160800,8.782160888671875,-0.0015049725770950317,0.0006107734516263008,0.00039972271770238876
1772618190786192600,8.792192626953126,-0.0005097491666674614,0.0018898900598287582,-0.00123252859339118
1772618190796224800,8.802224853515625,-0.0006437720730900764,0.003578886855393648,0.0015186074888333678
1772618190806257000,8.8122568359375,-0.0005550887435674667,0.0010310406796634197,-0.004062046762555838
1772618190816287700,8.822287841796875,0.0001733102835714817,-0.000708211213350296,0.0009964080527424812
1772618190826319600,8.832319580078124,-0.0004791640676558018,0.0009924829937517643,0.0006712361937388778
1772618190836351700,8.842351806640625,0.001690917881205678,0.00022868532687425613,0.0006356979720294476
1772618190846383900,8.8523837890625,-0.0019485577940940857,0.003012221772223711,-0.0015065488405525684
1772618190856414700,8.862414794921875,0.0010696938261389732,0.000049033667892217636,-0.003599493531510234
1772618190866446800,8.87244677734375,-0.001842206809669733,0.0015286863781511784,-0.0006660216604359448
1772618190876478700,8.882478759765625,0.001296833623200655,-0.0003101155161857605,0.0002885602880269289
1772618190886510800,8.8925107421875,-0.0007601920515298843,0.00046832626685500145,-0.000018502119928598404
1772618190896542700,8.902542724609376,-0.002044611144810915,0.0006796438246965408,-0.00007977010682225227
1772618190906573800,8.91257373046875,0.0011775472667068243,-0.00014673499390482903,-0.0003801747225224972
1772618190916605700,8.922605712890626,-0.0025553270243108273,-0.0007133535109460354,-0.0005954357911832631
1772618190926637600,8.932637451171875,0.0008194306865334511,-0.0004323902539908886,-0.00044416822493076324
1772618190936670000,8.942669921875,-0.002794046886265278,-0.0019113249145448208,-0.00015571818221360445
1772618190946700800,8.95270068359375,-0.0018499563448131084,0.0017691636458039284,0.000069052679464221
1772618190956732700,8.962732666015626,0.00016213161870837212,-0.00096912682056427,0.0020635761320590973
1772618190966764800,8.972764892578125,-0.0006293598562479019,0.00006897328421473503,0.0007173481862992048
1772618190976797000,8.982796875,-0.0003058747388422489,-0.0011053867638111115,-0.0015284140827134252
1772618190986828800,8.992828857421875,-0.0014132168143987656,0.00040249479934573174,0.00018905848264694214
1772618190996860000,9.00285986328125,-0.0008398443460464478,-0.0006912238895893097,-0.0016930790152400732
1772618191006891800,9.012891845703125,-0.000040629878640174866,0.0015903059393167496,-0.002369788009673357
1772618191016923600,9.022923583984374,-0.0007376065477728844,-0.0007247212342917919,-0.0005903074634261429
1772618191026955800,9.032955810546875,0.00016174325719475746,0.0010817013680934906,-0.003954146057367325
1772618191036988000,9.04298779296875,0.0014520701952278614,-0.0014366568066179752,0.0014708117814734578
1772618191047018800,9.053018798828125,-0.0014880597591400146,0.0011916174553334713,0.0023781508207321167
1772618191057050600,9.063050537109374,0.00018090475350618362,-0.002421635203063488,0.0023702760227024555
1772618191067082800,9.073082763671875,0.000933248084038496,-0.0004176064394414425,-0.002663365099579096
1772618191077115000,9.083114990234375,-0.00021109869703650475,0.0015378845855593681,0.001504457788541913
1772618191087145700,9.093145751953125,-0.0003490503877401352,0.0006023161113262177,0.0008767505642026663
1772618191097177900,9.103177734375,-0.00015294039621949196,0.001442663837224245,-0.0002916237572208047
1772618191107209700,9.113209716796876,0.0008300323970615864,0.0003923135809600353,0.003434404730796814
1772618191117241900,9.123241943359375,-0.0016266293823719025,0.00010403245687484741,-0.0009854570962488651
1772618191127273700,9.133273681640626,0.00007193442434072495,-0.0022968072444200516,0.0033445763401687145
1772618191137304800,9.143304931640625,0.00019907299429178238,0.0014593503437936306,-0.0012707486748695374
1772618191147336700,9.153336669921876,-0.0006057345308363438,-0.001238431315869093,0.00044725649058818817
1772618191157368600,9.16336865234375,-0.0017615016549825668,-0.00047225505113601685,-0.0006199033232405782
1772618191167401000,9.17340087890625,-0.0017649638466536999,-0.0012842528522014618,0.0013369874795898795
1772618191177432800,9.183432861328125,-0.0016508162952959538,0.0005426593124866486,0.002396560739725828
1772618191187463700,9.193463623046876,0.0006341761909425259,0.0005027120932936668,-0.0009417114779353142
1772618191197495800,9.203495849609375,-0.001243453472852707,0.00007038796320557594,0.0013836008729413152
1772618191207527700,9.213527587890624,0.0020759105682373047,-0.0012175170704722404,-0.0013975383481010795
1772618191217559800,9.223559814453125,0.00041262852028012276,-0.0010287892073392868,0.00011739484034478664
1772618191227591000,9.2335908203125,0.0011977283284068108,0.00027003418654203415,-0.001018443377688527
1772618191237622800,9.243622802734375,0.0027393829077482224,-0.0013981410302221775,0.0018092440441250801
1772618191247654700,9.253654541015624,0.0005201706662774086,0.00046047894284129143,-0.0010126413544639945
1772618191257686800,9.263686767578125,-0.00040753744542598724,0.0002299831248819828,-0.0014952108031138778
1772618191267719000,9.273718994140625,-0.00206215912476182,-0.000056306831538677216,-0.000005704816430807114
1772618191277749800,9.283749755859375,-0.0016488460823893547,0.0019513480365276337,0.000035542063415050507
1772618191287781600,9.29378173828125,0.000542136374861002,-0.0006345808506011963,-0.0005333091830834746
1772618191297813800,9.303813720703126,0.0004780529998242855,-0.0022084293887019157,0.0006017152918502688
1772618191307846000,9.313845947265625,-0.0012388871982693672,0.0024198777973651886,-0.00028591632144525647
1772618191317876700,9.323876708984375,-0.0008423025719821453,0.0016769003123044968,-0.0006769088795408607
1772618191327908900,9.333908935546875,-0.00047505227848887444,0.001070764847099781,0.0033340780064463615
1772618191337940700,9.343940673828126,-0.00010868813842535019,-0.000612176489084959,0.00016133568715304136
1772618191347972600,9.35397265625,0.0005781413055956364,-0.0005439994856715202,0.00037465489003807306
1772618191358004700,9.364004638671876,-0.0006863302551209927,-0.0001530218869447708,-0.0011134832166135311
1772618191368035800,9.374035888671875,0.0019848202355206013,-0.000029717572033405304,0.0009262318490073085
1772618191378067700,9.384067626953126,-0.0006895312108099461,0.00032331934198737144,-0.00039483531145378947
1772618191388099600,9.394099609375,-0.002921260427683592,0.0020059039816260338,-0.0034385621547698975
1772618191398132000,9.404132080078124,-0.000546041876077652,-0.0011681788600981236,0.002281313296407461
1772618191408163800,9.414163818359375,0.0005591697990894318,0.00039775995537638664,-0.0036058705300092697
1772618191418194700,9.424194580078124,-0.0011950638145208359,0.0016180435195565224,0.0012753389310091734
1772618191428226800,9.434226806640625,-0.0006946558132767677,-0.0007146196439862251,0.001380267320200801
1772618191438258700,9.4442587890625,0.00006972858682274818,-0.001889535691589117,-0.0026210329961031675
1772618191448290800,9.454290771484375,0.002012238372117281,-0.0006594215519726276,-0.0008787930128164589
1772618191458322000,9.464322021484374,0.0013179127126932144,0.0003697718493640423,-0.0014222967438399792
1772618191468353800,9.474353759765625,-0.00069410540163517,-0.002165290992707014,0.0017742955824360251
1772618191478385700,9.4843857421875,-0.0003956099972128868,-0.0005917074158787727,-0.0002579140127636492
1772618191488417800,9.494417724609375,0.00009308010339736938,-0.0009728055447340012,-0.002006812021136284
1772618191498450000,9.504449951171875,-0.001057470217347145,0.001044785138219595,-0.0004895043675787747
1772618191508480800,9.514480712890625,0.0016155443154275417,-0.0016356860287487507,0.0006058537401258945
1772618191518512600,9.5245126953125,-0.003953624051064253,0.0011154208332300186,-0.0005038231029175222
1772618191528544800,9.534544677734376,-0.0012963218614459038,0.0007678782567381859,-0.0019416637951508164
1772618191538577000,9.544576904296875,-0.0022268672473728657,-0.0022416263818740845,0.001645163632929325
1772618191548608800,9.55460888671875,-0.0017970330081880093,0.0014662928879261017,0.0007854953873902559
1772618191558639900,9.564639892578125,0.0017653198447078466,-0.001384844072163105,0.0014238288858905435
1772618191568671700,9.574671630859376,-0.00015029218047857285,-0.0011970908381044865,0.0014374108286574483
1772618191578703600,9.58470361328125,-0.0013300799764692783,-0.00020405510440468788,0.00019815063569694757
1772618191588735700,9.59473583984375,-0.0018603154458105564,-0.0012711836025118828,0.0010698033729568124
1772618191598766800,9.604766845703125,0.0007961741648614407,-0.0021262336522340775,0.0003722632536664605
1772618191608798700,9.614798828125,0.0016622340772300959,0.0003443812020123005,-0.0006554506253451109
1772618191618830600,9.62483056640625,-0.0003560897894203663,0.000021286774426698685,-0.0006557358428835869
1772618191628863000,9.634863037109374,-0.00146076874807477,0.0017052036710083485,-0.0007595990900881588
1772618191638894800,9.644894775390625,0.0007789819501340389,-0.00024118972942233086,-0.0001151722390204668
1772618191648925700,9.65492578125,-0.000051924027502536774,-0.0006217551417648792,0.0010733966482803226
1772618191658957800,9.664957763671875,0.0015038195997476578,-0.001225755549967289,-0.00043156708125025034
1772618191668989700,9.67498974609375,-0.00003495486453175545,0.000591052696108818,-0.0005050703184679151
1772618191679021800,9.685021728515625,0.0006050732918083668,-0.00032365787774324417,0.000442607793956995
1772618191689053000,9.695052978515625,0.0007395627908408642,-0.002515439409762621,0.002500698668882251
1772618191699084800,9.705084716796875,0.0020356972236186266,-0.002158795017749071,0.0024035312235355377
1772618191709116700,9.71511669921875,0.0019201161339879036,-0.0011068466119468212,-0.001820242265239358
1772618191719148500,9.7251484375,-0.0006882995367050171,-0.0003686170093715191,0.0004359966842457652
1772618191729180000,9.735179931640625,-0.0014270604588091373,0.0014231582172214985,-0.003753688419237733
1772618191739211800,9.745211669921876,-0.00005543883889913559,-0.00008246023207902908,0.0002938443794846535
1772618191749243100,9.7552431640625,-0.000430411659181118,-0.0013309502974152565,-0.001715510617941618
1772618191759275000,9.76527490234375,0.0014385716058313847,-0.0013363095931708813,0.0006754399510100484
1772618191769307000,9.775306884765625,0.0016622771508991718,-0.00018475856631994247,-0.000661466910969466
1772618191779338000,9.785337890625,-0.0002617156133055687,0.0007638027891516685,0.0007168283918872476
1772618191789370000,9.7953701171875,-0.001226845197379589,-0.0010796375572681427,0.0009687633719295263
1772618191799402000,9.805402099609376,-0.0004417281597852707,0.0006014341488480568,-0.001417595543898642
1772618191809433900,9.815433837890625,-0.0006342749111354351,0.0015559103339910507,-0.0022048261016607285
1772618191819465000,9.82546484375,0.001083312090486288,-0.0017953789792954922,-0.0010804826160892844
1772618191829496800,9.835496826171875,0.0010404353961348534,-0.0008954969234764576,0.00047293922398239374
1772618191839529000,9.845529052734374,-0.0007025282829999924,-0.0006774859502911568,0.00012689363211393356
1772618191849561000,9.85556103515625,-0.00009452877566218376,0.0006591547280550003,0.0012664604000747204
1772618191859593000,9.865593017578124,-0.0011914377100765705,0.0016875844448804855,0.001002962002530694
1772618191869623800,9.875623779296875,0.0004368191584944725,-0.0023199403658509254,-0.0016165231354534626
1772618191879656000,9.885656005859374,-0.00036401813849806786,-0.001515472773462534,0.0009320416720584035
1772618191889688000,9.89568798828125,0.0006493148393929005,-0.0006408905610442162,0.004024770576506853
1772618191899720000,9.905719970703124,-0.0010784817859530449,0.0015754960477352142,-0.0009322793921455741
1772618191909751800,9.915751708984375,-0.001869973260909319,0.0009544473141431808,-0.0005487842136062682
1772618191919783000,9.925782958984374,0.0007280027493834496,-0.0012208609841763973,-0.00044325971975922585
1772618191929815000,9.93581494140625,0.0008806018158793449,-0.0009886333718895912,-0.0009074487024918199
1772618191939847000,9.945846923828125,-0.003170378040522337,-0.0003913058899343014,0.0017580639105290174
1772618191949879000,9.955879150390626,0.0004978603683412075,-0.0012959814630448818,-0.0011013721814379096
1772618191959910000,9.965909912109375,-0.0009005563333630562,-0.0008395020850002766,0.000441325013525784
1772618191969941800,9.975941650390626,-0.0027554482221603394,0.0005192426033318043,0.0011840807273983955
1772618191979974100,9.98597412109375,-0.000977777410298586,0.0006455923430621624,-0.0015706894919276237
1772618191990006000,9.996006103515626,-0.00005579087883234024,0.0011377441696822643,-0.003315592650324106
1772618192000038000,10.006037841796875,0.00141429272480309,0.0008278717286884785,0.0013640542747452855
1772618192010069000,10.016069091796876,-0.0011495323851704597,-0.0006086374633014202,-0.00007192220073193312
1772618192020101000,10.02610107421875,-0.0012723044492304325,0.002155258320271969,0.0023864097893238068
1772618192030133000,10.036133056640624,0.0004323851317167282,-0.0003579664044082165,-0.0013875558506697416
1772618192040164900,10.046164794921875,-0.0008722827769815922,0.0008817077614367008,-0.00037493620766326785
1772618192050196000,10.056196044921874,-0.0003266008570790291,-0.0014128717593848705,0.00027274456806480885
1772618192060227800,10.066227783203125,0.0019751889631152153,-0.0009123580530285835,-0.0013271699426695704
1772618192070260000,10.076260009765624,0.0002718311734497547,-0.00010062661021947861,0.0022190953604876995
1772618192080292000,10.0862919921875,-0.0016833399422466755,-0.00035126134753227234,-0.0006355206132866442
1772618192090324000,10.096323974609374,-0.0006249994039535522,-0.0004047909751534462,-0.002594275400042534
1772618192100354800,10.106354736328125,-0.0016821674071252346,0.002627507783472538,-0.00027704855892807245
1772618192110387000,10.116386962890624,-0.000778556801378727,0.001905791461467743,-0.0009620135533623397
1772618192120419000,10.126419189453125,-0.00005616340786218643,0.001496120821684599,-0.0012426261091604829
1772618192130451000,10.136450927734375,0.001133470330387354,0.0018559140153229237,-0.00012143526691943407
1772618192140482000,10.14648193359375,-0.0002872403711080551,-0.0012814048677682877,-0.0007716718828305602
1772618192150514000,10.156513916015625,0.002112001646310091,-0.0016318769194185734,0.0005058464594185352
1772618192160546000,10.166546142578126,-0.0018926807679235935,0.00017249397933483124,-0.0007488674018532038
1772618192170578000,10.176577880859375,0.0008570333011448383,0.0006521288305521011,-0.0004197006346657872
1772618192180610000,10.186610107421876,-0.0020670071244239807,-0.0008853632025420666,0.0001786502543836832
1772618192190641000,10.196640869140625,-0.0005335593596100807,0.0009729908779263496,0.0001237891847267747
1772618192200672800,10.2066728515625,0.0008300025947391987,0.00024235574528574944,-0.00016557343769818544
1772618192210705200,10.216705078125,-0.00016308994963765144,0.0017856573686003685,0.0020648238714784384
1772618192220737000,10.226737060546874,-0.002335452940315008,-0.0005653076805174351,0.001236572046764195
1772618192230767900,10.236767822265625,0.0007665972225368023,0.001642187125980854,0.0016184694832190871
1772618192240800000,10.246800048828124,-0.0012702844105660915,-0.000616081990301609,-0.00023579609114676714
1772618192250832000,10.256831787109375,0.00040963757783174515,0.0013669072650372982,-0.0033431723713874817
1772618192260864000,10.266864013671874,-0.0006151655688881874,0.0010113241150975227,-0.00004061008803546429
1772618192270895900,10.276895751953125,-0.00034964829683303833,0.0011556679382920265,-0.00047949899453669786
1772618192280927000,10.286927001953124,0.0017346483655273914,0.0004185140132904053,-0.0001402443740516901
1772618192290958800,10.296958740234375,0.0018331853207200766,0.00037963176146149635,-0.0014712922275066376
1772618192300991000,10.306990966796874,-0.0015502613969147205,-0.0011455975472927094,0.001894896267913282
1772618192311023000,10.317023193359375,-0.0004804697819054127,0.0010440540499985218,0.002087442670017481
1772618192321054000,10.327053955078124,0.00023801112547516823,0.00023258524015545845,0.0022382496390491724
1772618192331085800,10.3370859375,-0.0003761136904358864,-0.000912840012460947,-0.0005271768313832581
1772618192341118000,10.347117919921875,-0.0019623413681983948,-0.00048052938655018806,-0.0010215395595878363
1772618192351150000,10.357150146484376,-0.00017030024901032448,0.0009626378305256367,0.0007710341596975923
1772618192361182000,10.367181884765625,-0.0011443658731877804,-0.0008384170942008495,0.0007381605682894588
1772618192371213000,10.377213134765626,-0.001777132973074913,0.002233272884041071,0.000032422831282019615
1772618192381245000,10.387244873046875,-0.0026817480102181435,0.0002627978101372719,-0.004858617205172777
1772618192391277000,10.397277099609376,0.0018259184435009956,0.0012241993099451065,0.0010951455915346742
1772618192401309000,10.407308837890625,0.0018570690881460905,-0.0009061107411980629,0.0022888625971972942
1772618192411341000,10.417341064453124,0.0010197712108492851,0.0005817972123622894,0.0005908309249207377
1772618192421372000,10.427371826171875,-0.001817316748201847,0.0005423915572464466,-0.0008049178286455572
1772618192431403800,10.43740380859375,-0.0005962573923170567,0.0005855350755155087,0.0015602356288582087
1772618192441436200,10.447436279296875,0.00022014928981661797,-0.0003898800350725651,0.0011198559077456594
1772618192451468000,10.457468017578124,0.001374096842482686,0.00003303028643131256,-0.0004854974686168134
1772618192461499000,10.467498779296875,0.0010185868013650179,0.00001931656152009964,-0.0010880983900278807
1772618192471531000,10.477531005859374,0.000873444601893425,-0.0023913769982755184,-0.0015996915753930807
1772618192481563000,10.48756298828125,0.0006728582084178925,0.00039723003283143044,0.0011020617093890905
1772618192491595000,10.497594970703124,-0.002061941660940647,0.0013778056018054485,-0.0019640354439616203
1772618192501627000,10.507626953125,0.0021234264131635427,-0.001024095807224512,-0.0005473355413414538
1772618192511658000,10.517657958984374,0.0018813451752066612,0.000558887142688036,-0.0014690556563436985
1772618192521689900,10.52768994140625,0.0005300412885844707,-0.0013743191957473755,0.0023019365034997463
1772618192531722000,10.537721923828125,-0.0023762662895023823,0.000998025294393301,-0.0034464970231056213
1772618192541754000,10.547754150390626,-0.0006397776305675507,0.0013436959125101566,-0.0015981063479557633
1772618192551785000,10.557784912109375,-0.0011364570818841457,-0.0002717776224017143,-0.00226629339158535
1772618192561816800,10.56781689453125,-0.00009759748354554176,0.00038298266008496284,-0.0007198645616881549
1772618192571849000,10.577848876953125,-0.0012222505174577236,-0.00098854536190629,0.0019291816279292107
1772618192581881000,10.587881103515626,-0.0011258036829531193,0.0006522480398416519,0.0024194582365453243
1772618192591912000,10.597911865234375,0.0004521193914115429,-0.0013624327257275581,-0.0005473031778819859
1772618192601944000,10.607944091796876,0.00017471658065915108,0.00019328435882925987,-0.00021439464762806892
1772618192611976000,10.617975830078125,0.0008820518851280212,0.001231917180120945,-0.000803752220235765
1772618192622007800,10.6280078125,0.000029670540243387222,-0.00013831676915287971,0.0007613785564899445
1772618192632040000,10.6380400390625,-0.0008353241719305515,-0.0012421971186995506,-0.002634684555232525
1772618192642071000,10.648071044921876,-0.0009166109375655651,0.0017615589313209057,-0.004793379921466112
1772618192652103000,10.65810302734375,-0.0018212865106761456,-0.001242486760020256,-0.000924339285120368
1772618192662134800,10.668134765625,-0.00212140753865242,-0.000027651898562908173,0.0009404406882822514
1772618192672167200,10.678167236328125,0.0015897075645625591,-0.0000849100761115551,-0.000625498010776937
1772618192682198000,10.688197998046874,-0.018733233213424683,0.7809297442436218,0.11357223987579346
1772618192692230000,10.69822998046875,0.006961212493479252,-0.5625002384185791,-0.07949069887399673
1772618192702262000,10.708261962890624,0.0021743772085756063,-0.12325392663478851,-0.031008074060082436
1772618192712294000,10.7182939453125,-0.001610507257282734,0.04712953418493271,0.017259590327739716
1772618192722326000,10.728325927734375,0.0001334911212325096,-0.056902650743722916,-0.017528582364320755
1772618192732357000,10.738357177734375,0.0009907623752951622,-0.050468187779188156,-0.012061111629009247
1772618192742389000,10.748388916015625,0.0003809044137597084,-0.023503471165895462,-0.006708994507789612
1772618192752420900,10.7584208984375,-0.0017855768091976643,0.009164460003376007,-0.0013661605771631002
