time,seconds_elapsed,z,y,x
1772785847946805500,0.052805419921875,0.18936872564554214,-0.40874709736853837,-0.030205237148213198
1772785847956821500,0.062821533203125,0.16027356406450272,-0.07837123366445302,0.09612529147923923
1772785847966836500,0.07283642578125,0.09588263269662857,0.24287761299312113,0.18829077594941482
1772785847976852500,0.0828525390625,0.006823708540201187,0.4060400303669274,0.313598222306557
1772785847986868500,0.092868408203125,-0.0881260272204876,0.551172577792406,0.4307248646924272
1772785847996883500,0.102883544921875,-0.17602935160100458,0.5535695559315383,0.5177807784633711
1772785848006899700,0.112899658203125,-0.11556757637560366,0.4627693410657346,0.5953670357625931
1772785848016915500,0.12291552734375,0.05686287395060062,0.3354981751538813,0.526207319090329
1772785848026931500,0.132931396484375,0.2845966938257217,0.23828414772301912,0.4302044940801337
1772785848036946400,0.142946533203125,0.38021629167199134,0.0450466178201139,0.3409186658326536
1772785848046962400,0.15296240234375,0.36655192345678805,-0.06989829661250115,0.2555583587321453
1772785848056978400,0.162978515625,0.2780769366681576,-0.0614965251006186,0.2143666993071325
1772785848066993400,0.172993408203125,0.04254442574083805,-0.20921587414890527,0.036807644787663595
1772785848077009400,0.183009521484375,-0.030296354064345356,0.0673380907356739,-0.15306898471424354
1772785848087025400,0.193025390625,-0.021700959676504133,0.29646468014344574,-0.2574769605034962
1772785848097041700,0.203041748046875,0.08814356287717819,0.287219297414273,-0.32183749673310663
1772785848107056400,0.213056396484375,0.3471218313217163,0.1594559640713036,-0.3026856552838348
1772785848117072600,0.22307275390625,0.5141875397443771,-0.09670257077738642,-0.37481501715034243
1772785848127088600,0.233088623046875,0.38251112461090087,-0.48010479900911446,-0.5080922185439616
1772785848137103600,0.243103515625,0.16985212427079677,-0.7948096308507024,-0.5548939364030957
1772785848147119600,0.25311962890625,0.19383856453597545,-0.8237306049086153,-0.5203392673071473
1772785848157135400,0.26313525390625,0.11461539021730423,-0.7765092733979224,-0.5574141025304794
1772785848167151400,0.2731513671875,-0.012644962039589881,-0.5455249272942543,-0.4773680675216019
1772785848177166300,0.283166259765625,0.12038929744362831,-0.22968816881328818,-0.24359935139641165
1772785848187182300,0.293182373046875,0.4089163164556026,0.14834391068741679,-0.11402177170570939
1772785848197198300,0.3031982421875,0.6843015298217534,0.7343231595754623,0.14442191493809223
1772785848207213600,0.313213623046875,0.7711170589655637,0.9293760683372616,0.3910959245394915
1772785848217229600,0.3232294921875,0.8239403021365403,1.066117950166762,0.39964733365513383
1772785848227245600,0.33324560546875,0.6146241824835539,1.0242989160910247,0.34566217056531456
1772785848237260500,0.343260498046875,0.25829788496494294,0.6352136737868189,0.1783288241824135
1772785848247276500,0.353276611328125,-0.06143208156228065,0.2126386882044375,-0.03799890953199938
1772785848257292800,0.363292724609375,-0.21186288152635097,-0.10476605024561285,-0.10051069435607642
1772785848267308800,0.373308837890625,-0.24796061534583566,-0.2548554894261062,-0.12219674872439354
1772785848277323800,0.38332373046875,-0.22893851948976515,-0.25841698129996654,-0.1429474584713578
1772785848287339800,0.39333984375,-0.11789748062789439,-0.3021206600785255,-0.1295894527915865
1772785848297355800,0.403355712890625,0.011460136169195174,-0.40673341945856806,-0.058386485054995864
1772785848307370800,0.413370849609375,0.10021744703054428,-0.6097764501914381,-0.03460519370678812
1772785848317386800,0.42338671875,0.08666472249627113,-0.8205183648638427,-0.03844223285270855
1772785848327402500,0.433402587890625,0.06531622951924801,-0.9161042065709829,0.000555807251855731
1772785848337418500,0.44341845703125,0.07493453721404075,-0.8923352084487676,0.0711199473619461
1772785848347433500,0.45343359375,0.13261807989776134,-0.9143158618494868,0.14508043364575132
1772785848357449700,0.46344970703125,0.20840251193940637,-0.9553359275672584,0.2187037238644436
1772785848367465700,0.4734658203125,0.2010083100348711,-1.0891619950152933,0.26460580773642284
1772785848377480700,0.483480712890625,0.14492752637267112,-1.2450970914840698,0.2782821769166738
1772785848387496700,0.49349658203125,0.12706336838006974,-1.3390250829815864,0.23630579685475675
1772785848397512700,0.5035126953125,0.08869476701915263,-1.3693755053207277,0.17068309520222247
1772785848407528700,0.51352880859375,-0.038432314246892925,-1.4075854089885949,0.057188964099809524
1772785848417543700,0.523543701171875,-0.12815700883567333,-1.341817636309564,-0.044772924578422676
1772785848427559700,0.5335595703125,-0.17714929554164408,-1.3363038413241506,-0.16010240874867884
1772785848437575700,0.54357568359375,-0.24788462750017642,-1.3604353891484438,-0.2155110105040483
1772785848447590700,0.553590576171875,-0.22666063768565653,-1.3795079000175,-0.26254829068472607
1772785848457606700,0.563606689453125,-0.1981114195495844,-1.4162886476650833,-0.2748574996976182
1772785848467622700,0.57362255859375,-0.1701642589598894,-1.4691611368052662,-0.3319333588117733
1772785848477638700,0.583638671875,-0.22504735727012157,-1.4656123582825065,-0.42455713584292676
1772785848487653600,0.593653564453125,-0.28269465959668155,-1.303648649173975,-0.488543651128374
1772785848497669600,0.603669677734375,-0.3106774760216474,-1.2293182153329252,-0.5516471365015954
1772785848507685600,0.613685546875,-0.24972177979946136,-1.1183887470867484,-0.5990530307989567
1772785848517700600,0.62370068359375,-0.13522154039442538,-1.0416928992886096,-0.6276438961196691
1772785848527716600,0.633716552734375,0.05054126971364021,-1.0106020338457078,-0.6650097501788288
1772785848537732600,0.643732666015625,0.228767254576087,-1.0366641113411634,-0.7313678899664431
1772785848547748600,0.65374853515625,0.4429635474860668,-1.005533206148818,-0.7777611000899225
1772785848557763600,0.663763671875,0.6512748740106821,-0.9121813340388238,-0.7963040341269224
1772785848567779600,0.673779541015625,0.721576490727067,-0.8680097454875707,-0.8422253889549524
1772785848577795800,0.6837958984375,0.7371493229120969,-0.8393640812397003,-0.829113101664558
1772785848587810800,0.693810791015625,0.7379863582581281,-0.8130836117532104,-0.7471658361442387
1772785848597826800,0.703826904296875,0.7363835992366075,-0.8285230998821556,-0.7224503509521484
1772785848607842600,0.713842529296875,0.6512859799265861,-0.7913248574748635,-0.7399124309498817
1772785848617857800,0.72385791015625,0.5271878910928964,-0.7293491705551743,-0.7407118376992643
1772785848627873500,0.73387353515625,0.36904140218496323,-0.6457423743247985,-0.740488550337404
1772785848637889500,0.7438896484375,0.2211632093131542,-0.5590146695949136,-0.7446666397396474
1772785848647905500,0.753905517578125,0.07723989154696465,-0.5181704719007015,-0.6832073048442602
1772785848657920500,0.76392041015625,-0.03152852620780468,-0.4966973296307027,-0.6132228643182664
1772785848667936500,0.7739365234375,-0.06401508379280567,-0.4634458520878106,-0.580040944880247
1772785848677952800,0.783952880859375,-0.06802256586849689,-0.3974040847729891,-0.5687688420964404
1772785848687967500,0.793967529296875,-0.10940262400507926,-0.38037308966889977,-0.5691235372856259
1772785848697983700,0.803983642578125,-0.19703356118500231,-0.41405002608224745,-0.6059351549955084
1772785848707999700,0.813999755859375,-0.24427929648458957,-0.4684082968007773,-0.6193157013006508
1772785848718015700,0.824015625,-0.1593897669672966,-0.5164372183673084,-0.6470923276290297
1772785848728030700,0.83403076171875,-0.03498831127285957,-0.4952257227081805,-0.6460966676551848
1772785848738046700,0.844046630859375,0.09526888471245765,-0.3860454362168908,-0.5581461431320757
1772785848748062700,0.854062744140625,0.13051380109488964,-0.23178324139639733,-0.426579106657207
1772785848758077700,0.86407763671875,-0.07456862651109696,-0.06632800037767737,-0.30412498563826085
1772785848768093700,0.87409375,-0.4875847795009613,0.13354834648519753,-0.28671467236038295
1772785848778109400,0.884109375,-1.0048118330717086,0.292345773582533,-0.3633511546541005
1772785848788125700,0.894125732421875,-1.4276140515387057,0.45353736580740656,-0.4296284477578476
1772785848798140700,0.904140625,-1.6554472401350735,0.5397386355103925,-0.4628408353993669
1772785848808156700,0.91415673828125,-1.6356261028558015,0.5765330098245293,-0.5177139968374743
1772785848818172700,0.924172607421875,-1.3857657913684844,0.512027694829367,-0.515158247940056
1772785848828187600,0.934187744140625,-0.8685878376364707,0.34645938535761084,-0.4163577185027301
1772785848838203600,0.94420361328125,-0.3170575324475765,0.16984722889997064,-0.27953498998936266
1772785848848219600,0.9542197265625,0.1472936709821224,0.08605060918591916,-0.17548015675302595
1772785848858235600,0.964235595703125,0.4327203858911991,0.07458210704717785,-0.08212514283787459
1772785848868250600,0.974250732421875,0.5462877283602953,0.054413142710924144,0.02513970195353031
1772785848878266600,0.9842666015625,0.5876122569173574,0.06816288765463978,0.04803747019916772
1772785848888282600,0.99428271484375,0.5228454779744148,0.1298109500551596,0.014241729711741207
1772785848898297600,1.004297607421875,0.4108107519000768,0.18039145580064506,-0.03600764438323677
1772785848908313900,1.01431396484375,0.33379531675875185,0.1878879490358755,-0.07092047926709055
1772785848918329600,1.02432958984375,0.28447803588211534,0.22107525703506542,-0.10518175490703432
1772785848928345600,1.034345703125,0.322032398250699,0.2639088019155897,-0.09386077148020266
1772785848938360600,1.044360595703125,0.3776163383066654,0.32760522994697094,-0.050089653488621114
1772785848948376600,1.05437646484375,0.4391232386708259,0.4258522536873817,-0.05431655046865344
1772785848958392600,1.064392578125,0.5363648847609758,0.4701130548920482,-0.024345336705446242
1772785848968407600,1.074407470703125,0.6271031403064727,0.4958856844542548,0.06680829470790922
1772785848978423600,1.084423583984375,0.6990782431930304,0.5256652115702629,0.12216178700886667
1772785848988439600,1.094439453125,0.7330132460206746,0.5363172462269663,0.1268309478636831
1772785848998454500,1.10445458984375,0.7072580425173044,0.5138687195861712,0.17519648097343743
1772785849008470800,1.114470703125,0.6591361089050769,0.5193704222749919,0.21383549677357078
1772785849018486800,1.12448681640625,0.6572182925850153,0.5955621930085122,0.295938683507964
1772785849028502800,1.134502685546875,0.6400006158024072,0.6544634409189224,0.3450594919644296
1772785849038517800,1.144517822265625,0.57762979208529,0.7193935206647962,0.3760366678997874
1772785849048533800,1.15453369140625,0.5212789593100547,0.7527357452310621,0.47300468468032775
1772785849058549800,1.1645498046875,0.47239773176312444,0.7802371348146349,0.49087958326265213
1772785849068564700,1.174564697265625,0.40826165193915365,0.7967581345699727,0.5268221995856612
1772785849078580700,1.184580810546875,0.3387736896932125,0.8148438994240015,0.5753153776630759
1772785849088596500,1.194596435546875,0.337125922486186,0.8053153889045119,0.5955736642505973
1772785849098612500,1.204612548828125,0.35946634911000724,0.8409727585453539,0.6324954278040676
1772785849108627500,1.21462744140625,0.39569150870144365,0.8862719628870487,0.6510884845931083
1772785849118643700,1.224643798828125,0.3819838858664036,0.9556606294769793,0.6146867993909865
1772785849128659700,1.23465966796875,0.3685544954508543,1.041435198200494,0.5208374260876327
1772785849138674700,1.2446748046875,0.34150165335237975,1.0571256654158234,0.3838404004532844
1772785849148690700,1.254690673828125,0.3019996640473604,1.1983245266541838,0.31948972803056236
1772785849158706700,1.264706787109375,0.4396177441895008,1.2506583788730203,0.28425599062927065
1772785849168722700,1.27472265625,0.6055079790920018,1.2951925171263514,0.16229082217104732
1772785849178737700,1.284737548828125,0.6204343300670385,1.422888630452007,0.14252967145070433
1772785849188753700,1.294753662109375,0.5609878693640232,1.3791437428802251,0.11729710358195006
1772785849198769700,1.304769775390625,0.5389245061159134,1.0949105486046522,-0.19334500886537134
1772785849208785000,1.314784912109375,0.6554799244850874,0.9539967148527503,-0.6352398311413824
1772785849218801000,1.32480078125,0.9709843822717666,1.3638326303713022,-1.1616519155561924
1772785849228816600,1.334816650390625,1.0682470711499452,1.9997661428652702,-1.677341968818009
1772785849238831900,1.344831787109375,1.1351128681987523,1.951883717097342,-1.9906486242994665
1772785849248847600,1.35484765625,1.057479008898139,1.881985128223896,-2.0680730786330996
1772785849258863600,1.364863525390625,1.1197650769412517,1.786853752285987,-2.4977307159528133
1772785849268879600,1.374879638671875,1.2416466587692498,1.6650342759087682,-2.826100792792439
1772785849278894600,1.38489453125,1.5316466729432343,1.6076926785305141,-3.1528622653916476
1772785849288910600,1.39491064453125,1.8306261123865841,1.6263761900819838,-3.65683879224509
1772785849298926800,1.4049267578125,1.8723679895728826,2.025304927138984,-4.062275742152333
1772785849308941800,1.41494189453125,1.651781703364849,2.6149372917070983,-4.206042700313032
1772785849318957800,1.424957763671875,1.482280876749754,3.024821284151077,-4.416845551392436
1772785849328973800,1.434973876953125,1.630214599201083,3.416689142911136,-4.520201880970597
1772785849338989800,1.44498974609375,2.2766379415273663,3.995772933197021,-4.247451692283153
1772785849349004800,1.4550048828125,3.351027753216028,4.395864430423081,-3.8739609094738956
1772785849359020800,1.465020751953125,3.8415538468658923,4.558388111501932,-3.2535575590670107
1772785849369036800,1.475036865234375,3.6493028437823054,4.63789711702466,-2.2075224658556283
1772785849379051800,1.4850517578125,3.0673113493561743,4.720811547076702,-1.278894147145748
1772785849389067800,1.49506787109375,2.2840023328155277,4.775656359203159,-0.8771813323281705
1772785849399083800,1.505083740234375,1.6901731010794638,4.842541153213381,-0.5365405335888266
1772785849409098800,1.5150986328125,1.5175690477520227,4.934482354807853,-0.08539638306088745
1772785849419114800,1.52511474609375,1.3023562712758778,4.999616798019409,0.11415829409956932
1772785849429130800,1.535130859375,0.8948656037092209,4.551095908667147,0.2432689503982663
1772785849439146800,1.545146728515625,0.43717794982194896,3.1956349469304084,0.8823080276921391
1772785849449161700,1.55516162109375,0.07658464250862598,1.6388193459391593,1.370298173123598
1772785849459177700,1.565177734375,0.08677344356775284,0.25117300152108074,1.5168986011445522
1772785849469193700,1.57519384765625,0.965226257136464,-1.0769877192273736,1.7522507870689032
1772785849479208700,1.585208740234375,1.7592706027030944,-2.0539117206811905,2.014361946711689
1772785849489224700,1.595224609375,1.8162784380823374,-2.5643238335400818,2.348080252711475
1772785849499240700,1.60524072265625,1.2163432906866072,-2.9793817214906215,2.49023948341459
1772785849509257000,1.615257080078125,0.19060440492033956,-3.539777470180392,2.701412921372056
1772785849519272000,1.62527197265625,-0.9568050502717494,-4.241701165932417,2.6695401117712256
1772785849529288000,1.635287841796875,-1.9586475121438502,-4.396944919136167,2.39645791465044
1772785849539303700,1.6453037109375,-2.7840853593617676,-4.062018552520871,2.0011410844802855
1772785849549319000,1.65531884765625,-3.6824388051867483,-3.4856723705053327,1.8251015037462115
1772785849559334700,1.665334716796875,-4.436130097576975,-2.826720385995507,1.7293329989485442
1772785849569350700,1.6753505859375,-4.894004213947057,-2.750471551312506,1.6111035098873079
1772785849579366700,1.68536669921875,-5.009352010092139,-2.9649072059363126,1.5245320186324416
1772785849589381600,1.695381591796875,-4.584118765085935,-3.0376667371988293,1.1451856416627764
1772785849599397600,1.705397705078125,-4.1428064919382335,-3.1744483665168284,0.7010521736145019
1772785849609413600,1.71541357421875,-3.645040510162711,-3.0085686530083415,0.39324090067893264
1772785849619428600,1.7254287109375,-3.218937496584654,-2.2144724311240016,0.32813948295414447
1772785849629444900,1.73544482421875,-2.654869781383872,-1.66142646067515,-0.04440831991657614
1772785849639460900,1.7454609375,-2.5367507669597864,-1.4668994754835962,-0.3163210348665714
1772785849649475800,1.755475830078125,-2.835532638004422,-1.5826644741274416,-0.11545242556333542
1772785849659491800,1.765491943359375,-2.905612136402726,-1.6575794298581779,-0.03759177176952362
1772785849669507800,1.7755078125,-2.651782921284437,-1.7487166215933858,-0.03600099544674158
1772785849679523600,1.785523681640625,-2.078795986568928,-1.7486052701734005,0.007635024923086166
1772785849689538800,1.795538818359375,-1.496671221151948,-1.8428679004527628,-0.1988210291236639
1772785849699554600,1.805554443359375,-0.8736316770225763,-1.9158220775045454,-0.2970950870014727
1772785849709570600,1.815570556640625,0.006570610561966896,-1.960589586122334,-0.09930398544743657
1772785849719585500,1.82558544921875,0.7971236068814992,-1.9001110058926045,0.10345818251743912
1772785849729601500,1.8356015625,1.1039029064208268,-1.7720916519619523,0.22051482840701936
1772785849739617800,1.84561767578125,1.1495102268636226,-1.683686369408667,0.20738471319898963
1772785849749633800,1.8556337890625,0.931005423104763,-1.5096639737159012,0.23294322508648035
1772785849759648800,1.865648681640625,0.8936761016637086,-1.2317875280559063,0.2270161731250584
1772785849769664800,1.875664794921875,0.9586100538671016,-1.0584637090865523,0.15532339431121944
1772785849779680800,1.8856806640625,0.8587070796132087,-0.8340000699885189,0.14808102196753023
1772785849789695700,1.89569580078125,1.0997989782333373,-0.5339800354510545,0.05971592529416084
1772785849799711700,1.905711669921875,1.517338746127486,-0.4045373341863975,0.013965396988391875
1772785849809727700,1.915727783203125,1.674133820426464,-0.5248316102903336,-0.11612236071415245
1772785849819743700,1.92574365234375,1.8853297624766825,-0.8109862741477787,-0.1801407324425876
1772785849829758700,1.9357587890625,2.0406272916942836,-1.2808615016959606,-0.229012972965464
1772785849839774700,1.945774658203125,1.7924673543840646,-1.3849451226353644,-0.39561457100771363
1772785849849790700,1.955790771484375,1.5562293255358934,-1.1900730503331869,-0.6161469350714236
1772785849859805700,1.9658056640625,1.9976830529808998,-1.0476515884973108,-0.7581298593595623
1772785849869821700,1.97582177734375,2.6550831318736074,-1.0561067706968634,-0.8351241055823863
1772785849879837700,1.985837646484375,3.230011263784766,-1.0350333683341741,-1.0416593623451889
1772785849889853700,1.995853759765625,3.881313610324263,-0.8702911344230174,-1.1919412553578614
1772785849899868700,2.00586865234375,4.327003367903829,-0.7668835861142724,-1.4108097778625786
1772785849909884700,2.015884765625,4.120932513782382,-0.6243814602576195,-1.7892516072079538
1772785849919900700,2.025900634765625,2.416680618467927,-0.005817965563759207,-2.4792002030059694
1772785849929915600,2.03591552734375,-0.6610410657435655,0.7951978264506906,-2.7837606574520466
1772785849939931600,2.045931640625,-4.159466534838081,1.3678259377911686,-3.339514717815816
1772785849949948000,2.055947998046875,-7.958815563181042,1.8531646919310092,-3.7562069289699194
1772785849959964000,2.0659638671875,-8.520100369665027,0.48752121274545784,-4.878066055580973
1772785849969979000,2.075978759765625,-8.354830897009371,-0.6881802709512412,-4.336031308490037
1772785849979995000,2.085994873046875,-8.803643170523642,-1.2482318823784588,-2.88443724642694
1772785849990010600,2.0960107421875,-9.081171825659274,-1.133535828140378,-1.4279261862277983
1772785850000025900,2.10602587890625,-10.27075336614847,0.16789003041759132,-0.40964959916621446
1772785850010041600,2.11604150390625,-12.402910356026887,1.7754717959195374,0.3099538013895973
1772785850020057600,2.1260576171875,-13.972137694823742,3.352334744161367,1.2031295888483524
1772785850030072600,2.136072509765625,-15.289837081182002,3.9240652490749954,1.4375589608393609
1772785850040088600,2.146088623046875,-17.34129380992651,4.314120505455136,1.1601985018774867
1772785850050104800,2.156104736328125,-18.387591499596834,4.573439257900416,1.249106619386375
1772785850060120800,2.166120849609375,-18.077585639226434,4.510162425254285,1.8807208073765038
1772785850070135800,2.1761357421875,-16.5693858928442,3.5063147610396146,2.419999826018512
1772785850080151800,2.18615185546875,-13.81523916015029,1.8665809306040406,2.7237130159854885
1772785850090167800,2.196167724609375,-9.945906494998932,0.2138755730556324,2.533168816819787
1772785850100182800,2.206182861328125,-5.652733500504493,-1.169760549340397,1.965794753549993
1772785850110198800,2.21619873046875,-1.1836562420934438,-2.104397314684838,0.9242297914899885
1772785850120214800,2.22621484375,2.626364986911416,-2.38962280793339,-0.21411895335745065
1772785850130230800,2.236230712890625,5.6613557828992604,-2.2100101910181342,-1.1215193001974373
1772785850140245800,2.246245849609375,7.94315505271256,-1.6144196486979723,-1.5452648639291524
1772785850150261800,2.25626171875,9.982357280039787,-1.239409985758364,-1.6507500222295521
1772785850160277800,2.26627783203125,11.874978368568419,-1.014607104768604,-1.608541696575284
1772785850170292700,2.276292724609375,13.113047168850898,-0.925543139110878,-1.3778373364567755
1772785850180308700,2.286308837890625,13.94091954973936,-0.8868215595938265,-1.0352116475105284
1772785850190324700,2.29632470703125,14.208431837773322,-0.3505992981739342,-1.2250782396756112
1772785850200340700,2.3063408203125,14.142031320148705,0.3995763142455369,-1.4954776274532078
1772785850210355000,2.31635498046875,14.140053298074006,0.6427930229999125,-1.4595748316839336
1772785850220371000,2.326370849609375,14.106249228149652,0.5923685845989733,-0.9598398148577659
1772785850230387000,2.336386962890625,13.777334084647894,0.6520871402416378,-0.31111053367666897
1772785850240402000,2.34640185546875,13.085842351061105,0.829315127042681,0.1988778738774359
1772785850250418000,2.35641796875,11.848144137656687,0.5951030510641634,0.4093245319303125
1772785850260434000,2.366433837890625,9.732779292625189,-0.45650005153790113,0.1864587564829737
1772785850270449000,2.376448974609375,7.725919830498099,-1.8135041510634122,-0.061817573748528955
1772785850280465000,2.38646484375,7.234748424682021,-2.6879811928689477,-0.08307049739658832
1772785850290481200,2.396481201171875,7.715352843776345,-3.196571643258631,0.07561572441123425
1772785850300497200,2.4064970703125,8.385777239415049,-3.4710324352562427,0.36037469612658024
1772785850310512000,2.41651220703125,8.737227455329894,-3.557071719330549,0.3455335392169654
1772785850320528100,2.426528076171875,8.89999517429769,-3.4954955531224607,0.18439955893084406
1772785850330543900,2.4365439453125,8.787490492624045,-3.3647982121542093,-0.018365677773952482
1772785850340559000,2.44655908203125,8.308236903616786,-3.153448833107948,-0.10732618305720389
1772785850350574800,2.456574951171875,7.698267853462696,-3.1594922049254177,-0.7553573989715426
1772785850360590800,2.4665908203125,7.004357952818274,-3.569157001660764,-1.1093718393512069
1772785850370606800,2.47660693359375,6.730543349769711,-3.645077627302706,-1.0664880986534058
1772785850380621800,2.486621826171875,6.708322165611386,-3.3575057170584794,-1.0986772807270289
1772785850390637800,2.496637939453125,7.113206450071931,-2.915987692205608,-1.1710364144951104
1772785850400654000,2.506654052734375,7.295041273081302,-2.226456298906356,-0.9961603245824575
1772785850410669000,2.5166689453125,7.108126954850554,-1.5677644266374409,-0.7724044684275985
1772785850420685000,2.52668505859375,6.644860624048113,-1.0575605497017502,-0.5719868908274919
1772785850430701000,2.536701171875,5.8148085610330105,-0.25947481978982684,-0.09879961612187325
1772785850440717000,2.546717041015625,4.5295495550304645,1.2007220893152057,-0.5802226581227033
1772785850450732000,2.55673193359375,0.06209492938518524,2.2551678679972884,-4.383603499265015
1772785850460748000,2.566748046875,-10.976586928820609,3.9040561880081888,-6.231421861732006
1772785850470764000,2.576763916015625,-20.238434470582007,4.830091421484947,-4.25388347889632
1772785850480779000,2.586779052734375,-23.89949146504402,1.098267677012831,-1.8918501041561364
1772785850490795000,2.596794921875,-21.76113269791603,-2.08038617836982,1.5486932309426367
1772785850500811000,2.60681103515625,-21.106416743540763,-1.4913254762098191,2.2799837448239324
1772785850510827000,2.616826904296875,-19.602210450708863,1.532510888557136,2.705459858675301
1772785850520842000,2.626842041015625,-18.300434609669445,3.7901334562301634,2.034132376717031
1772785850530858000,2.63685791015625,-17.92869154731035,3.9376714573621747,0.8946169627103954
1772785850540874000,2.6468740234375,-18.132306240451335,3.088770024709403,-0.07439796438561752
1772785850550889000,2.656888916015625,-21.622128716373442,2.4956623852461575,-2.030281692638248
1772785850560905000,2.666905029296875,-25.16118664010763,2.728580329760909,-3.152478819032013
1772785850570921000,2.6769208984375,-24.657836136198043,2.3806876601971685,-3.187338535489142
1772785850580936000,2.68693603515625,-22.243082686400413,1.6316590989209712,-2.638250947277248
1772785850590952000,2.696951904296875,-18.572687370228767,1.0972285432234405,-1.7079169936932623
1772785850600968000,2.706968017578125,-15.255090761971474,0.9622542555883526,-0.9139601802796125
1772785850610984200,2.716984130859375,-11.866403432446717,0.08979410656318068,-0.1693723779298365
1772785850620999200,2.726999267578125,-8.539910985550284,-0.9369615550301968,0.5154784928703681
1772785850631015200,2.73701513671875,-5.651418326252698,-1.4420245619460939,0.9015987113565206
1772785850641031000,2.747031005859375,-3.2324218320578333,-1.3761973141647874,0.8052605899773537
1772785850651046100,2.757046142578125,-0.12286883929967879,-1.0604822823673485,1.0842087565220893
1772785850661062000,2.767061767578125,2.8874066176265476,-0.6557729160822927,1.0709114680536092
1772785850671078000,2.777077880859375,5.354322216337919,-0.46494683123528957,0.5911517196225002
1772785850681094000,2.787093994140625,7.287786771908402,-0.6123050918862223,0.2595770015226677
1772785850691108900,2.79710888671875,8.716188174432515,-0.9654255791008471,-0.188967341770418
1772785850701124900,2.807124755859375,9.645068275946379,-1.3173581717051566,-0.7567034798182547
1772785850711140900,2.817140869140625,10.27300962064266,-1.4199360642567276,-1.2649648443840444
1772785850721155800,2.82715576171875,10.866842944031953,-1.2872897811777888,-1.748581158645451
1772785850731172000,2.837172119140625,11.815286993193626,-0.8735960211873054,-2.021618055319786
1772785850741188000,2.84718798828125,12.59826341677904,-0.601069850514084,-2.016176594918221
1772785850751204000,2.8572041015625,13.180678689575194,-0.25883213797211646,-1.898633334555477
1772785850761219000,2.867218994140625,13.170125731378793,0.7063679618097841,-1.587169676592201
1772785850771235000,2.877235107421875,12.334322557491063,1.6075763586744665,-1.1783068438895046
1772785850781251000,2.8872509765625,11.65041090376973,1.6822902388751506,-0.9290437676429748
1772785850791266000,2.89726611328125,11.512744308310747,1.100487837280333,-0.9337960767365991
1772785850801282000,2.907281982421875,11.935071895003318,0.03976253993734717,-1.2653957831472158
1772785850811297800,2.9172978515625,12.23227672598958,-0.6150244338475167,-1.8455939644157886
1772785850821314000,2.92731396484375,11.666849997395277,-0.44855917553603647,-2.317802895608544
1772785850831329000,2.9373291015625,10.187704496061802,-0.49905105314999815,-2.850053915309906
1772785850841345000,2.947344970703125,8.840210275420546,-1.1067253434304147,-3.3792017082989214
1772785850851361000,2.957361083984375,7.894965899083018,-1.7188260718509554,-3.6555467066079377
1772785850861376000,2.9673759765625,7.048638993093371,-2.1451129175633192,-4.081724538987875
1772785850871392000,2.97739208984375,7.086397938123345,-2.4624817079171537,-4.281674279880524
1772785850881408000,2.987407958984375,8.000877758362888,-2.570076697978377,-4.326699708782137
1772785850891423000,2.997423095703125,9.205496708986162,-2.355695550020784,-4.259555971574783
1772785850901439000,3.00743896484375,9.966392818188666,-2.0565986216776073,-4.203957418471575
1772785850911455000,3.017455078125,10.326140322327614,-1.5055898561447858,-3.973993647587299
1772785850921471000,3.027470947265625,10.125834023082255,-0.8183092374470085,-3.7547611140757797
1772785850931486000,3.03748583984375,9.873187295746803,-0.32793000492192803,-3.498954461404681
1772785850941502200,3.047502197265625,9.688189040270448,-0.010091039773076772,-3.209203453555703
1772785850951518000,3.05751806640625,9.334926221975683,0.4266785484436899,-2.8931191500544546
1772785850961533200,3.067533203125,9.111695558738708,0.6572882890813052,-2.3595019565664233
1772785850971549000,3.077548828125,8.821845182168483,0.47665297805480655,-1.864341188853234
1772785850981565000,3.08756494140625,8.009150496667623,0.35644849912617355,-1.3898456080280244
1772785850991581000,3.097580810546875,6.478088345614076,0.21794353488059715,-1.002488212429732
1772785851001596000,3.107595947265625,4.369004188287258,0.5698432298623025,-0.534423833695799
1772785851011612000,3.11761181640625,2.494716044306755,1.4831163046605884,-0.23271701511517165
1772785851021628000,3.1276279296875,0.5789665936470031,2.800301457886398,0.25276794256232676
1772785851031643000,3.137642822265625,-3.2528105400919913,3.575383913351595,0.29887773263454437
1772785851041659000,3.147658935546875,-7.318664725252986,4.128983133769035,1.9515354881815612
1772785851051675100,3.157675048828125,-12.527515225338934,1.8640597415633497,4.122980678483843
1772785851061691100,3.167691162109375,-19.763148031640053,-2.9535753723219034,2.253546696536243
1772785851071706000,3.1777060546875,-25.461813262236117,-2.6928105127215383,2.942986466029286
1772785851081722000,3.18772216796875,-29.80998976655006,0.5488046430846676,2.2242248865924776
1772785851091738000,3.197738037109375,-31.14147451715469,3.244444570545852,1.3997665519312024
1772785851101753000,3.207753173828125,-28.47727751997709,4.42643375620991,0.663185822687298
1772785851111769000,3.21776904296875,-23.064611835741996,3.556415301248431,0.005233078347891569
1772785851121784800,3.227784912109375,-18.793914876949785,1.714377714139968,-1.199064531366527
1772785851131800000,3.237800048828125,-18.09510960547924,1.149907555618137,-3.1411645210742947
1772785851141815800,3.24781591796875,-18.28134529379606,1.152417419547215,-5.464473612883687
1772785851151832000,3.25783203125,-17.569968125522134,0.9324818523328751,-6.752972039198875
1772785851161848000,3.26784814453125,-16.668925294482708,0.35543270967975255,-7.177517886462807
1772785851171863000,3.277863037109375,-16.687050149238107,-0.22678850184902546,-6.297839915013313
1772785851181879000,3.287879150390625,-16.330954737865923,-1.0796036008141934,-5.102144275557994
1772785851191895000,3.29789501953125,-14.202535180950164,-2.331139639304578,-4.56371515174359
1772785851201910000,3.307909912109375,-10.951471192264556,-2.816480147010088,-3.4201509738028046
1772785851211926800,3.3179267578125,-6.717298668271303,-2.242974156856537,-1.889165395116806
1772785851221942800,3.32794287109375,-2.6997517101615665,-1.2336959920257329,-1.0668667957726865
1772785851231958500,3.33795849609375,0.9259154064893722,-0.036807489524036646,-0.062081485381722444
1772785851241973800,3.347973876953125,4.0809447867870325,0.7401941705007106,0.6549075314246118
1772785851251989500,3.357989501953125,6.612837592321634,0.745245608671382,0.5561785693861544
1772785851262005500,3.368005615234375,8.666042626038193,0.46744595457464455,0.5562488946760072
1772785851272020500,3.3780205078125,10.200832857704162,0.46955717457495627,0.7920746529288589
1772785851282036500,3.388036376953125,10.640158340948819,0.17413455083034932,0.979751041573286
1772785851292052700,3.398052734375,11.200395684206486,-0.4213454437874257,0.882397751802206
1772785851302068700,3.40806884765625,11.960659925246238,-0.9656913904301822,0.6072499273885041
1772785851312083700,3.418083740234375,12.817274416494369,-0.9395674997448921,0.2758371218521148
1772785851322099700,3.428099609375,13.498822263693809,-0.5008852828398347,-0.03424421490728855
1772785851332115700,3.43811572265625,13.775039251708984,0.2203415176667273,-0.20106895418092607
1772785851342130700,3.448130615234375,13.817173927605152,0.8302399868026376,-0.3409624319091439
1772785851352146700,3.458146728515625,13.305525550949573,1.195338861906901,-0.24273995808809995
1772785851362162700,3.46816259765625,12.479647558748722,1.1876569291021675,-0.19292671038806436
1772785851372178400,3.478178466796875,11.562317609775066,0.8151814608152955,-0.24191359026655554
1772785851382193700,3.488193603515625,10.937455526393652,0.48679808610267933,-0.2688904445193708
1772785851392209700,3.498209716796875,10.968083304369449,0.17366620266623795,-0.36768370396569366
1772785851402225700,3.5082255859375,10.861156715089082,-0.36358963958509266,-0.8172798213340342
1772785851412240600,3.51824072265625,10.155885462474822,-0.9662512162700295,-1.2916887467890976
1772785851422256600,3.528256591796875,9.411834689611196,-1.5314979121223091,-1.757379528259486
1772785851432272600,3.538272705078125,8.957369504901767,-2.1330045466184613,-2.271649923981726
1772785851442287600,3.54828759765625,8.600871942469476,-2.2091445140995085,-2.3372277270466086
1772785851452303600,3.5583037109375,8.248001338362693,-1.8894570715397596,-2.4907754899874326
1772785851462319600,3.568319580078125,7.879866529628634,-1.6340122379183768,-2.697710559722781
1772785851472335600,3.578335693359375,7.713586418625712,-1.3543641064107417,-2.6834160769104956
1772785851482350600,3.5883505859375,8.002934106370807,-0.8216813442286104,-2.4875199953228235
1772785851492366600,3.59836669921875,8.619175076401234,-0.2452146411059424,-2.234974390274286
1772785851502382800,3.6083828125,9.156374658420681,0.04329246762916446,-2.2533029509082434
1772785851512397800,3.618397705078125,9.519044187486172,0.16766254180464893,-2.1703514037162064
1772785851522413800,3.628413818359375,9.550661561021208,0.25638346617836505,-2.178461937196553
1772785851532429600,3.6384296875,9.350929846793413,0.30243593657277523,-2.478772040721774
1772785851542445600,3.648445556640625,9.032771075105666,0.49174255676753814,-2.970010666555166
1772785851552460500,3.65846044921875,8.574708158165215,0.5784100192101672,-2.6644480493292213
1772785851562476500,3.6684765625,8.166736429083347,0.42593361182790246,-1.7944851239472626
1772785851572492500,3.678492431640625,6.973458956685662,-0.23113058617394416,-1.5094713737532495
1772785851582507500,3.688507568359375,4.678846967050433,-0.9721657740760594,-1.8179586462542414
1772785851592523500,3.6985234375,2.036060422170162,-0.6770713593725115,-1.0438927474204451
1772785851602539500,3.70853955078125,-3.860390649282932,0.4163897941414267,-2.5690371257975695
1772785851612555800,3.7185556640625,-10.814010348510742,2.231082059010863,-1.8902242565199732
1772785851622570800,3.72857080078125,-14.4448452231884,4.216638036346435,0.25805103406440466
1772785851632586800,3.738586669921875,-19.212243164873122,4.715038224372267,1.2474797488369047
1772785851642602800,3.748602783203125,-23.394155924797058,1.251500821046531,-0.7199584610711782
1772785851652617700,3.75861767578125,-24.695680421423912,-0.045096302180737256,-0.27092786863110957
1772785851662633700,3.7686337890625,-23.60819615036249,0.7851606357567011,1.576379256378114
1772785851672649700,3.778649658203125,-19.369984580111502,3.2968726769194006,1.6331370625190436
1772785851682664700,3.788664794921875,-18.818167859196663,3.777032567116618,0.18702501206360755
1772785851692680700,3.7986806640625,-16.95353601683378,5.61984186924994,1.1752730291515587
1772785851702696400,3.808696533203125,-15.891831499195098,7.075792957478761,1.1066348156027495
1772785851712712700,3.818712646484375,-17.963711422765254,7.937530198568105,-0.3643913478894159
1772785851722727700,3.828727783203125,-19.47463387210965,8.338847730457783,-1.5258575681477784
1772785851732743700,3.83874365234375,-19.071800090438128,7.216108021619916,-2.541075644421577
1772785851742759700,3.848759765625,-19.65055976333618,4.892286888635158,-3.5689825218766926
1772785851752774700,3.858774658203125,-19.89808374083042,1.4205050963163375,-3.8976504126191136
1772785851762790700,3.868790771484375,-18.337080625021457,-1.6388016641519962,-3.418396823611855
1772785851772806700,3.878806640625,-15.552237140768765,-2.845693382012844,-3.0261668535411355
1772785851782822700,3.88882275390625,-11.189080509465931,-3.3642589907109737,-2.586080615057051
1772785851792837600,3.898837646484375,-6.336950859174132,-3.2284210719838735,-1.775858457149565
1772785851802853600,3.908853515625,-1.8025275606274604,-2.1708179983146487,-0.9894264862827956
1772785851812869600,3.91886962890625,1.83065241587162,-1.4184541551358998,-0.47100960187297314
1772785851822884600,3.928884521484375,4.245753656193614,-0.9070698362439871,0.13355157962189987
1772785851832900900,3.93890087890625,5.961486145943403,-0.5107885449558496,0.6299689780663699
1772785851842916600,3.94891650390625,7.72114487118125,-0.5547742555461823,0.803228353497386
1772785851852932600,3.9589326171875,9.504452183032035,-0.8057390211440623,0.6843667040124535
1772785851862947600,3.968947509765625,10.949327165973186,-0.9664188279218972,0.5291122102189809
1772785851872963600,3.978963623046875,12.216717922329902,-1.2994549968764184,0.24205979380421339
1772785851882979600,3.9889794921875,13.440959272789954,-1.744770660446584,-0.4250575961783528
1772785851892994600,3.99899462890625,14.319658170074224,-2.1640509883977472,-1.0747055996395647
1772785851903010600,4.009010498046875,14.918520719802379,-2.446692310371995,-1.3236273151025175
1772785851913026600,4.019026611328125,15.163164173424242,-2.6360510991454125,-1.5385988301686941
1772785851923041500,4.02904150390625,15.079166039788722,-2.540300568395853,-1.4380635493606329
1772785851933057500,4.0390576171875,14.495675246715544,-1.9263743050485849,-1.1595718944117426
1772785851943073800,4.04907373046875,13.51049516583085,-1.1331743013516067,-1.182731674594432
1772785851953089800,4.05908984375,11.420166562378405,-0.6715653823673725,-1.1111160526700317
1772785851963104800,4.069104736328125,9.116199884420633,-0.2781333430305123,-0.67937970938012
1772785851973120800,4.079120849609375,7.601191042545437,-0.7140402500033378,-0.4540032662861049
1772785851983136800,4.08913671875,6.771215551897883,-1.4360168459638953,-0.6997247244030237
1772785851993151700,4.09915185546875,6.773500447964667,-1.8401339454442263,-1.1819066219471395
1772785852003167700,4.109167724609375,7.1351289435446255,-2.3665385772049428,-1.7687521322757005
1772785852013183500,4.11918359375,7.572764574006199,-3.031177667440474,-2.613300630415976
1772785852023199500,4.129199462890625,8.522568805605173,-3.3998739094495773,-3.0035028940513726
1772785852033214500,4.13921435546875,9.540870234847068,-3.2763615115493536,-3.0153002993509173
1772785852043230700,4.149230712890625,9.834143571603297,-3.2720056544274088,-3.051817427626252
1772785852053246700,4.159246826171875,9.7606972271204,-3.1967309254735707,-3.1291511349365115
1772785852063261700,4.16926171875,9.25820597038865,-2.8816455698817967,-3.2590295607373116
1772785852073277700,4.179277587890625,8.42879980406165,-2.3477577427588403,-3.075309070111811
1772785852083293700,4.189293701171875,8.201163599342108,-1.9115481995776296,-2.8146292584463954
1772785852093309700,4.199309814453125,8.307322126859425,-1.519813904069364,-2.7817420111060143
1772785852103324700,4.20932470703125,8.810276324927806,-1.19818248783499,-2.620784556430578
1772785852113340700,4.219340576171875,9.381755193167924,-1.0850490067385137,-2.222844684280455
1772785852123356700,4.229356689453125,9.67768635095656,-0.9345378350146114,-2.1273320539399982
1772785852133371600,4.23937158203125,9.423664828136562,-0.6235982009254396,-1.5243825271591542
1772785852143387600,4.2493876953125,8.51580296473205,-0.5052051918655633,-0.7420734814412892
1772785852153403600,4.259403564453125,6.493313387274742,-0.1736570695117116,-0.29618790902867914
1772785852163419000,4.2694189453125,3.269015824961662,0.4197800941668451,-0.9156149617493152
1772785852173434600,4.2794345703125,-1.769646450766921,1.0885708972543477,-2.3211579051248727
1772785852183450600,4.28945068359375,-7.833944151887297,2.048743232002109,-1.4751222371667623
1772785852193466600,4.299466552734375,-12.2702484369874,3.0259634399235247,0.2276972141917795
1772785852203481600,4.309481689453125,-15.508763909745216,3.999361313077807,2.815169356672466
1772785852213497300,4.319497314453125,-21.808137610197065,0.9769311618469655,0.6563662058003247
1772785852223513600,4.329513671875,-26.14124981637001,-0.5066977685108781,1.188146100858599
1772785852233528300,4.3395283203125,-25.53630005568266,3.073219696617126,3.907071151915192
1772785852243544600,4.349544677734375,-24.586606298720834,5.9933121937930585,2.3082272580116987
1772785852253560600,4.359560546875,-24.058925655674933,7.4542609441787,0.4147789248786866
1772785852263576600,4.36957666015625,-20.375883623898027,8.229838489684463,-1.3325816059306264
1772785852273591600,4.379591552734375,-18.67766282544136,6.469533867758512,-4.874598963992297
1772785852283607600,4.389607666015625,-18.977298098444937,4.301297556500137,-6.804236362490058
1772785852293623600,4.39962353515625,-17.982382220965622,2.4209360839553176,-6.202576875519752
1772785852303638500,4.409638427734375,-17.442926968973875,2.0045215206988156,-4.731103808510303
1772785852313654500,4.419654541015625,-17.253009961795804,2.501293669131398,-3.9346436339735984
1772785852323670300,4.429670166015625,-17.96327303134799,2.441750177794695,-4.504702114021778
1772785852333686500,4.4396865234375,-17.781534654450414,0.7725055907145142,-5.029196528246999
1772785852343701500,4.449701416015625,-14.938777910411357,-1.420963799869269,-4.523723040834069
1772785852353717500,4.459717529296875,-10.607510455322265,-2.5047934939458965,-3.048892772351205
1772785852363733500,4.4697333984375,-5.400911533555388,-2.3313151420019564,-1.7518037739537655
1772785852373748500,4.47974853515625,-1.4066332228302956,-1.3971451173864304,-0.29155703435763713
1772785852383764500,4.489764404296875,1.9753923107177018,-0.6377260949991643,0.8982423136007041
1772785852393780500,4.499780517578125,5.548412709808349,-0.6116777537681162,1.1780641211748122
1772785852403795500,4.50979541015625,8.088543182334304,-1.2739609285272657,0.8631800603087991
1772785852413811500,4.5198115234375,9.523629177188873,-1.9050621985591947,0.37518783251810817
1772785852423827500,4.529827392578125,10.830058981513977,-2.2826966570444402,-0.30273625295991075
1772785852433843500,4.539843505859375,12.633236530482769,-2.720238033351302,-1.1527502316981553
1772785852443858400,4.5498583984375,14.22781224554777,-3.1790953155398367,-1.6691963640242815
1772785852453874700,4.559874755859375,15.107195033442974,-3.373967899298668,-1.7367596418179572
1772785852463890400,4.569890380859375,15.45037952531576,-3.245673527818918,-1.6446914528429508
1772785852473905700,4.57990576171875,15.02900120217204,-2.7393255956590172,-1.3592232368797064
1772785852483921400,4.58992138671875,13.875188894200324,-1.8333999610140919,-0.9725439597386866
1772785852493937400,4.5999375,12.363479678392409,-0.7409710731573402,-0.594273906763643
1772785852503953400,4.609953369140625,11.105915904045105,0.1294347736865282,-0.06429287782087922
1772785852513968400,4.619968505859375,10.528901613509655,0.9065330990187823,0.4861214289501309
1772785852523984400,4.629984375,10.190037907445431,1.2583305209361015,1.0074597172319888
1772785852534000400,4.64000048828125,9.863357975649834,1.0570379871323705,1.2817036516085267
1772785852544015400,4.650015380859375,9.749622875398396,0.3045361967876553,0.8530817870773375
1772785852554031400,4.66003125,9.668674776983261,-0.8767806425727903,-0.12235248727537691
1772785852564047600,4.670047607421875,9.305703050100803,-2.3368616702131924,-1.2489224949911235
1772785852574062600,4.6800625,8.8911531116724,-3.3769664965927597,-2.096936623415351
1772785852584078600,4.69007861328125,8.615673205760121,-3.8739556487768887,-2.328801259484887
1772785852594094600,4.700094482421875,8.37484609555602,-4.005348278532922,-2.3637045228227973
1772785852604110600,4.710110595703125,8.03620041615665,-3.6200428470283743,-2.549706986905634
1772785852614125600,4.72012548828125,8.303881631016731,-2.8017887738347054,-2.5348858498707414
1772785852624141600,4.7301416015625,9.113970517933367,-1.9076221121750772,-2.2221337595321238
1772785852634157300,4.7401572265625,10.114237108790874,-1.0173106646388768,-1.7934958206489682
1772785852644172500,4.750172607421875,10.964674372708798,-0.2701476780388504,-1.3805489335030317
1772785852654188300,4.760188232421875,11.110479850959777,0.4794016191758215,-0.7886040542088448
1772785852664204500,4.77020458984375,10.667191309303044,1.1643735225398093,-0.3663677625289187
1772785852674220500,4.780220458984375,9.828539175724982,1.5410527991920708,-0.1773931142348796
1772785852684235500,4.790235595703125,8.956631838276982,1.8235472600415348,-0.09882117036655545
1772785852694251500,4.80025146484375,8.366466389745474,1.8852783245503901,-0.08088489698581397
1772785852704267500,4.810267578125,7.850688365939259,1.545023164127767,0.16661482285000384
1772785852714282500,4.820282470703125,7.559351550203561,1.255767100188881,0.45362076977454124
1772785852724298500,4.830298583984375,5.747182885527611,0.4687380402117967,-1.3696709811359644
1772785852734314500,4.840314453125,2.954928248235583,-0.6954719623293727,-3.504823645699024
1772785852744330500,4.85033056640625,0.5145388374000788,-0.7188308452807366,-3.3184239989921447
1772785852754345500,4.860345458984375,-5.604523304086923,-0.11541896168515085,-4.765274081398546
1772785852764361500,4.870361572265625,-14.28434252654314,2.353667112933099,-4.552041665084659
1772785852774377500,4.88037744140625,-22.452161490166187,2.5156238077789546,-0.4946376936871558
1772785852784392700,4.890392822265625,-31.899477827525136,-0.5608319481499493,-2.542381466323137
1772785852794408400,4.900408447265625,-34.49316278010607,-1.2749305042117833,0.12468699463754891
1772785852804424400,4.910424560546875,-32.476386904120446,-0.0037884324975311755,2.2137740735962987
1772785852814439400,4.920439453125,-29.96812865667343,3.743525434312224,1.6643107839398086
1772785852824455400,4.930455322265625,-29.907132628440856,6.263630186897516,-0.08412227147184312
1772785852834471400,4.940471435546875,-28.92551930012703,5.896759114488959,-2.1133913530014454
1772785852844487400,4.9504873046875,-27.599650635838508,4.214592209732532,-4.504655644531548
1772785852854502400,4.96050244140625,-24.289400298690794,1.7161076066724954,-6.915728067728876
1772785852864518400,4.970518310546875,-18.264984526103735,0.37211335697621106,-7.569153982293606
1772785852874534700,4.98053466796875,-13.969448894131183,0.8016238409101962,-6.646349985823035
1772785852884549400,4.99054931640625,-10.339261669707298,0.39581498895063993,-5.034243874764442
1772785852894565600,5.000565673828125,-8.069744958361984,-0.09006400954574346,-3.0422230853289363
1772785852904581600,5.01058154296875,-6.04771130797863,-0.2972191517725587,-1.2636590224824844
1772785852914597600,5.02059765625,-3.594048574072122,-0.3141701404429972,0.011293054240290075
1772785852924612600,5.030612548828125,-1.1737515186727046,-0.36390959225445985,1.084758645489812
1772785852934628600,5.040628662109375,1.78113639755249,-0.3234555629216134,1.2762329651124775
1772785852944644400,5.050644287109375,4.855074471572041,-0.13100962178781628,0.9220411954045296
1772785852954659600,5.06065966796875,7.744051699516176,-0.4451064047336578,0.19854776514023542
1772785852964675300,5.07067529296875,9.99659857136011,-1.2466707705415785,-0.6815308229994028
1772785852974691300,5.08069140625,11.838768406546116,-1.853866410459578,-1.5627005673766134
1772785852984706300,5.090706298828125,13.771363778066634,-2.2704705049388108,-2.2900775610759854
1772785852994722600,5.10072265625,15.523766248565911,-2.6733471028387545,-2.7431299563780427
1772785853004738600,5.110738525390625,16.427487358903885,-2.9165456183493137,-2.915335073515773
1772785853014754600,5.120754638671875,16.081504176223277,-2.7728736449956894,-2.445268268918246
1772785853024769500,5.13076953125,14.516297178983688,-2.115735431909561,-1.1111202904537318
1772785853034785500,5.14078564453125,12.831507524508238,-1.331717828708142,-0.13790347295477987
1772785853044801500,5.150801513671875,11.185268257701397,-0.46381344329118723,0.5408168957337737
1772785853054816500,5.16081640625,9.1684058724761,0.6404508437879384,0.8082876827135682
1772785853064832500,5.17083251953125,8.427168987989425,1.4647721080660818,0.6937041489392518
1772785853074848500,5.1808486328125,9.485442946657537,0.5453824500836432,0.20881357695832847
1772785853084863500,5.190863525390625,10.77290910731554,-0.6916137525312602,-0.7188537877649068
1772785853094879500,5.20087939453125,11.036152047467231,-1.6294762019239366,-2.2703419101230797
1772785853104895500,5.2108955078125,10.49546929950714,-2.7614667003184556,-4.013759840786457
1772785853114911500,5.220911376953125,9.826745862567424,-3.6984763322740792,-5.263882651478052
1772785853124926500,5.230926513671875,9.170321350708603,-4.11547074124515,-5.7499020813584325
1772785853134942500,5.2409423828125,8.393302374222873,-4.085067711935937,-5.553814861112833
1772785853144958500,5.25095849609375,8.04595491745174,-3.14037190939188,-4.555000514890254
1772785853154973400,5.260973388671875,7.918806793397665,-2.07620319359675,-3.504280624863505
1772785853164989400,5.270989501953125,7.806427783930301,-1.0435887229725718,-2.6228452883526683
1772785853175005400,5.28100537109375,7.89486945297122,0.0663794748365879,-2.007171596816182
1772785853185021400,5.291021484375,8.09753897421658,1.093185624508187,-1.2855394303791223
1772785853195036400,5.301036376953125,8.59680250107348,1.81054778547585,-0.4620005486503243
1772785853205052400,5.311052490234375,9.252333278962968,2.2443989289626476,0.5827301474316046
1772785853215068700,5.321068603515625,9.864480257678032,2.7537966040819883,1.6032267851628361
1772785853225083600,5.331083740234375,9.90939258159399,3.26417130753994,2.2668986378014084
1772785853235099600,5.341099609375,9.341543594288826,3.531627189211547,2.5340634275719522
1772785853245115400,5.351115478515625,8.4096461907804,3.4068855417773127,2.5614953321158884
1772785853255130600,5.361130615234375,7.191569792690872,2.5269343063443896,2.8982614813789724
1772785853265146600,5.371146728515625,6.063199969011545,1.5314428209342061,2.8437060075879095
1772785853275162600,5.38116259765625,5.233447765725851,1.3501475116290151,2.9166017324507236
1772785853285178600,5.3911787109375,4.23257619471252,1.5008181116983295,2.6790426841318604
1772785853295193600,5.401193603515625,1.060496310892701,1.535545872338861,1.1845576479125768
1772785853305209600,5.411209716796875,-6.083514442765712,1.607951183336228,-2.2938167476043105
1772785853315225600,5.4212255859375,-15.017841510254144,1.483354643461108,-4.650079137727618
1772785853325240600,5.431240478515625,-21.847122882151602,-2.632640413919091,-5.420671296036243
1772785853335256600,5.441256591796875,-25.61248196260929,-5.471213150271773,-7.492118088886142
1772785853345272600,5.4512724609375,-30.237389834201334,-6.266460441887379,-8.706549992993473
1772785853355288600,5.46128857421875,-29.770373210954663,-3.8046389514446255,-6.87163348993659
1772785853365303600,5.471303466796875,-25.398306127965448,1.5781778302326797,-3.831358616065979
1772785853375319800,5.48131982421875,-23.058705826568602,3.8758600210934877,-3.81858096755743
1772785853385335800,5.491335693359375,-22.6250560508728,3.2314185002341866,-5.427586189991235
1772785853395350800,5.501350830078125,-21.96751101055145,1.2393528487436474,-6.651365768158436
1772785853405366800,5.51136669921875,-21.382446684551237,-0.216017590053007,-6.899297741931677
1772785853415382500,5.521382568359375,-20.086159504055974,-0.9073895697176456,-6.110460317358374
1772785853425398500,5.5313984375,-18.122044374155998,-1.3841115944206714,-4.867599606624245
1772785853435413500,5.54141357421875,-15.960046372765301,-1.926428373323381,-3.0990432891815898
1772785853445429500,5.551429443359375,-12.83584701501727,-2.577863698592782,-1.5988573379069566
1772785853455445500,5.561445556640625,-9.458020102202891,-2.8083272356927393,-0.602552782548219
1772785853465460500,5.57146044921875,-5.904449668991566,-2.249078318950534,-0.1195886485852301
1772785853475476500,5.5814765625,-2.8059634291708466,-1.412078774885088,-0.059432286047190426
1772785853485492700,5.59149267578125,0.10634791260957717,-0.3970562942486256,0.2105224267028272
1772785853495507700,5.6015078125,2.831780591994524,0.1086919915176928,0.11191541054360568
1772785853505523700,5.611523681640625,5.070394215553999,-0.03878697290346026,-0.08612685275990516
1772785853515539700,5.621539794921875,7.149391862174868,-0.33442228955067693,-0.32784327648654576
1772785853525555700,5.6315556640625,9.035127867364883,-0.5915514229971915,-1.0179672288514674
1772785853535570700,5.64157080078125,10.915473996210098,-0.6626015199933201,-1.724065726070106
1772785853545586700,5.651586669921875,12.986436220413445,-0.7862700583033263,-2.5271920804977417
1772785853555602400,5.6616025390625,14.431297174829243,-0.8311791673488914,-2.7561270928561687
1772785853565617700,5.67161767578125,15.553727671587467,-0.8243495405245572,-2.7587790686696767
1772785853575633400,5.68163330078125,15.364040966033935,-0.6984516357272863,-2.246884900559485
1772785853585649700,5.691649658203125,13.69610073955059,0.062276131170988076,-1.6340274354875086
1772785853595664400,5.701664306640625,11.298462090682984,1.3454812733836472,-1.281208561567962
1772785853605680600,5.7116806640625,9.357766999337077,2.5750182460337876,-0.7826201574936509
1772785853615696600,5.721696533203125,8.56725959572494,3.06988353793174,-0.14208850355446337
1772785853625712600,5.731712646484375,9.080963735866547,2.7981214834988117,0.39736645617634053
1772785853635727600,5.7417275390625,10.335932233023643,2.169967957356572,0.27581863634735343
1772785853645743600,5.75174365234375,11.764552831256388,1.3726179943732917,-0.5652142548874021
1772785853655759600,5.761759521484375,12.77104107310772,0.31788287735581394,-1.7791335332974791
1772785853665774600,5.771774658203125,12.875786226695775,-1.0770368190661073,-3.3173917333349583
1772785853675790600,5.78179052734375,12.023902855622767,-1.990322314954549,-4.479180427013337
1772785853685806600,5.791806640625,10.80431429940462,-2.1433178508400914,-5.112089330989122
1772785853695822600,5.801822509765625,9.933940162873268,-2.136582405105233,-5.4630415342539544
1772785853705837800,5.811837890625,9.04451353534758,-2.4964590885818003,-5.90643587437272
1772785853715853600,5.821853515625,7.906402069854736,-3.0640380267739293,-6.665678955671191
1772785853725869600,5.83186962890625,7.016030854955315,-3.570765898162126,-6.903173706582188
1772785853735884500,5.841884521484375,6.802354202005267,-3.8177036002010105,-6.489694027733802
1772785853745900500,5.851900634765625,7.160359830912947,-3.6313393170684574,-5.700992796760797
1772785853755916500,5.86191650390625,7.561164737105369,-3.018038492143154,-4.965676534494757
1772785853765931500,5.871931640625,7.81629568247199,-2.1845213833659884,-4.332137808182836
1772785853775947500,5.881947509765625,7.834501201248169,-1.230829204417765,-3.5646371861487625
1772785853785963500,5.891963623046875,7.952965083587169,-0.5678122354913503,-2.607291160868108
1772785853795979500,5.9019794921875,7.674908020663261,-0.34627792784348127,-1.7325325256422162
1772785853805994500,5.911994384765625,6.6260676607728,-0.11755003716340288,-1.0963296946875751
1772785853816010800,5.9220107421875,5.4268660590231415,0.3128785297298804,-0.25152568741627035
1772785853826026800,5.93202685546875,4.578248996269703,1.0911459353741257,-0.37394152225144206
1772785853836041700,5.942041748046875,1.89590902415812,2.3221784803442658,-0.8012199362844228
1772785853846057700,5.9520576171875,-4.7013855465948575,3.497331536377966,-1.7605800778664646
1772785853856073700,5.96207373046875,-12.178533445364236,4.853070730534196,-1.6433248406648635
1772785853866088700,5.972088623046875,-20.569049403738973,2.600539640781283,-1.3914385763078927
1772785853876104700,5.982104736328125,-26.601090848898885,-2.953345070697367,-1.6328871794112025
1772785853886120400,5.992120361328125,-24.703279205989837,-5.183257793667912,3.058013067395985
1772785853896136400,6.002136474609375,-21.223400616455077,-3.174756409552693,5.933243217277527
1772785853906151400,6.0121513671875,-19.761555794012544,1.8290888198167086,4.948263042879105
1772785853916167400,6.02216748046875,-19.62107180304527,5.170789941760897,3.5840430206254124
1772785853926183700,6.03218359375,-16.354492265319823,6.090711660793423,3.2500255855485793
1772785853936198700,6.04219873046875,-12.089857967567443,5.235695252391696,2.6705162633270025
1772785853946214700,6.052214599609375,-9.11601926715672,3.839297884632647,1.0552913626607507
1772785853956230700,6.062230712890625,-7.298602764955162,2.827524688115716,-0.42787086350079623
1772785853966246700,6.07224658203125,-6.9238523374736305,2.6454393974766135,-1.3613542575590312
1772785853976261600,6.08226171875,-7.179632686659693,1.8528980038188396,-1.7889977785773574
1772785853986277600,6.092277587890625,-6.521392065289616,1.1682684110864996,-1.6799864919774232
1772785853996293600,6.102293701171875,-6.172374629479647,1.6017532054789363,-1.7034738966792822
1772785854006308600,6.11230859375,-6.831453455239534,2.0046584449514744,-1.722723517680913
1772785854016324600,6.12232470703125,-7.207897242635488,1.4570665021248161,-1.7211410707950592
1772785854026340600,6.132340576171875,-6.854703397923708,0.6618843116346746,-1.7365550591565668
1772785854036355800,6.14235595703125,-6.03528846425712,0.11829488244764506,-1.8077283441409469
1772785854046371600,6.15237158203125,-4.743184706926345,-0.5922049550024793,-1.9881997698426246
1772785854056387600,6.1623876953125,-3.6230472895413635,-1.5314147638835012,-2.066838714532554
1772785854066403600,6.172403564453125,-2.6250042199522254,-2.3185613127604126,-2.3392377516947684
1772785854076418600,6.18241845703125,-1.1353004997253417,-2.6374200494110585,-2.5546070339068767
1772785854086434600,6.1924345703125,0.43882922416031356,-2.798131712631881,-2.6382664371073243
1772785854096450600,6.202450439453125,2.1973639138042924,-2.9219077299043534,-2.5893007461473343
1772785854106465500,6.212465576171875,3.8463422501862046,-3.131725661599636,-2.479856036566198
1772785854116481500,6.2224814453125,5.1349716094046824,-3.476155185097456,-2.104671601581573
1772785854126497500,6.23249755859375,6.075622812733053,-3.8387703536272046,-1.5943005513854325
1772785854136512500,6.242512451171875,6.339946533858776,-4.303150783151388,-1.0075164158552885
1772785854146528800,6.25252880859375,6.066544603264331,-4.6899680805236095,-0.4440590145725757
1772785854156544800,6.262544677734375,5.311619969686865,-4.831558571428061,0.04858260992653668
1772785854166560800,6.272560791015625,4.231075727021694,-4.823283787296712,0.5145487012069672
1772785854176575700,6.28257568359375,3.174467071217298,-4.861445175647735,1.2911075859002767
1772785854186591700,6.292591796875,2.3430992494285103,-4.6909892402648925,2.1882737216368318
1772785854196607500,6.302607421875,1.7290478983968496,-4.398073338644206,2.9190727987393736
1772785854206622700,6.312622802734375,1.4104168330222366,-3.9479204641759393,3.620890696029365
1772785854216638200,6.32263818359375,1.023506012147665,-3.1948934809133407,4.056248736947775
1772785854226654000,6.332654052734375,-0.3829068459302187,-1.8855739464960992,3.4232813807830214
1772785854236670000,6.342669921875,-3.4411756416529413,0.15395042545758186,2.0112436685606836
1772785854246685000,6.352684814453125,-6.874834916326403,2.771823551420867,1.0880333563115447
1772785854256701000,6.362700927734375,-9.805126735955476,4.586473803779483,0.9645742960337549
1772785854266717000,6.372717041015625,-10.393720405125617,5.295858336931467,0.9232732944827526
1772785854276732000,6.38273193359375,-9.019649727725982,5.383226239261031,1.039516870423779
1772785854286748000,6.392747802734375,-6.961267583632469,4.725585337349772,1.0636533136188984
1772785854296764000,6.402763916015625,-4.222774931666255,3.609553601717949,1.175238834621012
1772785854306779000,6.41277880859375,-1.3084423131912946,2.6064965033590792,1.25391811132133
1772785854316795000,6.422794921875,0.5863005897969007,1.854792877654731,1.0434336785413325
1772785854326811100,6.43281103515625,1.4893272881299255,1.3829744070842862,0.37545024631395935
1772785854336827100,6.4428271484375,1.4129840531617401,1.2988332117162644,0.014283249032218009
1772785854346842000,6.452842041015625,0.5658434927016497,1.5385393550664186,0.5007458378365263
1772785854356858000,6.462858154296875,-0.09608721535801887,1.6832558690369128,0.40144780720584095
1772785854366873900,6.472873779296875,-0.4680827911734581,1.8112300686515868,0.22447585925878955
1772785854376889000,6.48288916015625,0.16886720488667487,1.943101275704801,0.16555917631722986
1772785854386904800,6.49290478515625,1.9456074133068322,1.903695440250635,0.2189935736564919
1772785854396920800,6.5029208984375,3.966593015941977,1.744897793957591,0.6173759654097258
1772785854406935800,6.512935791015625,5.336700050407647,1.5722874570198355,0.9823004337951541
1772785854416951800,6.522951904296875,5.73686899678409,1.327505617840588,0.9481402439095079
1772785854426968000,6.532968017578125,5.413074849557876,1.321717535958439,0.5540562434699386
1772785854436984000,6.542984130859375,4.669388818353414,1.5418386888727544,0.12618548956699668
1772785854446999000,6.5529990234375,3.8465596923291683,1.6912473061822353,-0.12722400230187922
1772785854457015000,6.56301513671875,3.0306729327887294,1.7684832522064446,-0.2725952538540587
1772785854467031000,6.573031005859375,2.5138497838437557,1.7516650961354374,-0.14049849441666154
1772785854477046000,6.5830458984375,2.373949145722389,1.7495368519350885,0.029210348925925788
1772785854487062000,6.59306201171875,2.311549680432677,1.8714564276859162,0.07860898794308305
1772785854497078000,6.603078125,2.7006746702253817,1.7208524631120263,0.1425389507357031
1772785854507094000,6.613093994140625,3.169803171059489,1.479885067654401,0.2886304063212126
1772785854517109000,6.62310888671875,3.3936212787956,1.4348743979305028,0.2806364484252408
1772785854527125000,6.633125,3.4821921271741387,1.5368521326318383,0.018324870839528738
1772785854537141000,6.64314111328125,3.366772434836626,1.6066016684234141,-0.2527661889966577
1772785854547156000,6.653156005859375,3.9992344718277453,1.5602914604082703,-0.21612408263478428
1772785854557172000,6.663171875,4.381426447486877,1.7289703031159935,0.0987168697418645
1772785854567188000,6.67318798828125,2.9424001905739305,1.2806355839855967,-0.8809623121716081
1772785854577203000,6.683202880859375,1.8730016113013028,1.0018062215149401,-1.6603054938212036
1772785854587219000,6.693218994140625,1.5042495474517346,1.1344120264530182,-0.8475813630301505
1772785854597235000,6.70323486328125,1.6833242580980061,1.2939951240353285,-1.028635922382027
1772785854607251000,6.7132509765625,0.9857049815416336,1.1048575767971576,-1.5028300360426305
1772785854617266000,6.723265869140625,0.9369108477562665,1.234220746552199,-1.5219387872688472
1772785854627282000,6.733281982421875,0.686926617628336,1.116311575486511,-1.5713453538641333
1772785854637298200,6.743298095703125,1.13256201467216,0.9139690942384302,-1.6244997286856173
1772785854647313000,6.75331298828125,1.618095706862211,0.8313701598763465,-1.4958381313286722
1772785854657329200,6.7633291015625,1.3208224868148564,0.466865962729603,-1.6930945414841174
1772785854667345200,6.77334521484375,1.075461240312457,0.09673325817659496,-1.928955992104858
1772785854677361000,6.78336083984375,1.1780676283061504,-0.33048210055753585,-1.775939559561759
1772785854687376100,6.793376220703125,1.5033078826874493,-0.8794714890919625,-1.5142568544641137
1772785854697391900,6.803391845703125,1.8926438848823308,-1.072889636258781,-1.1395843145243822
1772785854707408000,6.813407958984375,2.0000556273311374,-0.867644565436989,-1.0403978179767728
1772785854717422800,6.8234228515625,1.6566092696517705,-0.35383798783421516,-1.2060293288778512
1772785854727438800,6.83343896484375,1.0444605373710394,0.21408567214235663,-1.2793562116995454
1772785854737454800,6.843454833984375,0.6670189711093902,0.4281016400493681,-1.1831946159310638
1772785854747471000,6.85347119140625,0.6581482669115066,0.32638226402327414,-0.765736973362416
1772785854757486000,6.863486083984375,1.0126192919522523,0.3244702929221093,-0.37379634162709113
1772785854767502000,6.873502197265625,1.23342185125947,0.454440342529118,-0.12428824111092834
1772785854777518000,6.88351806640625,1.1682757176101206,0.6015389293305575,0.01863360799513757
1772785854787533000,6.893532958984375,0.8995172289073466,0.6942194049850106,-0.026837774575687944
1772785854797549000,6.903549072265625,0.6028928281575441,0.7215672845073043,-0.1577702760066837
1772785854807565000,6.91356494140625,0.343670229563117,0.6201062671564519,-0.20317425589710472
1772785854817580000,6.923580078125,0.3208995948284864,0.4892253863148391,-0.18511150659248232
1772785854827596000,6.933595947265625,0.4155862957388162,0.28647432426586744,-0.20482706460542977
1772785854837612000,6.943612060546875,0.5908510927081108,0.10534969535246491,-0.2916059150006622
1772785854847627800,6.953627685546875,0.708215489372611,0.047035745810717344,-0.37413448754027484
1772785854857643000,6.96364306640625,0.6822510270327329,-0.06496361668929457,-0.43784810416847464
1772785854867659000,6.973658935546875,0.4316191466510296,-0.17962416122257707,-0.49440030473470686
1772785854877675000,6.983675048828125,0.18726970753967762,-0.3109546855278313,-0.5886405039865523
1772785854887690000,6.99368994140625,0.06707096423208714,-0.3696653793022036,-0.6630754941806197
1772785854897706000,7.0037060546875,0.024360534274578093,-0.3403676808863878,-0.6149220694515853
1772785854907722000,7.013721923828125,0.08266717729270458,0.03788958567231893,-0.5331825283978134
1772785854917738000,7.023738037109375,-0.13543664444983006,0.05568666977807879,-0.4537932037319988
1772785854927753000,7.0337529296875,0.06360767203569412,-0.26724326183423397,-0.4376047238666564
1772785854937769000,7.04376904296875,0.20007249048948286,-0.5409983897805214,-0.47100481610000133
1772785854947785000,7.053784912109375,0.20775836881697177,-0.43438978040814397,-0.7145869971659035
1772785854957800000,7.063800048828125,0.14728841028511525,-0.025701865880936384,-0.8299034483246505
1772785854967816000,7.07381591796875,0.09534428803622721,0.07730930352136492,-0.6649097969356924
1772785854977832200,7.083832275390625,-0.024876667103171348,-0.03174801417738199,-0.540391071537137
1772785854987848000,7.093847900390625,-0.21296996598541734,-0.17499971629232167,-0.4128789364762604
1772785854997863200,7.10386328125,-0.3204179487913847,-0.2387681318476796,-0.2933086272653192
