time,seconds_elapsed,z,y,x
1772785847946805500,0.052805419921875,-0.09855185449123383,0.3577914535999298,-0.3872683644294739
1772785847956821500,0.062821533203125,-0.13441967964172363,0.3084409534931183,-0.32106369733810425
1772785847966836500,0.07283642578125,-0.12398648262023926,0.2627301812171936,-0.24724195897579193
1772785847976852500,0.0828525390625,-0.06740954518318176,0.25010278820991516,-0.1743689328432083
1772785847986868500,0.092868408203125,0.02321436256170273,0.25117233395576477,-0.1030859649181366
1772785847996883500,0.102883544921875,0.1158791333436966,0.2280827760696411,-0.04838496819138527
1772785848006899700,0.112899658203125,0.2115207016468048,0.17881083488464355,-0.03236685320734978
1772785848016915500,0.12291552734375,0.2838307023048401,0.11507774889469147,-0.06288938224315643
1772785848026931500,0.132931396484375,0.3420327603816986,0.02734895795583725,-0.12010126560926437
1772785848036946400,0.142946533203125,0.3413347601890564,-0.04960889741778374,-0.1660606861114502
1772785848046962400,0.15296240234375,0.2713463604450226,-0.09234330803155899,-0.18114322423934937
1772785848056978400,0.162978515625,0.19407294690608978,-0.09295197576284409,-0.1690552979707718
1772785848066993400,0.172993408203125,0.17650486528873444,-0.05302480608224869,-0.1531117558479309
1772785848077009400,0.183009521484375,0.19648748636245728,0.023078136146068573,-0.1642453372478485
1772785848087025400,0.193025390625,0.22142399847507477,0.10278148949146271,-0.1861194670200348
1772785848097041700,0.203041748046875,0.2438078224658966,0.14372430741786957,-0.22015884518623352
1772785848107056400,0.213056396484375,0.25689008831977844,0.15303818881511688,-0.27829644083976746
1772785848117072600,0.22307275390625,0.22739900648593903,0.14187924563884735,-0.3426622152328491
1772785848127088600,0.233088623046875,0.1449027955532074,0.17469631135463715,-0.4073847532272339
1772785848137103600,0.243103515625,0.005597423762083054,0.23406213521957397,-0.4706502854824066
1772785848147119600,0.25311962890625,-0.16099607944488525,0.2847641706466675,-0.5314121842384338
1772785848157135400,0.26313525390625,-0.3109191954135895,0.33725595474243164,-0.5991024971008301
1772785848167151400,0.2731513671875,-0.4023364782333374,0.3793783485889435,-0.6571900248527527
1772785848177166300,0.283166259765625,-0.4425066113471985,0.37780752778053284,-0.6821982860565186
1772785848187182300,0.293182373046875,-0.4303319752216339,0.3190518021583557,-0.6734309196472168
1772785848197198300,0.3031982421875,-0.3325345516204834,0.20985932648181915,-0.6350772976875305
1772785848207213600,0.313213623046875,-0.18817737698554993,0.08663725107908249,-0.5785778164863586
1772785848217229600,0.3232294921875,-0.028750602155923843,-0.04879050701856613,-0.5195625424385071
1772785848227245600,0.33324560546875,0.12397130578756332,-0.15816867351531982,-0.4719572365283966
1772785848237260500,0.343260498046875,0.20872001349925995,-0.17331379652023315,-0.4418752193450928
1772785848247276500,0.353276611328125,0.23471060395240784,-0.1718975305557251,-0.43302181363105774
1772785848257292800,0.363292724609375,0.2445332556962967,-0.15550529956817627,-0.43985533714294434
1772785848267308800,0.373308837890625,0.2569350600242615,-0.12462037056684494,-0.4261576533317566
1772785848277323800,0.38332373046875,0.2629360854625702,-0.09515025466680527,-0.38313016295433044
1772785848287339800,0.39333984375,0.2744167149066925,-0.07174106687307358,-0.3298259377479553
1772785848297355800,0.403355712890625,0.28764331340789795,-0.052205901592969894,-0.3090943694114685
1772785848307370800,0.413370849609375,0.29453369975090027,-0.024526605382561684,-0.31930652260780334
1772785848317386800,0.42338671875,0.30446967482566833,0.006489367224276066,-0.34083977341651917
1772785848327402500,0.433402587890625,0.3178623616695404,0.027098361402750015,-0.3658164441585541
1772785848337418500,0.44341845703125,0.32593834400177,0.030045285820961,-0.38740572333335876
1772785848347433500,0.45343359375,0.33324846625328064,0.013871642760932446,-0.3891969621181488
1772785848357449700,0.46344970703125,0.3504290282726288,-0.007749960757791996,-0.3837009370326996
1772785848367465700,0.4734658203125,0.3554738461971283,-0.047124795615673065,-0.34919488430023193
1772785848377480700,0.483480712890625,0.3564895987510681,-0.0752992033958435,-0.30677416920661926
1772785848387496700,0.49349658203125,0.35474255681037903,-0.10190045088529587,-0.2552068531513214
1772785848397512700,0.5035126953125,0.3518894612789154,-0.10562383383512497,-0.227971613407135
1772785848407528700,0.51352880859375,0.3469213545322418,-0.10601851344108582,-0.20602503418922424
1772785848417543700,0.523543701171875,0.34489333629608154,-0.09457118064165115,-0.2088911384344101
1772785848427559700,0.5335595703125,0.34886544942855835,-0.07625448703765869,-0.22549887001514435
1772785848437575700,0.54357568359375,0.35627755522727966,-0.07851327955722809,-0.24394960701465607
1772785848447590700,0.553590576171875,0.3539600670337677,-0.08776270598173141,-0.25587737560272217
1772785848457606700,0.563606689453125,0.35333251953125,-0.1022401675581932,-0.25566771626472473
1772785848467622700,0.57362255859375,0.3565176725387573,-0.11510217189788818,-0.2368767261505127
1772785848477638700,0.583638671875,0.35806187987327576,-0.1060175970196724,-0.21784335374832153
1772785848487653600,0.593653564453125,0.3619769811630249,-0.08737414330244064,-0.19836392998695374
1772785848497669600,0.603669677734375,0.3695976734161377,-0.05477859079837799,-0.17188416421413422
1772785848507685600,0.613685546875,0.3772662580013275,-0.03667948395013809,-0.14333055913448334
1772785848517700600,0.62370068359375,0.386089563369751,-0.032904691994190216,-0.09502269327640533
1772785848527716600,0.633716552734375,0.39134371280670166,-0.029471345245838165,-0.03670000284910202
1772785848537732600,0.643732666015625,0.3962572515010834,-0.02721933275461197,0.03560464829206467
1772785848547748600,0.65374853515625,0.4047761857509613,-0.027501627802848816,0.09964701533317566
1772785848557763600,0.663763671875,0.4132338762283325,-0.023671232163906097,0.12439098954200745
1772785848567779600,0.673779541015625,0.4196845591068268,-0.01597443036735058,0.10903626680374146
1772785848577795800,0.6837958984375,0.42198920249938965,-0.020690450444817543,0.07161403447389603
1772785848587810800,0.693810791015625,0.42465314269065857,-0.02728630229830742,0.012617821805179119
1772785848597826800,0.703826904296875,0.42493706941604614,-0.03827602043747902,-0.06414733827114105
1772785848607842600,0.713842529296875,0.4238009750843048,-0.03471537306904793,-0.13863036036491394
1772785848617857800,0.72385791015625,0.42094898223876953,-0.012425713241100311,-0.1958262026309967
1772785848627873500,0.73387353515625,0.42775973677635193,0.03489413112401962,-0.24006129801273346
1772785848637889500,0.7438896484375,0.430355042219162,0.08981785178184509,-0.2683418095111847
1772785848647905500,0.753905517578125,0.41992077231407166,0.13095863163471222,-0.27181991934776306
1772785848657920500,0.76392041015625,0.41143566370010376,0.16072334349155426,-0.24310828745365143
1772785848667936500,0.7739365234375,0.38908135890960693,0.18937522172927856,-0.19562038779258728
1772785848677952800,0.783952880859375,0.37189731001853943,0.21116070449352264,-0.13986313343048096
1772785848687967500,0.793967529296875,0.3610486388206482,0.24837012588977814,-0.09070810675621033
1772785848697983700,0.803983642578125,0.3547070026397705,0.2906660735607147,-0.0646316185593605
1772785848707999700,0.813999755859375,0.3451539874076843,0.3154963254928589,-0.07009030133485794
1772785848718015700,0.824015625,0.33349087834358215,0.30785229802131653,-0.0986379086971283
1772785848728030700,0.83403076171875,0.30277130007743835,0.26844605803489685,-0.14377157390117645
1772785848738046700,0.844046630859375,0.26648229360580444,0.1865050345659256,-0.20591731369495392
1772785848748062700,0.854062744140625,0.24048319458961487,0.08498240262269974,-0.2757086157798767
1772785848758077700,0.86407763671875,0.2315986454486847,-0.0033873138017952442,-0.3311327397823334
1772785848768093700,0.87409375,0.22252659499645233,-0.029190147295594215,-0.35963550209999084
1772785848778109400,0.884109375,0.21816200017929077,0.016593756154179573,-0.3614760637283325
1772785848788125700,0.894125732421875,0.2309901863336563,0.11038682609796524,-0.33787432312965393
1772785848798140700,0.904140625,0.2462301254272461,0.22737406194210052,-0.2894454598426819
1772785848808156700,0.91415673828125,0.25415968894958496,0.3535389304161072,-0.22021284699440002
1772785848818172700,0.924172607421875,0.23410294950008392,0.4618668556213379,-0.1395837813615799
1772785848828187600,0.934187744140625,0.21177101135253906,0.5217719674110413,-0.08036892116069794
1772785848838203600,0.94420361328125,0.1808575987815857,0.5227032899856567,-0.04598154500126839
1772785848848219600,0.9542197265625,0.1480748951435089,0.47183021903038025,-0.035987235605716705
1772785848858235600,0.964235595703125,0.1260291337966919,0.39701440930366516,-0.03855225816369057
1772785848868250600,0.974250732421875,0.1089811623096466,0.3162420690059662,-0.055139221251010895
1772785848878266600,0.9842666015625,0.10210201144218445,0.24642394483089447,-0.0785435140132904
1772785848888282600,0.99428271484375,0.09213459491729736,0.20029933750629425,-0.09947595745325089
1772785848898297600,1.004297607421875,0.08783301711082458,0.17993390560150146,-0.10824336111545563
1772785848908313900,1.01431396484375,0.07856734097003937,0.1866929978132248,-0.10575729608535767
1772785848918329600,1.02432958984375,0.06514926254749298,0.204352006316185,-0.09532179683446884
1772785848928345600,1.034345703125,0.05161028355360031,0.23000063002109528,-0.0809287428855896
1772785848938360600,1.044360595703125,0.043096788227558136,0.2474127560853958,-0.06625806540250778
1772785848948376600,1.05437646484375,0.03662557154893875,0.2640521824359894,-0.05512205883860588
1772785848958392600,1.064392578125,0.03564830124378204,0.27562910318374634,-0.05536489933729172
1772785848968407600,1.074407470703125,0.04051496088504791,0.2647170424461365,-0.069746233522892
1772785848978423600,1.084423583984375,0.04915968328714371,0.2454349547624588,-0.09904807806015015
1772785848988439600,1.094439453125,0.06284859776496887,0.23697009682655334,-0.1289529800415039
1772785848998454500,1.10445458984375,0.0766807496547699,0.2412455677986145,-0.158548966050148
1772785849008470800,1.114470703125,0.09101627767086029,0.2469330132007599,-0.1843786984682083
1772785849018486800,1.12448681640625,0.09881725162267685,0.24057789146900177,-0.2095588743686676
1772785849028502800,1.134502685546875,0.10582056641578674,0.24367833137512207,-0.22973790764808655
1772785849038517800,1.144517822265625,0.11691329628229141,0.24494513869285583,-0.23827853798866272
1772785849048533800,1.15453369140625,0.13593465089797974,0.24950633943080902,-0.24953198432922363
1772785849058549800,1.1645498046875,0.14947225153446198,0.2565675675868988,-0.2705540060997009
1772785849068564700,1.174564697265625,0.16269005835056305,0.2565377354621887,-0.29781919717788696
1772785849078580700,1.184580810546875,0.17429275810718536,0.2519911229610443,-0.317626416683197
1772785849088596500,1.194596435546875,0.18594568967819214,0.2463790327310562,-0.3306034803390503
1772785849098612500,1.204612548828125,0.19308313727378845,0.2400609701871872,-0.3348659873008728
1772785849108627500,1.21462744140625,0.20027713477611542,0.222686767578125,-0.32120636105537415
1772785849118643700,1.224643798828125,0.21071483194828033,0.21003513038158417,-0.2871451675891876
1772785849128659700,1.23465966796875,0.20893797278404236,0.20853576064109802,-0.22964617609977722
1772785849138674700,1.2446748046875,0.1967519074678421,0.20996057987213135,-0.16023239493370056
1772785849148690700,1.254690673828125,0.18757225573062897,0.2179388850927353,-0.078488789498806
1772785849158706700,1.264706787109375,0.19817602634429932,0.22784560918807983,0.007194458972662687
1772785849168722700,1.27472265625,0.23257474601268768,0.20625002682209015,0.10802706331014633
1772785849178737700,1.284737548828125,0.2840504050254822,0.18135522305965424,0.2024535983800888
1772785849188753700,1.294753662109375,0.3384140431880951,0.14138756692409515,0.28693652153015137
1772785849198769700,1.304769775390625,0.4009590446949005,0.12951645255088806,0.3755953907966614
1772785849208785000,1.314784912109375,0.46280989050865173,0.06624852120876312,0.4633124768733978
1772785849218801000,1.32480078125,0.46876925230026245,0.0060073696076869965,0.5297249555587769
1772785849228816600,1.334816650390625,0.4167923629283905,-0.00202632206492126,0.5495300889015198
1772785849238831900,1.344831787109375,0.38208818435668945,0.013965317979454994,0.5400954484939575
1772785849248847600,1.35484765625,0.4384760856628418,0.08036111295223236,0.4754234850406647
1772785849258863600,1.364863525390625,0.5534597635269165,0.12982387840747833,0.38070836663246155
1772785849268879600,1.374879638671875,0.6939145922660828,0.2090151011943817,0.2841152548789978
1772785849278894600,1.38489453125,0.8077977299690247,0.2928711175918579,0.226220965385437
1772785849288910600,1.39491064453125,0.8498213291168213,0.36705613136291504,0.24294668436050415
1772785849298926800,1.4049267578125,0.8319715261459351,0.4645545482635498,0.3839968144893646
1772785849308941800,1.41494189453125,0.7805157899856567,0.5851717591285706,0.7126055955886841
1772785849318957800,1.424957763671875,0.6997730135917664,0.7000463008880615,1.2163947820663452
1772785849328973800,1.434973876953125,0.6303627490997314,0.7708722949028015,1.7884119749069214
1772785849338989800,1.44498974609375,0.6205226182937622,0.7165051698684692,2.2458629608154297
1772785849349004800,1.4550048828125,0.6669687032699585,0.4487334191799164,2.49515438079834
1772785849359020800,1.465020751953125,0.7621539235115051,0.00883470382541418,2.542505979537964
1772785849369036800,1.475036865234375,0.8994694352149963,-0.43743517994880676,2.395894765853882
1772785849379051800,1.4850517578125,1.0450252294540405,-0.8107709288597107,2.095587968826294
1772785849389067800,1.49506787109375,1.1819047927856445,-1.0344370603561401,1.6946896314620972
1772785849399083800,1.505083740234375,1.348807692527771,-1.1031745672225952,1.2264430522918701
1772785849409098800,1.5150986328125,1.565428376197815,-1.1395986080169678,0.7313010096549988
1772785849419114800,1.52511474609375,1.8013948202133179,-1.1618854999542236,0.3026612401008606
1772785849429130800,1.535130859375,2.012237548828125,-1.2092386484146118,-0.0006491118692792952
1772785849439146800,1.545146728515625,2.144883632659912,-1.255165457725525,-0.21214823424816132
1772785849449161700,1.55516162109375,2.1411359310150146,-1.2552357912063599,-0.3936128318309784
1772785849459177700,1.565177734375,1.9898909330368042,-1.244269609451294,-0.5996838212013245
1772785849469193700,1.57519384765625,1.7229952812194824,-1.3203843832015991,-0.8898122906684875
1772785849479208700,1.585208740234375,1.4332231283187866,-1.490828275680542,-1.2458827495574951
1772785849489224700,1.595224609375,1.1860766410827637,-1.6709625720977783,-1.6106337308883667
1772785849499240700,1.60524072265625,0.9890066385269165,-1.7936506271362305,-1.9096038341522217
1772785849509257000,1.615257080078125,0.8165099620819092,-1.858462929725647,-2.1146605014801025
1772785849519272000,1.62527197265625,0.6178135275840759,-1.8501957654953003,-2.234466075897217
1772785849529288000,1.635287841796875,0.3843717575073242,-1.6988177299499512,-2.3210995197296143
1772785849539303700,1.6453037109375,0.13282102346420288,-1.4768863916397095,-2.3697948455810547
1772785849549319000,1.65531884765625,-0.08088567107915878,-1.1912039518356323,-2.3447182178497314
1772785849559334700,1.665334716796875,-0.18571195006370544,-0.831287682056427,-2.2225935459136963
1772785849569350700,1.6753505859375,-0.141420379281044,-0.5105669498443604,-1.9991482496261597
1772785849579366700,1.68536669921875,-0.08156684041023254,-0.24685992300510406,-1.721522331237793
1772785849589381600,1.695381591796875,-0.11258174479007721,-0.020420392975211143,-1.461338996887207
1772785849599397600,1.705397705078125,-0.21516041457653046,0.1916247457265854,-1.250981330871582
1772785849609413600,1.71541357421875,-0.34714269638061523,0.31497228145599365,-1.0667006969451904
1772785849619428600,1.7254287109375,-0.4701933264732361,0.3435303568840027,-0.8566213250160217
1772785849629444900,1.73544482421875,-0.5692682862281799,0.2945665419101715,-0.6487765312194824
1772785849639460900,1.7454609375,-0.5907153487205505,0.2095828503370285,-0.4006158113479614
1772785849649475800,1.755475830078125,-0.5521588921546936,0.15218320488929749,-0.08158803731203079
1772785849659491800,1.765491943359375,-0.5115828514099121,0.09290317445993423,0.2460874319076538
1772785849669507800,1.7755078125,-0.5100403428077698,-0.00603378564119339,0.4933377206325531
1772785849679523600,1.785523681640625,-0.5453153252601624,-0.09462036937475204,0.591164231300354
1772785849689538800,1.795538818359375,-0.6188390851020813,-0.10424476861953735,0.5489877462387085
1772785849699554600,1.805554443359375,-0.7003763914108276,-0.0504678376019001,0.4240965247154236
1772785849709570600,1.815570556640625,-0.7912945747375488,-0.041655704379081726,0.2574087679386139
1772785849719585500,1.82558544921875,-0.8926718831062317,-0.08610187470912933,0.09630726277828217
1772785849729601500,1.8356015625,-1.0026545524597168,-0.13036015629768372,-0.01059841550886631
1772785849739617800,1.84561767578125,-1.1369481086730957,-0.1432613879442215,-0.04351983591914177
1772785849749633800,1.8556337890625,-1.2742830514907837,-0.11181370913982391,-0.056191958487033844
1772785849759648800,1.865648681640625,-1.3568267822265625,-0.0032212622463703156,-0.08827891945838928
1772785849769664800,1.875664794921875,-1.367409586906433,0.13233257830142975,-0.1127251386642456
1772785849779680800,1.8856806640625,-1.3083921670913696,0.29324671626091003,-0.09866596758365631
1772785849789695700,1.89569580078125,-1.183368444442749,0.450645387172699,-0.06729312986135483
1772785849799711700,1.905711669921875,-1.0022107362747192,0.5823231339454651,-0.020002154633402824
1772785849809727700,1.915727783203125,-0.8125446438789368,0.7121527791023254,0.06311403959989548
1772785849819743700,1.92574365234375,-0.6536312699317932,0.7847903370857239,0.17577140033245087
1772785849829758700,1.9357587890625,-0.5797445178031921,0.808684229850769,0.3205733001232147
1772785849839774700,1.945774658203125,-0.5458552837371826,0.8648504018783569,0.5251004099845886
1772785849849790700,1.955790771484375,-0.5175405740737915,0.9699901342391968,0.7855271697044373
1772785849859805700,1.9658056640625,-0.4478280544281006,1.0453046560287476,1.0422078371047974
1772785849869821700,1.97582177734375,-0.34041425585746765,1.0619568824768066,1.2313141822814941
1772785849879837700,1.985837646484375,-0.24242371320724487,0.9849945306777954,1.3069418668746948
1772785849889853700,1.995853759765625,-0.15082669258117676,0.764980137348175,1.2439303398132324
1772785849899868700,2.00586865234375,-0.037742361426353455,0.3776114881038666,1.096020221710205
1772785849909884700,2.015884765625,0.08609702438116074,-0.09528975933790207,0.9232474565505981
1772785849919900700,2.025900634765625,0.12501834332942963,-0.5091356039047241,0.7814922332763672
1772785849929915600,2.03591552734375,0.13409972190856934,-0.7317662835121155,0.7316727638244629
1772785849939931600,2.045931640625,0.12952540814876556,-0.6447882652282715,0.7515888214111328
1772785849949948000,2.055947998046875,0.1928042471408844,-0.17506791651248932,0.6633476614952087
1772785849959964000,2.0659638671875,0.03799495846033096,0.2850116491317749,0.1535239964723587
1772785849969979000,2.075978759765625,-0.46162149310112,0.5886391997337341,-0.6687229871749878
1772785849979995000,2.085994873046875,-0.9401538372039795,0.7951841354370117,-1.5065966844558716
1772785849990010600,2.0960107421875,-1.2351042032241821,0.658118724822998,-2.1624984741210938
1772785850000025900,2.10602587890625,-1.5451070070266724,0.26623135805130005,-2.4737446308135986
1772785850010041600,2.11604150390625,-1.7661765813827515,-0.25587499141693115,-2.43768572807312
1772785850020057600,2.1260576171875,-1.8192806243896484,-0.8287964463233948,-2.276970386505127
1772785850030072600,2.136072509765625,-1.8438798189163208,-1.2368850708007812,-2.093733310699463
1772785850040088600,2.146088623046875,-1.7623764276504517,-1.2031866312026978,-1.8449721336364746
1772785850050104800,2.156104736328125,-1.5680851936340332,-0.9272509217262268,-1.5326733589172363
1772785850060120800,2.166120849609375,-1.3132649660110474,-0.5096822381019592,-1.1767007112503052
1772785850070135800,2.1761357421875,-1.0872573852539062,0.016088362783193588,-0.7485935091972351
1772785850080151800,2.18615185546875,-0.9437775015830994,0.5640474557876587,-0.2945026755332947
1772785850090167800,2.196167724609375,-0.891944408416748,1.1118106842041016,0.05339403077960014
1772785850100182800,2.206182861328125,-0.880901575088501,1.5907481908798218,0.22898156940937042
1772785850110198800,2.21619873046875,-0.9081406593322754,1.8924039602279663,0.24758455157279968
1772785850120214800,2.22621484375,-0.9540286660194397,2.055776357650757,0.18689416348934174
1772785850130230800,2.236230712890625,-0.9538185596466064,2.1342241764068604,0.11294910311698914
1772785850140245800,2.246245849609375,-0.8427026867866516,2.143524408340454,0.019553828984498978
1772785850150261800,2.25626171875,-0.6570001840591431,2.049433946609497,-0.13386741280555725
1772785850160277800,2.26627783203125,-0.4370412230491638,1.8456387519836426,-0.33658209443092346
1772785850170292700,2.276292724609375,-0.2259598821401596,1.552049994468689,-0.5117582082748413
1772785850180308700,2.286308837890625,-0.05673470348119736,1.2065001726150513,-0.619888186454773
1772785850190324700,2.29632470703125,0.03499734774231911,0.9486351609230042,-0.703559935092926
1772785850200340700,2.3063408203125,0.05507836118340492,0.7858909368515015,-0.8735926151275635
1772785850210355000,2.31635498046875,-0.02118285372853279,0.5821061134338379,-1.1237345933914185
1772785850220371000,2.326370849609375,-0.08651993423700333,0.254269540309906,-1.3935025930404663
1772785850230387000,2.336386962890625,-0.025015028193593025,-0.1834774613380432,-1.6508827209472656
1772785850240402000,2.34640185546875,0.23006640374660492,-0.6135067343711853,-1.8479722738265991
1772785850250418000,2.35641796875,0.5907471179962158,-0.9453414082527161,-1.889992117881775
1772785850260434000,2.366433837890625,0.865186870098114,-1.043840765953064,-1.6200507879257202
1772785850270449000,2.376448974609375,0.996238648891449,-0.8895880579948425,-1.086134910583496
1772785850280465000,2.38646484375,1.037142276763916,-0.7113943696022034,-0.5064521431922913
1772785850290481200,2.396481201171875,1.0644692182540894,-0.6538903713226318,-0.02779497765004635
1772785850300497200,2.4064970703125,1.1238462924957275,-0.6931244730949402,0.28311604261398315
1772785850310512000,2.41651220703125,1.2011445760726929,-0.7710402607917786,0.43169885873794556
1772785850320528100,2.426528076171875,1.2917617559432983,-0.8646253943443298,0.45914679765701294
1772785850330543900,2.4365439453125,1.346426010131836,-0.8941196203231812,0.4136352241039276
1772785850340559000,2.44655908203125,1.3169126510620117,-0.8179649114608765,0.3062970042228699
1772785850350574800,2.456574951171875,1.167319416999817,-0.5282987356185913,0.16264234483242035
1772785850360590800,2.4665908203125,0.9308005571365356,-0.11110410839319229,0.02335144393146038
1772785850370606800,2.47660693359375,0.692421019077301,0.2825406491756439,-0.11823764443397522
1772785850380621800,2.486621826171875,0.5178660154342651,0.6024509072303772,-0.24653880298137665
1772785850390637800,2.496637939453125,0.4671633541584015,0.7907909750938416,-0.31843775510787964
1772785850400654000,2.506654052734375,0.5327904224395752,0.8437197208404541,-0.27904045581817627
1772785850410669000,2.5166689453125,0.6334555149078369,0.7212331891059875,-0.14429275691509247
1772785850420685000,2.52668505859375,0.6767541766166687,0.23871952295303345,0.04797280579805374
1772785850430701000,2.536701171875,0.6254949569702148,-0.6659674644470215,0.2476518303155899
1772785850440717000,2.546717041015625,0.6104310154914856,-1.9627087116241455,0.409381240606308
1772785850450732000,2.55673193359375,0.6965445876121521,-2.831707000732422,0.6509688496589661
1772785850460748000,2.566748046875,1.0238386392593384,-2.7981619834899902,1.0612213611602783
1772785850470764000,2.576763916015625,1.0301671028137207,-2.0402309894561768,1.0004949569702148
1772785850480779000,2.586779052734375,0.777571976184845,-0.8387069702148438,0.0707009807229042
1772785850490795000,2.596794921875,0.30198919773101807,0.017332078889012337,-0.9972977042198181
1772785850500811000,2.60681103515625,-0.02907383069396019,0.6098116636276245,-1.3504009246826172
1772785850510827000,2.616826904296875,-0.23983320593833923,0.5971778631210327,-1.0648785829544067
1772785850520842000,2.626842041015625,-0.4135069251060486,0.26834335923194885,-0.6084537506103516
1772785850530858000,2.63685791015625,-0.6529844403266907,-0.28273364901542664,-0.3810823857784271
1772785850540874000,2.6468740234375,-0.8023172616958618,-0.8574032783508301,-0.365158349275589
1772785850550889000,2.656888916015625,-0.7794532179832458,-0.9350088238716125,-0.40277284383773804
1772785850560905000,2.666905029296875,-0.7909265756607056,-0.6828272342681885,-0.6235961318016052
1772785850570921000,2.6769208984375,-0.9176076054573059,-0.4748530089855194,-0.8093398809432983
1772785850580936000,2.68693603515625,-0.9899610877037048,-0.33167770504951477,-0.6657726764678955
1772785850590952000,2.696951904296875,-1.0421347618103027,-0.2922285795211792,-0.21392318606376648
1772785850600968000,2.706968017578125,-1.0423237085342407,-0.26273247599601746,0.34787946939468384
1772785850610984200,2.716984130859375,-0.9835144877433777,-0.17572325468063354,0.7857377529144287
1772785850620999200,2.726999267578125,-0.9212241172790527,-0.05781125649809837,1.0534768104553223
1772785850631015200,2.73701513671875,-0.9019718766212463,0.22850118577480316,1.1542795896530151
1772785850641031000,2.747031005859375,-0.8521537780761719,0.6782490611076355,1.1118896007537842
1772785850651046100,2.757046142578125,-0.7102373838424683,1.0920449495315552,0.871903657913208
1772785850661062000,2.767061767578125,-0.5465677380561829,1.4245976209640503,0.4857095181941986
1772785850671078000,2.777077880859375,-0.3857354521751404,1.7133358716964722,0.09197873622179031
1772785850681094000,2.787093994140625,-0.24832600355148315,1.9462847709655762,-0.2049243301153183
1772785850691108900,2.79710888671875,-0.1532365083694458,2.1515135765075684,-0.3743085563182831
1772785850701124900,2.807124755859375,-0.09876096248626709,2.3299429416656494,-0.436056524515152
1772785850711140900,2.817140869140625,-0.06749225407838821,2.503369092941284,-0.3571832776069641
1772785850721155800,2.82715576171875,-0.026620427146553993,2.640977621078491,-0.19661515951156616
1772785850731172000,2.837172119140625,0.05070897936820984,2.691807270050049,-0.012768092565238476
1772785850741188000,2.84718798828125,0.1823110431432724,2.640831470489502,0.11590975522994995
1772785850751204000,2.8572041015625,0.3530808985233307,2.5073955059051514,0.10213988274335861
1772785850761219000,2.867218994140625,0.6176662445068359,2.3048207759857178,0.015121715143322945
1772785850771235000,2.877235107421875,0.9245303273200989,2.0867998600006104,-0.08969337493181229
1772785850781251000,2.8872509765625,1.1869897842407227,1.8124233484268188,-0.17548473179340363
1772785850791266000,2.89726611328125,1.3678139448165894,1.400978446006775,-0.2202918827533722
1772785850801282000,2.907281982421875,1.477697730064392,0.789049506187439,-0.12666217982769012
1772785850811297800,2.9172978515625,1.5671762228012085,0.14180177450180054,0.07542461156845093
1772785850821314000,2.92731396484375,1.6615371704101562,-0.4390510320663452,0.27611926198005676
1772785850831329000,2.9373291015625,1.7173959016799927,-0.8429346084594727,0.4988465905189514
1772785850841345000,2.947344970703125,1.6845797300338745,-1.115688681602478,0.7794430255889893
1772785850851361000,2.957361083984375,1.5765727758407593,-1.1884082555770874,1.0968366861343384
1772785850861376000,2.9673759765625,1.3764090538024902,-1.0656390190124512,1.4005465507507324
1772785850871392000,2.97739208984375,1.1000161170959473,-0.9070457816123962,1.6094446182250977
1772785850881408000,2.987407958984375,0.8062648773193359,-0.7705687284469604,1.6260937452316284
1772785850891423000,2.997423095703125,0.5446966290473938,-0.6873699426651001,1.4417563676834106
1772785850901439000,3.00743896484375,0.3085309863090515,-0.6465776562690735,1.1328307390213013
1772785850911455000,3.017455078125,0.11520732194185257,-0.6304607391357422,0.7657667398452759
1772785850921471000,3.027470947265625,-0.04489199072122574,-0.5560144782066345,0.3995654582977295
1772785850931486000,3.03748583984375,-0.16857025027275085,-0.4750370681285858,0.09332429617643356
1772785850941502200,3.047502197265625,-0.2508854269981384,-0.4289228916168213,-0.10828448086977005
1772785850951518000,3.05751806640625,-0.2741425335407257,-0.42386555671691895,-0.20022612810134888
1772785850961533200,3.067533203125,-0.24378398060798645,-0.4995720684528351,-0.2298533022403717
1772785850971549000,3.077548828125,-0.18670764565467834,-0.6788632869720459,-0.23599082231521606
1772785850981565000,3.08756494140625,-0.13324327766895294,-0.8901510834693909,-0.20050212740898132
1772785850991581000,3.097580810546875,-0.18560928106307983,-1.1464817523956299,-0.09513016790151596
1772785851001596000,3.107595947265625,-0.29553350806236267,-1.4819750785827637,0.06274846196174622
1772785851011612000,3.11761181640625,-0.3256298899650574,-2.056746482849121,0.17436420917510986
1772785851021628000,3.1276279296875,-0.08158820867538452,-2.9066689014434814,0.19632790982723236
1772785851031643000,3.137642822265625,0.4495113492012024,-3.6189157962799072,0.182585209608078
1772785851041659000,3.147658935546875,1.2636774778366089,-4.26922607421875,0.06547543406486511
1772785851051675100,3.157675048828125,1.373041033744812,-4.272090911865234,-0.3179481029510498
1772785851061691100,3.167691162109375,0.624920666217804,-3.618326187133789,-0.7993393540382385
1772785851071706000,3.1777060546875,0.3500608801841736,-2.553100347518921,-1.0327515602111816
1772785851081722000,3.18772216796875,0.5170607566833496,-1.2541849613189697,-1.1124778985977173
1772785851091738000,3.197738037109375,0.6298187375068665,-0.009973427280783653,-1.0434969663619995
1772785851101753000,3.207753173828125,0.5255331993103027,0.7489340305328369,-0.7262913584709167
1772785851111769000,3.21776904296875,0.30278000235557556,0.8471421003341675,-0.43438681960105896
1772785851121784800,3.227784912109375,0.07543700188398361,0.5461550354957581,-0.34934112429618835
1772785851131800000,3.237800048828125,-0.017292669042944908,0.26774922013282776,-0.4720638394355774
1772785851141815800,3.24781591796875,-0.16145913302898407,-0.05283445119857788,-0.7196449637413025
1772785851151832000,3.25783203125,-0.472822368144989,-0.4626653790473938,-0.8468111753463745
1772785851161848000,3.26784814453125,-0.7878610491752625,-0.8503699898719788,-0.7099828124046326
1772785851171863000,3.277863037109375,-1.0760596990585327,-0.9060772061347961,-0.3676294982433319
1772785851181879000,3.287879150390625,-1.311278223991394,-0.6490395665168762,-0.014288689009845257
1772785851191895000,3.29789501953125,-1.6455830335617065,-0.09550897777080536,0.2150462418794632
1772785851201910000,3.307909912109375,-2.045746326446533,0.4598296582698822,0.39925065636634827
1772785851211926800,3.3179267578125,-2.398660898208618,0.9265390038490295,0.5577220916748047
1772785851221942800,3.32794287109375,-2.5634987354278564,1.3424417972564697,0.5988970398902893
1772785851231958500,3.33795849609375,-2.448690176010132,1.7527432441711426,0.4530561566352844
1772785851241973800,3.347973876953125,-2.2095227241516113,2.116933822631836,0.13565289974212646
1772785851251989500,3.357989501953125,-2.055695056915283,2.4054415225982666,-0.2644907832145691
1772785851262005500,3.368005615234375,-1.9625279903411865,2.6469125747680664,-0.6615065932273865
1772785851272020500,3.3780205078125,-1.8353482484817505,2.8412325382232666,-0.8934937715530396
1772785851282036500,3.388036376953125,-1.584643840789795,3.0560474395751953,-0.9036294221878052
1772785851292052700,3.398052734375,-1.2429437637329102,3.1959283351898193,-0.7298043966293335
1772785851302068700,3.40806884765625,-0.861984133720398,3.247229814529419,-0.4736553430557251
1772785851312083700,3.418083740234375,-0.45748376846313477,3.1137783527374268,-0.26476284861564636
1772785851322099700,3.428099609375,-0.05530880391597748,2.815289258956909,-0.19566023349761963
1772785851332115700,3.43811572265625,0.342578649520874,2.3834218978881836,-0.2542455196380615
1772785851342130700,3.448130615234375,0.697945237159729,1.8161859512329102,-0.3639152944087982
1772785851352146700,3.458146728515625,1.004196286201477,1.1998937129974365,-0.4431725740432739
1772785851362162700,3.46816259765625,1.2614398002624512,0.5361923575401306,-0.42773881554603577
1772785851372178400,3.478178466796875,1.496732234954834,-0.06467137485742569,-0.32173168659210205
1772785851382193700,3.488193603515625,1.7314289808273315,-0.5461674928665161,-0.13430914282798767
1772785851392209700,3.498209716796875,1.939042329788208,-0.9575012922286987,0.07643984258174896
1772785851402225700,3.5082255859375,2.072077751159668,-1.3285088539123535,0.2378489375114441
1772785851412240600,3.51824072265625,2.1187875270843506,-1.5731884241104126,0.32818523049354553
1772785851422256600,3.528256591796875,2.060279369354248,-1.6733185052871704,0.4225839078426361
1772785851432272600,3.538272705078125,1.8954557180404663,-1.6609832048416138,0.5334545373916626
1772785851442287600,3.54828759765625,1.6764137744903564,-1.5782684087753296,0.6389771699905396
1772785851452303600,3.5583037109375,1.400357723236084,-1.3907089233398438,0.695654571056366
1772785851462319600,3.568319580078125,1.1014207601547241,-1.1001249551773071,0.7039003372192383
1772785851472335600,3.578335693359375,0.8324777483940125,-0.7913517355918884,0.6535141468048096
1772785851482350600,3.5883505859375,0.6427516341209412,-0.5382020473480225,0.5075339078903198
1772785851492366600,3.59836669921875,0.5322299003601074,-0.370109498500824,0.25886550545692444
1772785851502382800,3.6083828125,0.48780515789985657,-0.25393274426460266,-0.028711343184113503
1772785851512397800,3.618397705078125,0.46582263708114624,-0.17731253802776337,-0.2708006799221039
1772785851522413800,3.628413818359375,0.38996851444244385,-0.16752278804779053,-0.3968558609485626
1772785851532429600,3.6384296875,0.2564261555671692,-0.22372986376285553,-0.4198754131793976
1772785851542445600,3.648445556640625,0.14113782346248627,-0.2825363874435425,-0.38229480385780334
1772785851552460500,3.65846044921875,0.04775355011224747,-0.4475458562374115,-0.3557041883468628
1772785851562476500,3.6684765625,-0.025049123913049698,-0.7549000978469849,-0.4134836196899414
1772785851572492500,3.678492431640625,-0.12917287647724152,-1.1263694763183594,-0.5093547701835632
1772785851582507500,3.688507568359375,-0.3147662878036499,-1.6723607778549194,-0.6032447218894958
1772785851592523500,3.6985234375,-0.44203901290893555,-2.4664158821105957,-0.7914548516273499
1772785851602539500,3.70853955078125,-0.5806346535682678,-2.843315601348877,-0.9733768105506897
1772785851612555800,3.7185556640625,-0.4642915427684784,-2.899332046508789,-1.001957893371582
1772785851622570800,3.72857080078125,0.15948688983917236,-2.8265926837921143,-0.8010881543159485
1772785851632586800,3.738586669921875,0.19142352044582367,-1.713500738143921,-1.1195056438446045
1772785851642602800,3.748602783203125,-0.48111164569854736,-0.5882034301757812,-1.9859576225280762
1772785851652617700,3.75861767578125,-0.4180847406387329,0.7116122841835022,-2.265854597091675
1772785851662633700,3.7686337890625,-0.4546096622943878,1.0938276052474976,-1.7957028150558472
1772785851672649700,3.778649658203125,-1.033759355545044,1.0244094133377075,-0.7589792013168335
1772785851682664700,3.788664794921875,-1.6872084140777588,0.9734470844268799,0.1753464937210083
1772785851692680700,3.7986806640625,-1.896401047706604,0.6841095089912415,0.2568408250808716
1772785851702696400,3.808696533203125,-1.5250965356826782,0.3877963125705719,-0.32581233978271484
1772785851712712700,3.818712646484375,-0.8323628902435303,0.2699381113052368,-1.0247390270233154
1772785851722727700,3.828727783203125,-0.2713170051574707,0.00034364499151706696,-1.490544319152832
1772785851732743700,3.83874365234375,0.09971193969249725,-0.3591255843639374,-1.562068223953247
1772785851742759700,3.848759765625,0.22467514872550964,-0.47336551547050476,-1.1606945991516113
1772785851752774700,3.858774658203125,0.093125119805336,-0.26024365425109863,-0.5879970192909241
1772785851762790700,3.868790771484375,-0.18280956149101257,0.20237049460411072,-0.16888368129730225
1772785851772806700,3.878806640625,-0.6075078248977661,0.7454028725624084,0.03422095999121666
1772785851782822700,3.88882275390625,-1.0897796154022217,1.2699755430221558,0.24072204530239105
1772785851792837600,3.898837646484375,-1.5161173343658447,1.5948563814163208,0.4691008925437927
1772785851802853600,3.908853515625,-1.7474184036254883,1.7574304342269897,0.5893498659133911
1772785851812869600,3.91886962890625,-1.779039978981018,1.8321681022644043,0.5215796232223511
1772785851822884600,3.928884521484375,-1.6677069664001465,1.906643271446228,0.32335078716278076
1772785851832900900,3.93890087890625,-1.46390962600708,2.041412115097046,0.09049197286367416
1772785851842916600,3.94891650390625,-1.176479697227478,2.1905643939971924,-0.10090897977352142
1772785851852932600,3.9589326171875,-0.8196501731872559,2.299246072769165,-0.24249008297920227
1772785851862947600,3.968947509765625,-0.4106844365596771,2.370922327041626,-0.3507441580295563
1772785851872963600,3.978963623046875,-0.006924733519554138,2.413226842880249,-0.44566217064857483
1772785851882979600,3.9889794921875,0.3127817213535309,2.3490335941314697,-0.5454800724983215
1772785851892994600,3.99899462890625,0.5081527829170227,2.1670713424682617,-0.6444447636604309
1772785851903010600,4.009010498046875,0.5739932656288147,1.8649981021881104,-0.7583491802215576
1772785851913026600,4.019026611328125,0.5653231143951416,1.4262123107910156,-0.8862752318382263
1772785851923041500,4.02904150390625,0.5855613946914673,0.8979074954986572,-1.0409296751022339
1772785851933057500,4.0390576171875,0.6891255974769592,0.3268844783306122,-1.1882165670394897
1772785851943073800,4.04907373046875,0.799970805644989,-0.25746914744377136,-1.2886792421340942
1772785851953089800,4.05908984375,0.9233891367912292,-0.7269564867019653,-1.186997652053833
1772785851963104800,4.069104736328125,1.1497005224227905,-1.1027089357376099,-0.791189432144165
1772785851973120800,4.079120849609375,1.4231901168823242,-1.365254521369934,-0.15493544936180115
1772785851983136800,4.08913671875,1.6486400365829468,-1.5467745065689087,0.5246404409408569
1772785851993151700,4.09915185546875,1.7982300519943237,-1.648879051208496,1.0445305109024048
1772785852003167700,4.109167724609375,1.8127868175506592,-1.6119744777679443,1.3666672706604004
1772785852013183500,4.11918359375,1.663431167602539,-1.4689695835113525,1.4874159097671509
1772785852023199500,4.129199462890625,1.4336199760437012,-1.3442999124526978,1.3922666311264038
1772785852033214500,4.13921435546875,1.2046469449996948,-1.2390449047088623,1.160341501235962
1772785852043230700,4.149230712890625,0.9921281337738037,-1.0893219709396362,0.8973246216773987
1772785852053246700,4.159246826171875,0.7938190698623657,-0.9002479314804077,0.6393538117408752
1772785852063261700,4.16926171875,0.5786047577857971,-0.6660583019256592,0.4335095286369324
1772785852073277700,4.179277587890625,0.3717842102050781,-0.4223995804786682,0.31624841690063477
1772785852083293700,4.189293701171875,0.194885715842247,-0.23188157379627228,0.28878718614578247
1772785852093309700,4.199309814453125,0.09540705382823944,-0.13376805186271667,0.3042793273925781
1772785852103324700,4.20932470703125,0.08002407103776932,-0.08785151690244675,0.30987194180488586
1772785852113340700,4.219340576171875,0.092423215508461,-0.1957090049982071,0.2887687683105469
1772785852123356700,4.229356689453125,0.12048304080963135,-0.4914058744907379,0.23990324139595032
1772785852133371600,4.23937158203125,0.15004386007785797,-0.9097168445587158,0.20893093943595886
1772785852143387600,4.2493876953125,0.10479147732257843,-1.5057995319366455,0.2808329164981842
1772785852153403600,4.259403564453125,-0.028982030227780342,-2.3057291507720947,0.4047015905380249
1772785852163419000,4.2694189453125,-0.2719055414199829,-3.102977752685547,0.4839104115962982
1772785852173434600,4.2794345703125,-0.380840003490448,-3.5995781421661377,0.5078210234642029
1772785852183450600,4.28945068359375,-0.09994127601385117,-3.731705904006958,0.5513357520103455
1772785852193466600,4.299466552734375,0.45689162611961365,-3.880100965499878,0.6241228580474854
1772785852203481600,4.309481689453125,0.7825205326080322,-3.3856241703033447,0.39814966917037964
1772785852213497300,4.319497314453125,0.1694241464138031,-1.9115842580795288,-0.83381187915802
1772785852223513600,4.329513671875,0.0072472370229661465,-0.550282895565033,-1.9618247747421265
1772785852233528300,4.3395283203125,0.30899110436439514,0.021373147144913673,-2.457693099975586
1772785852243544600,4.349544677734375,0.28497782349586487,0.34766730666160583,-1.9204109907150269
1772785852253560600,4.359560546875,0.12760420143604279,0.20834456384181976,-0.6671186089515686
1772785852263576600,4.36957666015625,0.17312753200531006,-0.20203734934329987,0.3683305084705353
1772785852273591600,4.379591552734375,0.34924769401550293,-0.4083274006843567,0.5466715097427368
1772785852283607600,4.389607666015625,0.19724400341510773,-0.48629823327064514,0.02490459941327572
1772785852293623600,4.39962353515625,-0.4260331392288208,-0.7609707713127136,-0.6275781393051147
1772785852303638500,4.409638427734375,-1.021344780921936,-0.9973107576370239,-0.9512468576431274
1772785852313654500,4.419654541015625,-1.3541719913482666,-1.0078190565109253,-0.9860855340957642
1772785852323670300,4.429670166015625,-1.487973690032959,-0.49684032797813416,-0.811546266078949
1772785852333686500,4.4396865234375,-1.5253021717071533,0.3001028895378113,-0.6077044606208801
1772785852343701500,4.449701416015625,-1.6179931163787842,1.1139538288116455,-0.40218961238861084
1772785852353717500,4.459717529296875,-1.7801058292388916,1.7901579141616821,-0.13142843544483185
1772785852363733500,4.4697333984375,-1.8534455299377441,2.257328987121582,0.15722067654132843
1772785852373748500,4.47974853515625,-1.728692650794983,2.6098217964172363,0.4140428900718689
1772785852383764500,4.489764404296875,-1.495619297027588,2.822176456451416,0.5730705261230469
1772785852393780500,4.499780517578125,-1.2866015434265137,2.839317798614502,0.5653987526893616
1772785852403795500,4.50979541015625,-1.1146332025527954,2.8196229934692383,0.43686532974243164
1772785852413811500,4.5198115234375,-0.9956257939338684,2.9317755699157715,0.26224425435066223
1772785852423827500,4.529827392578125,-0.9039052724838257,3.08803129196167,0.06680648028850555
1772785852433843500,4.539843505859375,-0.8145468831062317,3.172548294067383,-0.15719173848628998
1772785852443858400,4.5498583984375,-0.7188602685928345,3.083362579345703,-0.3654470145702362
1772785852453874700,4.559874755859375,-0.6169129014015198,2.766301155090332,-0.5116564035415649
1772785852463890400,4.569890380859375,-0.543880045413971,2.251157760620117,-0.590072751045227
1772785852473905700,4.57990576171875,-0.46259236335754395,1.5944918394088745,-0.5812497138977051
1772785852483921400,4.58992138671875,-0.33462944626808167,0.9955991506576538,-0.4650523066520691
1772785852493937400,4.5999375,-0.13279008865356445,0.5440910458564758,-0.2700982689857483
1772785852503953400,4.609953369140625,0.15476928651332855,0.19318141043186188,-0.06209642440080643
1772785852513968400,4.619968505859375,0.5733849406242371,-0.159590482711792,0.07239134609699249
1772785852523984400,4.629984375,1.0522392988204956,-0.5575346350669861,0.1366284340620041
1772785852534000400,4.64000048828125,1.5461726188659668,-0.9676468372344971,0.1534431129693985
1772785852544015400,4.650015380859375,1.9588022232055664,-1.331395149230957,0.20518867671489716
1772785852554031400,4.66003125,2.1627933979034424,-1.6422228813171387,0.4640199840068817
1772785852564047600,4.670047607421875,2.118010997772217,-1.7794729471206665,0.8245338797569275
1772785852574062600,4.6800625,1.8650579452514648,-1.8112503290176392,1.1591824293136597
1772785852584078600,4.69007861328125,1.4795020818710327,-1.7609418630599976,1.422314167022705
1772785852594094600,4.700094482421875,1.0132243633270264,-1.584787368774414,1.5955957174301147
1772785852604110600,4.710110595703125,0.5425723195075989,-1.2007629871368408,1.6653470993041992
1772785852614125600,4.72012548828125,0.10926350951194763,-0.6980929970741272,1.606946349143982
1772785852624141600,4.7301416015625,-0.2531999945640564,-0.24727149307727814,1.403623342514038
1772785852634157300,4.7401572265625,-0.538352906703949,0.05765164643526077,1.0486875772476196
1772785852644172500,4.750172607421875,-0.7570708990097046,0.20738688111305237,0.5995216369628906
1772785852654188300,4.760188232421875,-0.8663196563720703,0.25590887665748596,0.15536312758922577
1772785852664204500,4.77020458984375,-0.85501629114151,0.3281985819339752,-0.17126503586769104
1772785852674220500,4.780220458984375,-0.7698763608932495,0.3531934320926666,-0.276284396648407
1772785852684235500,4.790235595703125,-0.61346834897995,0.3692839443683624,-0.20727840065956116
1772785852694251500,4.80025146484375,-0.441616415977478,0.3156265914440155,-0.012459123507142067
1772785852704267500,4.810267578125,-0.2878751754760742,0.025111615657806396,0.23143525421619415
1772785852714282500,4.820282470703125,-0.22840146720409393,-0.5002038478851318,0.3727327585220337
1772785852724298500,4.830298583984375,-0.3332040011882782,-1.116957426071167,0.4343121349811554
1772785852734314500,4.840314453125,-0.626670777797699,-1.8626686334609985,0.34299394488334656
1772785852744330500,4.85033056640625,-0.7302441000938416,-2.934969902038574,0.18557961285114288
1772785852754345500,4.860345458984375,-0.47124314308166504,-3.7968385219573975,0.24705202877521515
1772785852764361500,4.870361572265625,0.4725736975669861,-4.257046222686768,0.6979372501373291
1772785852774377500,4.88037744140625,1.033169150352478,-3.5442821979522705,0.36683207750320435
1772785852784392700,4.890392822265625,0.3491272032260895,-1.3700064420700073,-1.874957799911499
1772785852794408400,4.900408447265625,-0.35977935791015625,0.5495831370353699,-3.0383872985839844
1772785852804424400,4.910424560546875,-0.482136994600296,1.2457772493362427,-2.714294910430908
1772785852814439400,4.920439453125,-0.6225178241729736,0.9876172542572021,-1.5513802766799927
1772785852824455400,4.930455322265625,-0.9546471238136292,0.7765491604804993,-0.37442031502723694
1772785852834471400,4.940471435546875,-1.0828813314437866,0.7798045873641968,0.1432931274175644
1772785852844487400,4.9504873046875,-1.0854657888412476,1.1809483766555786,0.03965277224779129
1772785852854502400,4.96050244140625,-1.2006094455718994,1.6099766492843628,-0.31903424859046936
1772785852864518400,4.970518310546875,-1.1909173727035522,1.6528348922729492,-0.7153043150901794
1772785852874534700,4.98053466796875,-1.1054730415344238,1.5164464712142944,-0.9254631996154785
1772785852884549400,4.99054931640625,-0.9439538717269897,1.238016128540039,-0.8921875357627869
1772785852894565600,5.000565673828125,-0.6810468435287476,1.132533073425293,-0.6698710918426514
1772785852904581600,5.01058154296875,-0.39995893836021423,1.1905633211135864,-0.3995136320590973
1772785852914597600,5.02059765625,-0.170832559466362,1.4049968719482422,-0.12099091708660126
1772785852924612600,5.030612548828125,0.12623083591461182,1.7296799421310425,0.17079664766788483
1772785852934628600,5.040628662109375,0.4428313970565796,2.064431667327881,0.41197866201400757
1772785852944644400,5.050644287109375,0.7337129712104797,2.318100929260254,0.5059739351272583
1772785852954659600,5.06065966796875,0.9435698390007019,2.5400428771972656,0.4213716685771942
1772785852964675300,5.07067529296875,1.0484824180603027,2.7417585849761963,0.22255893051624298
1772785852974691300,5.08069140625,1.0685675144195557,2.88979172706604,-0.020338406786322594
1772785852984706300,5.090706298828125,0.9950333833694458,2.844858407974243,-0.26386308670043945
1772785852994722600,5.10072265625,0.8172149062156677,2.5213253498077393,-0.44974374771118164
1772785853004738600,5.110738525390625,0.5602477788925171,1.9314320087432861,-0.5267676115036011
1772785853014754600,5.120754638671875,0.27758944034576416,1.221028447151184,-0.4355447590351105
1772785853024769500,5.13076953125,0.10995033383369446,0.5077710151672363,-0.19866468012332916
1772785853034785500,5.14078564453125,0.15721984207630157,-0.09148579835891724,0.0464199036359787
1772785853044801500,5.150801513671875,0.41929325461387634,-0.43261781334877014,0.20530569553375244
1772785853054816500,5.16081640625,0.8489447832107544,-0.6452246308326721,0.3270939290523529
1772785853064832500,5.17083251953125,1.3473830223083496,-0.8457971215248108,0.39682823419570923
1772785853074848500,5.1808486328125,1.7449684143066406,-1.326378583908081,0.5794414281845093
1772785853084863500,5.190863525390625,2.021190881729126,-1.888150930404663,0.8377106189727783
1772785853094879500,5.20087939453125,2.119049549102783,-2.3409814834594727,1.0980875492095947
1772785853104895500,5.2108955078125,1.9388210773468018,-2.5693674087524414,1.308029055595398
1772785853114911500,5.220911376953125,1.4695401191711426,-2.638451337814331,1.4583746194839478
1772785853124926500,5.230926513671875,0.8066520690917969,-2.5585737228393555,1.5324426889419556
1772785853134942500,5.2409423828125,0.0961390882730484,-2.408370018005371,1.5225921869277954
1772785853144958500,5.25095849609375,-0.5045887231826782,-2.227922201156616,1.3833531141281128
1772785853154973400,5.260973388671875,-0.924148440361023,-1.977557897567749,1.1369425058364868
1772785853164989400,5.270989501953125,-1.1644299030303955,-1.6141308546066284,0.8338111639022827
1772785853175005400,5.28100537109375,-1.2688071727752686,-1.1679400205612183,0.5351429581642151
1772785853185021400,5.291021484375,-1.2251331806182861,-0.7124505639076233,0.2780020534992218
1772785853195036400,5.301036376953125,-1.032694697380066,-0.3654251992702484,0.0848589539527893
1772785853205052400,5.311052490234375,-0.7077874541282654,-0.18888331949710846,-0.05141541734337807
1772785853215068700,5.321068603515625,-0.26109784841537476,-0.17831829190254211,-0.14656297862529755
1772785853225083600,5.331083740234375,0.24377551674842834,-0.23139280080795288,-0.23962640762329102
1772785853235099600,5.341099609375,0.6894659399986267,-0.31809359788894653,-0.3392065167427063
1772785853245115400,5.351115478515625,1.1003669500350952,-0.4204954206943512,-0.3923046886920929
1772785853255130600,5.361130615234375,1.3753236532211304,-0.5209557414054871,-0.32495707273483276
1772785853265146600,5.371146728515625,1.4189821481704712,-0.8251296281814575,-0.16077111661434174
1772785853275162600,5.38116259765625,1.3089359998703003,-1.5994280576705933,-0.049306634813547134
1772785853285178600,5.3911787109375,1.2201521396636963,-2.811866044998169,-0.04931889846920967
1772785853295193600,5.401193603515625,1.3493175506591797,-4.045468807220459,0.02729944698512554
1772785853305209600,5.411209716796875,1.7661418914794922,-4.543963432312012,0.34129849076271057
1772785853315225600,5.4212255859375,2.2157788276672363,-4.243464469909668,0.8445035815238953
1772785853325240600,5.431240478515625,1.909411907196045,-2.9497952461242676,0.09649268537759781
1772785853335256600,5.441256591796875,0.8911088109016418,-0.7366479635238647,-1.64890718460083
1772785853345272600,5.4512724609375,0.017282817512750626,1.1184303760528564,-2.571580171585083
1772785853355288600,5.46128857421875,-0.47724649310112,1.9262217283248901,-2.504709243774414
1772785853365303600,5.471303466796875,-0.9116160273551941,1.5485507249832153,-1.4763851165771484
1772785853375319800,5.48131982421875,-1.251135230064392,0.9411619901657104,-0.3400703966617584
1772785853385335800,5.491335693359375,-1.333202838897705,0.38664910197257996,0.1817827969789505
1772785853395350800,5.501350830078125,-1.3745356798171997,0.0648992732167244,0.006286866497248411
1772785853405366800,5.51136669921875,-1.529544711112976,0.10659536719322205,-0.30313533544540405
1772785853415382500,5.521382568359375,-1.7237210273742676,0.28994736075401306,-0.46445152163505554
1772785853425398500,5.5313984375,-1.9595698118209839,0.602854311466217,-0.4374431073665619
1772785853435413500,5.54141357421875,-2.036745548248291,1.0026276111602783,-0.29979708790779114
1772785853445429500,5.551429443359375,-1.9104065895080566,1.437343955039978,-0.1934155821800232
1772785853455445500,5.561445556640625,-1.6725497245788574,1.827987790107727,-0.11777596175670624
1772785853465460500,5.57146044921875,-1.424999713897705,2.236258029937744,-0.0575382262468338
1772785853475476500,5.5814765625,-1.2151756286621094,2.675507068634033,0.012976421043276787
1772785853485492700,5.59149267578125,-1.0352306365966797,3.0975706577301025,0.08686919510364532
1772785853495507700,5.6015078125,-0.9173167943954468,3.5133249759674072,0.1441013216972351
1772785853505523700,5.611523681640625,-0.8169530630111694,3.8982765674591064,0.18360953032970428
1772785853515539700,5.621539794921875,-0.7118977308273315,4.213303565979004,0.17228497564792633
1772785853525555700,5.6315556640625,-0.6387195587158203,4.452855110168457,0.10922723263502121
1772785853535570700,5.64157080078125,-0.5677555799484253,4.538675308227539,-0.02094328962266445
1772785853545586700,5.651586669921875,-0.4871704578399658,4.417059421539307,-0.2264184206724167
1772785853555602400,5.6616025390625,-0.34651532769203186,4.041763782501221,-0.47898969054222107
1772785853565617700,5.67161767578125,-0.1747661978006363,3.417168617248535,-0.7553433179855347
1772785853575633400,5.68163330078125,0.011592497117817402,2.6757407188415527,-0.9288959503173828
1772785853585649700,5.691649658203125,0.2261757105588913,2.0108535289764404,-0.9556570649147034
1772785853595664400,5.701664306640625,0.5055047869682312,1.516086459159851,-0.8522611856460571
1772785853605680600,5.7116806640625,0.9076707363128662,1.2031335830688477,-0.6648318767547607
1772785853615696600,5.721696533203125,1.4110443592071533,0.9600266814231873,-0.46043744683265686
1772785853625712600,5.731712646484375,1.9566946029663086,0.6201567053794861,-0.27928540110588074
1772785853635727600,5.7417275390625,2.451421022415161,0.11657369881868362,-0.09779975563287735
1772785853645743600,5.75174365234375,2.803356170654297,-0.5360272526741028,0.12217992544174194
1772785853655759600,5.761759521484375,2.953777551651001,-1.2155213356018066,0.3997950255870819
1772785853665774600,5.771774658203125,2.8265185356140137,-1.7603509426116943,0.7109081745147705
1772785853675790600,5.78179052734375,2.5024728775024414,-2.0852231979370117,0.9465638399124146
1772785853685806600,5.791806640625,2.0760691165924072,-2.151883125305176,1.0126265287399292
1772785853695822600,5.801822509765625,1.6590625047683716,-2.0746963024139404,0.9321101903915405
1772785853705837800,5.811837890625,1.2331557273864746,-1.8463506698608398,0.7697927355766296
1772785853715853600,5.821853515625,0.7761543989181519,-1.4963897466659546,0.5760475397109985
1772785853725869600,5.83186962890625,0.3066742718219757,-1.1456295251846313,0.41192179918289185
1772785853735884500,5.841884521484375,-0.12172739207744598,-0.905350923538208,0.29290515184402466
1772785853745900500,5.851900634765625,-0.4534663259983063,-0.8240841627120972,0.2392452210187912
1772785853755916500,5.86191650390625,-0.6711269617080688,-0.8374220728874207,0.26725849509239197
1772785853765931500,5.871931640625,-0.786944568157196,-0.8996949195861816,0.3614184260368347
1772785853775947500,5.881947509765625,-0.8037430047988892,-0.9795429110527039,0.4456893503665924
1772785853785963500,5.891963623046875,-0.7225001454353333,-1.118604063987732,0.4753309488296509
1772785853795979500,5.9019794921875,-0.6371495723724365,-1.318182349205017,0.44360896944999695
1772785853805994500,5.911994384765625,-0.5892382860183716,-1.586646318435669,0.41200998425483704
1772785853816010800,5.9220107421875,-0.5377053618431091,-2.063678741455078,0.34679529070854187
1772785853826026800,5.93202685546875,-0.4138701856136322,-2.916820764541626,0.23257321119308472
1772785853836041700,5.942041748046875,-0.12468071281909943,-3.809929132461548,0.16686663031578064
1772785853846057700,5.9520576171875,0.3767186999320984,-4.0411882400512695,0.25093749165534973
1772785853856073700,5.96207373046875,1.3701163530349731,-3.782891035079956,0.5658410787582397
1772785853866088700,5.972088623046875,1.7608672380447388,-1.8612838983535767,-0.2713591456413269
1772785853876104700,5.982104736328125,1.0148627758026123,0.24929702281951904,-2.391166925430298
1772785853886120400,5.992120361328125,0.692409336566925,1.419328212738037,-3.241028308868408
1772785853896136400,6.002136474609375,0.8310253024101257,1.2916994094848633,-2.565504312515259
1772785853906151400,6.0121513671875,0.827660083770752,0.9414432048797607,-0.9771485924720764
1772785853916167400,6.02216748046875,0.8371148705482483,0.7381531596183777,0.679613471031189
1772785853926183700,6.03218359375,1.1375302076339722,0.581728994846344,1.6754825115203857
1772785853936198700,6.04219873046875,1.569695234298706,0.3096742630004883,1.8791991472244263
1772785853946214700,6.052214599609375,1.8122155666351318,0.005634233821183443,1.6421246528625488
1772785853956230700,6.062230712890625,1.8008449077606201,-0.26103925704956055,1.2311145067214966
1772785853966246700,6.07224658203125,1.5205045938491821,-0.31498730182647705,0.6419824361801147
1772785853976261600,6.08226171875,1.0871424674987793,-0.28482913970947266,-0.06408365815877914
1772785853986277600,6.092277587890625,0.7503484487533569,-0.3724711239337921,-0.6214178204536438
1772785853996293600,6.102293701171875,0.502291738986969,-0.5579999685287476,-0.8408820033073425
1772785854006308600,6.11230859375,0.29598456621170044,-0.652309775352478,-0.7689800262451172
1772785854016324600,6.12232470703125,0.16342812776565552,-0.6636044979095459,-0.5066171288490295
1772785854026340600,6.132340576171875,0.11324174702167511,-0.5400486588478088,-0.13546191155910492
1772785854036355800,6.14235595703125,0.060793451964855194,-0.2949589788913727,0.20561763644218445
1772785854046371600,6.15237158203125,-0.06590741872787476,-0.039182282984256744,0.4364791214466095
1772785854056387600,6.1623876953125,-0.2772196829319,0.26561835408210754,0.5930066704750061
1772785854066403600,6.172403564453125,-0.5381307601928711,0.6128705143928528,0.7180411219596863
1772785854076418600,6.18241845703125,-0.7823721766471863,0.9160737991333008,0.7764453291893005
1772785854086434600,6.1924345703125,-0.9639679193496704,1.1442760229110718,0.7607156038284302
1772785854096450600,6.202450439453125,-1.078311800956726,1.2202690839767456,0.6743788719177246
1772785854106465500,6.212465576171875,-1.1416361331939697,1.1853506565093994,0.5390302538871765
1772785854116481500,6.2224814453125,-1.1803126335144043,1.0252163410186768,0.40645813941955566
1772785854126497500,6.23249755859375,-1.2048430442810059,0.7185198664665222,0.34476277232170105
1772785854136512500,6.242512451171875,-1.2544364929199219,0.3263576924800873,0.421055406332016
1772785854146528800,6.25252880859375,-1.3352336883544922,-0.10810136049985886,0.6543017625808716
1772785854156544800,6.262544677734375,-1.4443886280059814,-0.5535414218902588,1.0003318786621094
1772785854166560800,6.272560791015625,-1.5628875494003296,-0.9148664474487305,1.353968620300293
1772785854176575700,6.28257568359375,-1.6669191122055054,-1.1860226392745972,1.6183820962905884
1772785854186591700,6.292591796875,-1.7317826747894287,-1.3945682048797607,1.784112572669983
1772785854196607500,6.302607421875,-1.755590558052063,-1.6410163640975952,1.8173751831054688
1772785854206622700,6.312622802734375,-1.7677617073059082,-2.0066075325012207,1.639046549797058
1772785854216638200,6.32263818359375,-1.7975374460220337,-2.461273670196533,1.165523648262024
1772785854226654000,6.332654052734375,-1.8342169523239136,-2.8212974071502686,0.4565544128417969
1772785854236670000,6.342669921875,-1.8277031183242798,-2.621622085571289,-0.360678106546402
1772785854246685000,6.352684814453125,-1.6371983289718628,-1.8804693222045898,-1.026020884513855
1772785854256701000,6.362700927734375,-1.1896573305130005,-0.753944993019104,-1.470190405845642
1772785854266717000,6.372717041015625,-0.5991507768630981,0.42740264534950256,-1.7461851835250854
1772785854276732000,6.38273193359375,-0.03295952454209328,1.3533201217651367,-1.8469094038009644
1772785854286748000,6.392747802734375,0.3209455609321594,1.8769484758377075,-1.754012942314148
1772785854296764000,6.402763916015625,0.41517698764801025,2.0127041339874268,-1.5641324520111084
1772785854306779000,6.41277880859375,0.28542181849479675,1.823785424232483,-1.3390507698059082
1772785854316795000,6.422794921875,0.02723555639386177,1.3912134170532227,-1.0715519189834595
1772785854326811100,6.43281103515625,-0.25487229228019714,0.9267085194587708,-0.7342886924743652
1772785854336827100,6.4428271484375,-0.4796401560306549,0.5490808486938477,-0.28902384638786316
1772785854346842000,6.452842041015625,-0.6094426512718201,0.3063866198062897,0.28855258226394653
1772785854356858000,6.462858154296875,-0.7044152021408081,0.21462872624397278,0.9615381956100464
1772785854366873900,6.472873779296875,-0.7767149806022644,0.2594437003135681,1.654043197631836
1772785854376889000,6.48288916015625,-0.8381698727607727,0.3240828812122345,2.213956594467163
1772785854386904800,6.49290478515625,-0.8881329298019409,0.2632818818092346,2.4919166564941406
1772785854396920800,6.5029208984375,-0.90554279088974,0.03350913152098656,2.4517858028411865
1772785854406935800,6.512935791015625,-0.8729341626167297,-0.2903653383255005,2.1718907356262207
1772785854416951800,6.522951904296875,-0.8296612501144409,-0.5810645818710327,1.7613896131515503
1772785854426968000,6.532968017578125,-0.8010275959968567,-0.7635136842727661,1.3184367418289185
1772785854436984000,6.542984130859375,-0.7788876891136169,-0.8220813870429993,0.9254673719406128
1772785854446999000,6.5529990234375,-0.7562172412872314,-0.7927871346473694,0.615666925907135
1772785854457015000,6.56301513671875,-0.7138308882713318,-0.6755254864692688,0.3957545757293701
1772785854467031000,6.573031005859375,-0.6377771496772766,-0.5045449733734131,0.2329496443271637
1772785854477046000,6.5830458984375,-0.5389403700828552,-0.27158308029174805,0.09962088614702225
1772785854487062000,6.59306201171875,-0.43521392345428467,-0.024028198793530464,0.012931985780596733
1772785854497078000,6.603078125,-0.3510039746761322,0.13995540142059326,-0.021585777401924133
1772785854507094000,6.613093994140625,-0.2935746908187866,0.22526094317436218,-0.010297678411006927
1772785854517109000,6.62310888671875,-0.2702171802520752,0.23035477101802826,0.06895533204078674
1772785854527125000,6.633125,-0.2681690454483032,0.16113053262233734,0.2082594782114029
1772785854537141000,6.64314111328125,-0.2537940740585327,0.10279053449630737,0.37524181604385376
1772785854547156000,6.653156005859375,-0.15875495970249176,-0.10352026671171188,0.4193016588687897
1772785854557172000,6.663171875,-0.016804752871394157,-0.25167617201805115,0.3483358919620514
1772785854567188000,6.67318798828125,0.07052183151245117,-0.16661404073238373,0.19966018199920654
1772785854577203000,6.683202880859375,0.08375987410545349,-0.20830662548542023,0.12733565270900726
1772785854587219000,6.693218994140625,0.1041434034705162,-0.19128260016441345,0.1959565281867981
1772785854597235000,6.70323486328125,0.3311688303947449,-0.23497922718524933,0.07894627749919891
1772785854607251000,6.7132509765625,0.48855605721473694,0.028908621519804,0.08767984807491302
1772785854617266000,6.723265869140625,0.6486480236053467,0.0988893061876297,0.12215898931026459
1772785854627282000,6.733281982421875,0.7296712398529053,0.22493630647659302,0.24555586278438568
1772785854637298200,6.743298095703125,0.8175142407417297,0.21403759717941284,0.2955884337425232
1772785854647313000,6.75331298828125,0.8983924984931946,0.07878253608942032,0.33202359080314636
1772785854657329200,6.7633291015625,0.9478521943092346,0.0552644245326519,0.3809623718261719
1772785854667345200,6.77334521484375,0.9163373112678528,0.05666765198111534,0.4340997040271759
1772785854677361000,6.78336083984375,0.7353541851043701,0.059698596596717834,0.4956802427768707
1772785854687376100,6.793376220703125,0.4815952479839325,-0.011761193163692951,0.5348749160766602
1772785854697391900,6.803391845703125,0.32375234365463257,-0.13172142207622528,0.49016013741493225
1772785854707408000,6.813407958984375,0.335890531539917,-0.20611411333084106,0.36368468403816223
1772785854717422800,6.8234228515625,0.4153808057308197,-0.2024751752614975,0.20692916214466095
1772785854727438800,6.83343896484375,0.426328182220459,-0.10346651822328568,0.048797182738780975
1772785854737454800,6.843454833984375,0.365546315908432,0.015073979273438454,-0.07048846036195755
1772785854747471000,6.85347119140625,0.31438177824020386,0.08759553730487823,-0.11550934612751007
1772785854757486000,6.863486083984375,0.3065864145755768,0.08945602178573608,-0.11149809509515762
1772785854767502000,6.873502197265625,0.3314559757709503,0.028469480574131012,-0.09077847003936768
1772785854777518000,6.88351806640625,0.36476361751556396,-0.05772532522678375,-0.059008557349443436
1772785854787533000,6.893532958984375,0.3809302747249603,-0.11605528742074966,-0.01640775240957737
1772785854797549000,6.903549072265625,0.393243670463562,-0.1320132166147232,0.01607988215982914
1772785854807565000,6.91356494140625,0.41794338822364807,-0.11798092722892761,0.021803349256515503
1772785854817580000,6.923580078125,0.4536111056804657,-0.10114122927188873,0.006677126511931419
1772785854827596000,6.933595947265625,0.48984089493751526,-0.0889769196510315,-0.023177562281489372
1772785854837612000,6.943612060546875,0.5066558122634888,-0.08397497236728668,-0.06300194561481476
1772785854847627800,6.953627685546875,0.5135393142700195,-0.09628452360630035,-0.09410339593887329
1772785854857643000,6.96364306640625,0.49098339676856995,-0.1306353211402893,-0.09502698481082916
1772785854867659000,6.973658935546875,0.44427332282066345,-0.15061083436012268,-0.07336415350437164
1772785854877675000,6.983675048828125,0.37265560030937195,-0.14842970669269562,-0.04038543254137039
1772785854887690000,6.99368994140625,0.28139469027519226,-0.1386660933494568,-0.025571411475539207
1772785854897706000,7.0037060546875,0.16519670188426971,-0.12233132123947144,-0.025921616703271866
1772785854907722000,7.013721923828125,0.10495463013648987,-0.17028577625751495,0.3889991343021393
1772785854917738000,7.023738037109375,0.08074942231178284,0.0013653428759425879,0.5415604710578918
1772785854927753000,7.0337529296875,0.10276558995246887,0.02921503409743309,0.4726685583591461
1772785854937769000,7.04376904296875,0.1592874675989151,-0.00953209400177002,0.20790216326713562
1772785854947785000,7.053784912109375,0.21060147881507874,0.03196439519524574,-0.15188610553741455
1772785854957800000,7.063800048828125,0.2503321170806885,0.09980735927820206,-0.462412565946579
1772785854967816000,7.07381591796875,0.27459433674812317,0.1443682610988617,-0.6729998588562012
1772785854977832200,7.083832275390625,0.255852609872818,0.1960413008928299,-0.7775433659553528
1772785854987848000,7.093847900390625,0.2263486385345459,0.24634632468223572,-0.8104801774024963
1772785854997863200,7.10386328125,0.21949206292629242,0.2734951376914978,-0.7313249111175537
