time,seconds_elapsed,z,y,x
1772618235599327000,0.079326904296875,-0.05846446392834186,0.0034260654585435983,-0.025016810792800968
1772618235609359000,0.089359130859375,-0.13185469430983066,0.008869462088868022,-0.056659962656488636
1772618235619390000,0.099389892578125,0.11944587911367416,-0.006817370130959898,0.03422498505043332
1772618235629421800,0.109421875,0.0901379515647888,-0.013835231270082295,0.03604900844008661
1772618235639453000,0.119452880859375,-0.15638064827919004,0.010576266006752847,-0.053689623342501
1772618235649484800,0.12948486328125,-0.001329202777147293,-0.012137797968741506,-0.006266732244566082
1772618235659517000,0.139516845703125,0.14131751918196678,-0.011701032252982259,0.041655947901937176
1772618235669548000,0.149548095703125,-0.11895429620444774,0.006635638622194528,-0.05013488086983561
1772618235679580000,0.159579833984375,-0.06762275289595127,0.005086071092635393,-0.03298784903748892
1772618235689611000,0.169611083984375,0.15807459271550178,0.0007251907357014715,0.06920427733319812
1772618235699643000,0.179642822265625,-0.08273439731001854,0.007073427251260727,-0.03714188171071
1772618235709674000,0.189674072265625,-0.05759469535648822,0.010014010747801512,-0.0336698947512079
1772618235719705900,0.199705810546875,0.1353203245937824,-0.013277122463285922,0.03666620875666849
1772618235729736700,0.20973681640625,-0.07226970191895961,0.007165434649959206,-0.0322969532970339
1772618235739769000,0.21976904296875,-0.04622457555830478,0.012349541023280472,-0.010474385668011382
1772618235749800000,0.229800048828125,0.11780921782255172,-0.010786456425022333,0.05817001102641225
1772618235759831800,0.239831787109375,-0.08139876479208469,0.006810191471502185,-0.03294020137032494
1772618235769864000,0.249864013671875,-0.03424538395106792,-0.0017315730329602957,-0.0007316844085697085
1772618235779894800,0.259894775390625,0.09550795416533947,-0.009338486106414348,0.03960181925056968
1772618235789927000,0.269927001953125,-0.07795242373049259,0.01666988844042644,-0.04563986187237314
1772618235799958300,0.279958251953125,0.005268295791745185,0.0050888293053023516,0.002745581514248624
1772618235809990100,0.289990234375,0.07949614604115486,-0.01106929195439443,0.027256748906429856
1772618235820021200,0.300021240234375,-0.08872516215741634,0.004155073852837085,-0.04041764284521341
1772618235830053400,0.310053466796875,0.03849368904531002,0.0005186170466244221,-0.00010140084812883287
1772618235840084200,0.320084228515625,0.02172550959587097,0.0008040098592638969,-0.0009042918959632515
1772618235850116400,0.330116455078125,-0.08004150496423244,0.01942514196531847,-0.03147490545758046
1772618235860147200,0.340147216796875,0.07395780113637447,-0.013658888322487473,0.03836885708924383
1772618235870179000,0.350178955078125,-0.008662614405155181,-0.008890559675823896,0.007886296270415186
1772618235880210200,0.360210205078125,-0.05639467191696167,0.006398523664381354,-0.027096352446638047
1772618235890242300,0.3702421875,0.05091419467926025,-0.0011008191150613128,0.02116050069082994
1772618235900273400,0.3802734375,-0.030953941190242765,0.00898285933546722,-0.00876707029347308
1772618235910305300,0.39030517578125,-0.01972352212369442,0.00048787484848871826,-0.020475317738531156
1772618235920337200,0.400337158203125,0.04462824627757072,-0.001567724240757525,0.022489753700327127
1772618235930368300,0.4103681640625,-0.04771218376755714,-0.008436952423118054,-0.019014898930303753
1772618235940400400,0.420400390625,-0.004754501050710678,0.0017091054728254674,0.007166859422065317
1772618235950431200,0.43043115234375,0.013801730859279632,-0.007466554754693061,0.015507164803985505
1772618235960463400,0.44046337890625,-0.05414367811977863,-0.005380852788127958,0.0014045239025261252
1772618235970494200,0.450494140625,0.035353052932024,0.00021110373372212052,0.019442083966964854
1772618235980526300,0.4605263671875,0.014241291320323942,-0.011022420605365187,-0.009403450234560295
1772618235990557200,0.47055712890625,-0.03140402304530143,-0.01165872748121619,-0.003234451876580715
1772618236000589300,0.48058935546875,0.039682022047042846,-0.006401720268465578,0.0023476043057627976
1772618236010620400,0.490620361328125,-0.007019523373246192,-0.003828380915429443,-0.00717909784913063
1772618236020652300,0.50065234375,-0.024226094239950178,0.0011241634580306708,-0.015480523392232133
1772618236030684200,0.51068408203125,0.03293839300572872,0.0009757496969774365,0.01708377560409717
1772618236040715300,0.52071533203125,-0.030365327647328376,0.010473317088931799,-0.012755838535539805
1772618236050747100,0.5307470703125,-0.002978139027953148,0.005287347552087158,-0.0010495912513229996
1772618236060778200,0.5407783203125,0.014829904863238335,0.01885523312287405,-0.0019876666858792305
1772618236070810400,0.550810302734375,-0.022583587729930875,0.005985705079790205,0.000341379049886018
1772618236080841200,0.56084130859375,0.022912673553824422,-0.0066304509904235595,0.00575968690472655
1772618236090873300,0.570873291015625,-0.0005874444991350174,-0.0010752097497694194,-0.0010622315371874719
1772618236100904200,0.580904296875,-0.025126842471957206,-0.0062146367311477655,-0.014570614606235176
1772618236110936000,0.59093603515625,0.01602700569331646,-0.00846433362038806,-0.0015598423284012824
1772618236120967200,0.60096728515625,-0.015851064604520796,0.015112247202266007,-0.009615101957553997
1772618236130999300,0.610999267578125,-0.0017833762854337692,0.005945793194510042,-0.007749865208100527
1772618236141030400,0.621030517578125,0.022165070056915284,0.014320877628866583,0.010521120019722729
1772618236151062300,0.631062255859375,-0.006271919876337051,0.006930383785068988,-0.027010181133681907
1772618236161093000,0.641093017578125,-0.0019265841484069823,-0.00036908904071897264,-0.015754280566005037
1772618236171125200,0.651125244140625,0.012289572730660437,-0.014027447640243917,-0.0017343221124727277
1772618236181157400,0.661157470703125,-0.019136662146449088,-0.0003870813551358878,-0.010198893194878473
1772618236191188200,0.671188232421875,-0.002821487161517143,0.0010556282664649188,-0.01819006547871977
1772618236201220400,0.681220458984375,0.005855155768990516,0.002324369560647756,-0.009433470913488418
1772618236211251200,0.691251220703125,-0.011952888122200965,0.003099043727573007,-0.009322758814319968
1772618236221283000,0.701282958984375,0.015136778855323791,0.0013249101945199072,-0.004461819980759173
1772618236231314200,0.711314208984375,-0.0174848032861948,-0.005394479454681277,-0.0013572415615431964
1772618236241346300,0.72134619140625,-0.006408113476634025,-0.009088365536555648,-0.013978229070501402
1772618236251377400,0.73137744140625,0.008557400465011597,-0.005546016754582524,0.01047504325513728
1772618236261409300,0.7414091796875,-0.01329027420580387,0.0023333748510107398,-0.008597440214455127
1772618236271440400,0.7514404296875,0.005422025048732757,-0.005939893176686018,0.009137364910589531
1772618236281472300,0.76147216796875,0.015151976424455642,-0.006616440731380135,-0.003650576663110405
1772618236291503000,0.771503173828125,-0.003556815698742866,0.0014401523383334278,-0.0037529045264236625
1772618236301535500,0.781535400390625,0.009315525355935095,-0.00864606512915343,0.010540231145569123
1772618236311566300,0.79156640625,-0.005645896932482719,-0.012956548739410935,0.0002757527680369094
1772618236321598200,0.80159814453125,-0.02270809089243412,0.003375887907575816,-0.007564699633233249
1772618236331630300,0.81163037109375,0.018288520884513854,-0.003370590677950531,0.017423958210740238
1772618236341661200,0.8216611328125,0.001076104798913002,-0.0008661701089702546,-0.0024654493986163285
1772618236351693000,0.831693115234375,-0.0005716624081134796,-0.008750402286462485,-0.01613552126882132
1772618236361724200,0.84172412109375,0.00959901847243309,-0.007500858883094042,-0.0037538269750308243
1772618236371756300,0.85175634765625,0.005108721315860748,0.004370488435495644,-0.015894949412019924
1772618236381787400,0.861787353515625,0.0034609541088342663,-0.008415288580581545,-0.0044446450836723665
1772618236391819300,0.8718193359375,0.0007668927192687987,-0.0001898234836757183,0.006002026026928797
1772618236401850000,0.88185009765625,-0.0014782558590173721,0.010906685271207242,0.002952269367757253
1772618236411882200,0.89188232421875,0.0015139116942882538,-0.005107406141608953,0.009471670332294888
1772618236421913000,0.9019130859375,0.007948328655958176,-0.0031501163276843724,0.012688874246552587
1772618236431945200,0.9119453125,-0.011206453669071198,0.002584043410141021,-0.012733795667090453
1772618236441976300,0.921976318359375,0.003911620485782623,0.0027986908078193665,0.00309585625664331
1772618236452008200,0.93200830078125,-0.00745966835618019,0.007243084729742258,-0.005404941483191214
1772618236462039300,0.942039306640625,-0.010600304469466209,0.003916534122917801,0.0008185772407334297
1772618236472071200,0.9520712890625,0.007953589352965354,-0.00716687768837437,-0.005028052728506737
1772618236482103300,0.962103271484375,-0.00865267753303051,-0.009118212685547768,0.0035285577186383306
1772618236492134400,0.972134521484375,-0.00012450316250324248,0.008733396352734416,0.0211911241579568
1772618236502166300,0.982166259765625,-0.002970540243387222,0.0023837167987599966,0.013748511967854574
1772618236512197400,0.992197265625,-0.007310030752420425,0.0023608473798260093,-0.005904324106383137
1772618236522229200,1.002229248046875,-0.009404372683167458,-0.0027620485918596386,-0.021207851530471816
1772618236532260000,1.012260009765625,0.00481061515212059,0.003369805226661265,-0.017586427896609528
1772618236542292500,1.02229248046875,0.0057160395592451094,0.013278181909210979,-0.0176533236869378
1772618236552323300,1.0323232421875,0.013946107766032218,-0.003606700988765806,-0.004451951607293449
1772618236562355200,1.042355224609375,0.00900514423251152,-0.008591028739977628,0.013077508237957954
1772618236572386300,1.05238623046875,-0.0052151042997837065,-0.002791128555871546,-0.004628545716637745
1772618236582418200,1.062418212890625,-0.0047679450541734695,-0.0016426709068007765,-0.006311676497990265
1772618236592449300,1.07244921875,-0.0028238252490758895,0.001100508587807417,-0.004454170963843353
1772618236602481400,1.0824814453125,0.0033148236364126202,-0.006169117088988423,0.004606480015302077
1772618236612512300,1.09251220703125,0.008849076887965202,-0.006956906465813517,-0.006681601222348399
1772618236622544400,1.10254443359375,0.013636311164498328,0.013429627877566963,0.010806919257738627
1772618236632576300,1.112576171875,0.013486673560738563,-0.008712791956122965,-0.0006880827288608998
1772618236642607000,1.122607177734375,-0.0020808979272842407,0.005962178073730319,-0.0025627859929809346
1772618236652639200,1.13263916015625,-0.0046223991036415096,0.014260215216502546,-0.012294468101486563
1772618236662670300,1.14267041015625,-0.0019277531921863555,0.0037738925155252215,-0.007724306075158529
1772618236672702200,1.1527021484375,-0.004469254368543624,0.00011427402943372726,-0.005535632357886061
1772618236682733300,1.1627333984375,0.002563128486275673,-0.0010897131991572677,-0.012368405553954652
1772618236692765200,1.17276513671875,0.0034609541088342663,-0.00886811038199812,0.0011009743786882609
1772618236702796300,1.18279638671875,-0.007463760009407997,-0.0009254442818462848,-0.004569499872624874
1772618236712828200,1.192828125,-0.0022299510091543196,-0.0020101342460140583,0.0026159226860152556
1772618236722859300,1.202859375,0.005104045140743255,-0.01703978119874373,-0.007888081802125088
1772618236732891400,1.212891357421875,0.007656067711114883,-0.013707805498130618,-0.006868890255643054
1772618236742922200,1.222922119140625,0.006612111616134643,0.004898329968191683,-0.0019357081697788088
1772618236752954400,1.232954345703125,0.004517185163497924,-0.003922452407050877,-0.008057574883825145
1772618236762985200,1.242985107421875,-0.0011672902137041092,0.011643365515302866,-0.007561512162303552
1772618236773017000,1.25301708984375,-0.0002706336349248886,-0.001798665186110884,-0.008231648242520168
1772618236783048200,1.263048095703125,-0.012988076388835906,0.0030894721816293893,-0.006054742594854906
1772618236793079600,1.27307958984375,-0.008050035464763641,-0.0017338015226647256,-0.00482769415108487
1772618236803111700,1.283111572265625,0.0036181904971599576,0.002705569164268672,0.0024192539030220357
1772618236813142500,1.293142578125,0.004514847075939178,-0.00517773143146187,-0.006439618293172679
1772618236823174400,1.30317431640625,-0.008058218771219252,-0.013699348197039217,-0.007058042452461086
1772618236833205500,1.31320556640625,0.0030097032099962234,-0.015165310830064118,-0.009619937962875701
1772618236843237600,1.323237548828125,0.008550386202335357,-0.004079305202886462,-0.006446029767650179
1772618236853268700,1.333268798828125,0.011246201157569885,0.011592603442445396,-0.002520111328456551
1772618236863300600,1.343300537109375,-0.0005763385832309722,-0.004517386092897504,0.00629891748111695
1772618236873331500,1.35333154296875,0.007503507497906684,-0.006441084164474159,0.002745006125513464
1772618236883363600,1.363363525390625,0.0003197334736585617,-0.0021033837537281215,0.014245821364969014
1772618236893394400,1.37339453125,-0.01644260075688362,0.004587638317514211,-0.00488065731418319
1772618236903426600,1.383426513671875,0.0037543840974569318,-0.006287701967358589,0.019514473349740727
1772618236913457700,1.393457763671875,-0.014053075271844863,-0.018006014148704706,0.003018366007064469
1772618236923489500,1.403489501953125,0.0016594576448202133,0.0003701667529530823,-0.0032742039316566657
1772618236933520600,1.413520751953125,-0.004024433210492134,0.0029695173300802705,0.0025003563152160495
1772618236943552500,1.423552490234375,0.014081716844439505,-0.003018489304650575,0.008178666813112795
1772618236953584400,1.43358447265625,0.007646130838990211,-0.0088136219820939,0.0020339215469779444
1772618236963615700,1.44361572265625,-0.0007335749715566634,-0.007918627637438476,0.0021718687129439786
1772618236973647600,1.453647705078125,0.009891863939166069,0.00014284253679215907,-0.00504453350584954
1772618236983678500,1.463678466796875,-0.008365677285194396,-0.006554517943691462,0.012817035237443633
1772618236993710600,1.473710693359375,-0.0034311434924602507,-0.00943484088666737,-0.008354443505126983
1772618237003741400,1.483741455078125,-0.015105214673280715,-0.002318907934240997,0.0019957540942123157
1772618237013773600,1.493773681640625,-0.014805354943871498,-0.004713073061779141,0.006523492617765441
1772618237023804700,1.5038046875,-0.003133037328720093,0.0084352353900671,-0.014241158889583312
1772618237033836500,1.51383642578125,-0.005078910699486732,0.003839559896569699,-0.00474464181039948
1772618237043867600,1.52386767578125,-0.007472527837753295,-0.006165189832542091,0.009781192939192987
1772618237053899500,1.5338994140625,-0.003880640825629234,0.004442713421490043,-0.0014289733571931718
1772618237063930600,1.5439306640625,-0.005526654466986656,-0.008003620773460715,-0.01828411413745489
1772618237073962500,1.55396240234375,0.002405307576060295,0.001399290604982525,-0.006576241151732392
1772618237083993300,1.563993408203125,-0.001035188266634941,0.0036055502112954853,-0.009520980233582667
1772618237094025700,1.574025634765625,0.0009089315384626388,0.01576340458737686,-0.00045412784251384436
1772618237104056600,1.584056640625,0.009441782084107399,0.0027643501468002795,-0.003094614147627726
1772618237114088400,1.59408837890625,0.012888707667589186,0.00077122183451429,0.005376747435168363
1772618237124119600,1.60411962890625,-0.007162146714329719,0.004156827418506146,-0.010930340141430496
1772618237134151400,1.6141513671875,0.0010720131456851958,0.010128248244617133,-0.009194027001271024
1772618237144183600,1.62418359375,0.009151859226822852,-0.0016329714966937898,0.0022118262639967724
1772618237154214700,1.634214599609375,-0.010453589475154876,-0.007649016915820538,0.00400300682997331
1772618237164246500,1.64424658203125,0.003613514322042465,-0.0015829400761984288,-0.0033722118128789585
1772618237174277600,1.654277587890625,-0.0019224924951791761,0.012350198610406368,-0.00622654636465013
1772618237184309500,1.6643095703125,-0.0008697685718536376,-0.005062617151811719,-0.0034720006592338904
1772618237194340400,1.67434033203125,0.00421849447786808,0.002090907864645123,-0.002726762649347074
1772618237204372700,1.684372802734375,-0.00041851767301559446,-0.00020366934593766926,-0.013012023520004003
1772618237214403600,1.694403564453125,-0.015533084696531295,0.0057121123027987775,0.010147770362417213
1772618237224435500,1.704435546875,0.005414426264166832,0.010837711688224226,0.005747083151480183
1772618237234466600,1.714466552734375,0.001672317126393318,-0.009448832879401743,-0.006573345941747538
1772618237244498400,1.72449853515625,-0.01987725138068199,-0.009531487927865236,0.007619831920531578
1772618237254529500,1.734529541015625,-0.012546177840232849,-0.004536711847875267,-0.0011387354060774669
1772618237264561700,1.744561767578125,-0.014489713123440742,0.003805602828040719,-0.0013397470040479673
1772618237274592500,1.754592529296875,-0.01254091714322567,0.006692848702147603,-0.009191140924440696
1772618237284624600,1.764624755859375,-0.009247136294841765,-0.005908566456660628,0.004801358700008132
1772618237294655500,1.774655517578125,-0.0020616087049245835,0.011816858918685466,0.0006994169736281037
1772618237304687600,1.7846875,0.003324760508537292,0.004842106268927455,0.004739002087479457
1772618237314718500,1.794718505859375,0.006464227578043938,-0.009304455972649157,-0.011560226409649476
1772618237324750600,1.80475048828125,-0.0004208557605743408,-0.010316080700606108,-0.00030204255334101616
1772618237334782700,1.81478271484375,-0.011945873859524727,-0.014425470514502376,0.004251159205031581
1772618237344813600,1.8248134765625,-0.004465747237205505,-0.005272588374372571,0.00231958835425321
1772618237354845400,1.834845458984375,0.0028717560440301893,-0.009599749124795198,0.0010062726994045077
1772618237364876500,1.84487646484375,0.00047755438387393946,-0.008087755392957478,0.0034461857979651536
1772618237374908400,1.854908447265625,-0.007300093880295753,-0.0010367591692134737,-0.005083472710172646
1772618237384939500,1.864939453125,-0.003708791390061378,0.005567041276302189,-0.003524424966215156
1772618237394971600,1.8749716796875,-0.012989829954504966,0.009995854036603122,0.010581481037987395
1772618237405002500,1.88500244140625,0.005261866050958633,0.00041952232001349327,-0.001805916910804808
1772618237415034600,1.89503466796875,0.003909866920113563,0.006007332389708608,-0.020476527881505897
1772618237425065500,1.9050654296875,0.009893032982945442,0.003822480897605419,0.002624293222138658
1772618237435097300,1.915097412109375,-0.0106049806445837,-0.009717438954021782,-0.005153286543372087
1772618237445128400,1.92512841796875,-0.01449322025477886,-0.010384268832299858,0.004210612565511838
1772618237455160600,1.93516064453125,-0.0037210663497447964,-0.0014977094781585037,-0.0007235787339275702
1772618237465191700,1.945191650390625,-0.0031236849784851074,-0.007746394609380513,0.009394983800314366
1772618237475223600,1.9552236328125,-0.0037257425248622893,0.005819865259900689,-0.003743666340620257
1772618237485254400,1.96525439453125,0.010343114838004111,-0.0048751500220038,-0.009152051023067907
1772618237495286500,1.97528662109375,0.012141688692569732,-0.005571443456783891,0.0009183295544702559
1772618237505317400,1.9853173828125,-0.005365910947322845,0.013434358851611613,-0.01179198020575568
1772618237515349500,1.995349609375,-0.0025227964758872986,0.004156699554342776,-0.010001434394018724
1772618237525380600,2.005380615234375,0.0003214870393276214,-0.007140336741320788,-0.0039398373666917905
1772618237535412500,2.01541259765625,0.0078033672273159025,-0.00025415742415934797,0.0024463154398836192
1772618237545444600,2.025444580078125,-0.017335165682435035,0.0006368365988135337,0.005798379513877443
1772618237555475500,2.035475341796875,-0.008206687331199645,0.00842281429991126,-0.010678246810194105
1772618237565507600,2.045507568359375,-0.007910334733128547,0.006592438801284879,-0.004424223350151441
1772618237575538700,2.05553857421875,0.01288636958003044,0.0003984977982938289,0.005585969739058055
1772618237585570600,2.065570556640625,-0.007311784318089484,0.01291607059855014,0.0013075846003834158
1772618237595601700,2.0756015625,-0.0049158290922641755,0.0029175679471343755,-0.009776461965148336
1772618237605633500,2.085633544921875,0.008552139768004417,0.0046882856803946195,0.007171124605229124
1772618237615664400,2.095664306640625,-0.0017699322819709777,-0.0007798983313143253,-0.014334787423210218
1772618237625696800,2.10569677734375,0.01020809028148651,-0.015124321232549845,-0.0017018491815542801
1772618237635727600,2.1157275390625,0.003927402576804161,-0.011683715792000293,-0.0249141495693475
1772618237645759500,2.125759521484375,-0.013133622339367866,-0.006506824610754847,-0.003914273667172528
1772618237655790600,2.13579052734375,-0.012084405547380446,-0.007355988785997033,-0.0021160423059016463
1772618237665822500,2.145822509765625,-0.00041091888844966884,0.008729542161524296,0.0018660587333608418
1772618237675853600,2.155853515625,-0.00684533585011959,-0.011475991325452923,0.008316577446460723
1772618237685885400,2.165885498046875,-0.002056348007917404,0.0007703998506069183,-0.002043894951720722
1772618237695916500,2.17591650390625,0.0033317747712135314,0.005795370139461011,-0.010347010128409601
1772618237705948700,2.18594873046875,-0.00025718963146209714,-0.009110833096690476,-0.0007546268927399068
1772618237715979500,2.1959794921875,0.008872457763552666,-0.00541853618370369,0.002449712973367423
1772618237726011400,2.206011474609375,-0.00010579846203327178,0.008682981339748949,0.00856808625580743
1772618237736043500,2.21604345703125,-0.016122867283225057,-0.004551069166790694,-0.00033760705706663426
1772618237746074400,2.226074462890625,-0.004002221378684044,-0.01146733309496194,-0.012498817867436446
1772618237756106500,2.2361064453125,-0.0034019173979759213,-0.008383395604975521,-0.002090665836050175
1772618237766137600,2.2461376953125,-0.004899462479352951,-0.004738225769344717,0.007218804238433949
1772618237776169500,2.25616943359375,0.007370236507058143,0.0019078246490098535,0.002849749708198942
1772618237786200600,2.26620068359375,-0.005051438170671462,0.003929046544618904,0.006910318244574591
1772618237796233000,2.27623291015625,0.00018470891714096068,0.004382215405907481,0.008320436204248107
1772618237806263800,2.286263916015625,0.003927402576804161,-0.005291676667332649,-0.0014178674412891267
1772618237816296200,2.296296142578125,-0.005194646033644676,0.006464830366242676,-0.02322160250567831
1772618237826327000,2.3063271484375,0.00901858823597431,-0.004225453941617161,-0.01113816963925492
1772618237836359000,2.31635888671875,0.004078793746232986,-0.013444295723736285,-0.01012804274864029
1772618237846390000,2.32639013671875,-0.011039280408620834,0.002855133702792227,0.010139792551938445
1772618237856422000,2.336421875,0.003778349494934082,-0.003993581414502114,0.015827259037247857
1772618237866453000,2.346452880859375,0.0006353752940893173,-0.0019020159627310932,0.00951780646238476
1772618237876485000,2.356485107421875,-0.0007072714865207671,-0.0006044869654811918,-0.010561470296420156
1772618237886516000,2.366515869140625,-0.005795534536242485,-0.006110865829419344,-0.007563763484894298
1772618237896548000,2.376548095703125,-0.009980126744508743,-0.008372234890144319,-0.01662840108599048
1772618237906579000,2.386578857421875,-0.01835924803316593,0.0018015512629412113,-0.011455921218381262
1772618237916611000,2.396611083984375,-0.002494739425182342,-0.010874426969420163,-0.0004082154747098684
1772618237926642000,2.406641845703125,-0.007881693160533904,-0.01234723946833983,-0.00016887202719226478
1772618237936674000,2.416674072265625,-0.00923427681326866,-0.0037735819882713257,-0.0008098413784289732
1772618237946706200,2.4267060546875,-0.002802197939157486,0.0011045271757990122,0.004127112700254656
1772618237956737000,2.436737060546875,-0.0002554360657930374,-0.004396700588986277,-0.008116616161260753
1772618237966769000,2.446768798828125,0.02263970183134079,-0.0003389130981639027,0.0015968224710784852
1772618237976800000,2.456800048828125,0.0153062902033329,0.009646419544424861,0.002685791318141855
1772618237986832000,2.466831787109375,-0.0017529811471700667,-0.0030231472134590147,0.004147296971757896
1772618237996863000,2.476863037109375,-0.00983516531586647,0.002264346469100565,0.019828795429342426
1772618238006895000,2.48689501953125,0.0028811083942651746,0.004314776192884892,0.0014385175036732106
1772618238016926000,2.496926025390625,0.01200841770172119,0.0114147443911992,0.0003589603723492473
1772618238026958000,2.5069580078125,-0.002054594442248344,-0.006261106221377849,-0.006575209105270915
1772618238036989000,2.516989013671875,-0.007593523868918419,0.012194295662641524,-0.0029378618164919313
1772618238047020800,2.527020751953125,-0.0010118073910474776,-0.0043492629843764,-0.00016843363577499984
1772618238057052000,2.537052001953125,0.0022813889354467392,-0.008420951136387885,0.02018171421997249
1772618238067084000,2.547083984375,-0.01073708259165287,-0.009144534436892717,0.008167076840018854
1772618238077115100,2.557115234375,-0.002958265283703804,-0.003397277755476534,-0.004972956973826512
1772618238087147000,2.56714697265625,-0.001613280415534973,-0.0006376951153390109,-0.0023981289166025814
1772618238097177900,2.577177734375,-0.002211246308684349,0.0020347206979990005,0.0061377492697676644
1772618238107210000,2.5872099609375,-0.009244213685393333,-0.003496683009341359,-0.0016263316933531314
1772618238117240800,2.59724072265625,-0.004153028026223182,0.00880605973014608,0.005890784204797819
1772618238127273000,2.60727294921875,-0.0034030864417552947,0.0027709260180592537,-0.00405781032370869
1772618238137304000,2.617303955078125,0.000043839141726493834,0.003933466991409659,0.0061542757128831
1772618238147336000,2.6273359375,0.010969137781858443,-0.0004469400499016046,-0.008634310759278013
1772618238157367000,2.637366943359375,0.003933832317590713,-0.005187412575259805,-0.0010917042268440127
1772618238167399000,2.64739892578125,-0.011480009913444519,-0.002600610952451825,-0.004878405991592444
1772618238177430000,2.657429931640625,0.004086392530798912,0.0056399603820405896,-0.003455556414509192
1772618238187462100,2.667462158203125,0.0043862522602081296,0.000674319064989686,-0.019194283218355847
1772618238197494000,2.677493896484375,-0.006535539248585701,-0.0008660057121887803,-0.022255789680825547
1772618238207525000,2.687525146484375,-0.0038432314246892928,-0.007991400612704456,-0.005929211952467449
1772618238217557000,2.697556884765625,-0.0023497779965400696,0.0032733043159358204,0.011091339389421044
1772618238227587800,2.707587890625,0.0012386018842458725,0.0010191869799047709,0.004752774884505197
1772618238237620200,2.7176201171875,0.0007937807261943817,-0.002143624432571232,-0.0016038002011366187
1772618238247651000,2.727651123046875,0.0037882863670587537,0.0045199799087829885,0.0010623731010826305
1772618238257683000,2.737682861328125,-0.004587327790260315,0.005105835239030421,0.005346818087785504
1772618238267714000,2.747714111328125,0.020852233892679213,-0.006126446991041303,0.0018700088226934893
1772618238277746000,2.757745849609375,0.00933013840317726,0.005564904118143022,-0.004621303125098348
1772618238287777000,2.767777099609375,0.004099836534261703,0.01044416405968368,0.01214579861210659
1772618238297809200,2.77780908203125,-0.0024865561187267303,-0.0083481416285038,0.011460606526653282
1772618238307840000,2.787840087890625,0.0084352353900671,-0.0014348003097809851,-0.01258718113747891
1772618238317872000,2.7978720703125,-0.008621113350987433,0.004453855870012194,0.0001124245656421408
1772618238327903000,2.807903076171875,-0.011765256595611572,-0.008065105169732124,-0.005318546407949179
1772618238337934800,2.817934814453125,0.0076852938055992125,0.0045451326163485645,-0.0002735334114870056
1772618238347966000,2.827966064453125,0.0033440497308969497,0.002517243517935276,-0.004141492852056399
1772618238357997800,2.837997802734375,-0.0008446341305971145,0.006249507115129381,-0.012995538176083937
1772618238368029200,2.848029296875,-0.003087444621324539,0.012142985600512473,0.003908889672579244
1772618238378061000,2.85806103515625,-0.002644377028942108,-0.0003604125439189374,-0.014281719228834843
1772618238388092200,2.868092041015625,-0.003990530940890312,-0.003092540921550244,-0.005204368276637978
1772618238398124000,2.8781240234375,0.002146364378929138,-0.0030133747381158173,0.005229868044075556
1772618238408155000,2.88815478515625,0.006332125630974769,-0.023070183936785907,0.013744968303898349
1772618238418187000,2.89818701171875,0.00469078816473484,0.0038430670279078183,-0.006483580732485279
1772618238428217900,2.9082177734375,-0.005628361275792122,-0.004584003322012723,-0.003137498874706216
1772618238438250000,2.91825,-0.011012392401695251,0.0028323373490944503,-0.012532505507906898
1772618238448282000,2.9282822265625,-0.002183189257979393,0.011641173558216542,-0.002854855141579173
1772618238458313000,2.93831298828125,0.0082914430052042,0.0017680873847566545,0.007836972669395618
1772618238468344800,2.9483447265625,0.0008119009047746658,0.006345204308256506,0.003878777662105858
1772618238478376000,2.9583759765625,0.00589899491071701,0.015669935883954166,0.002118101832247339
1772618238488408000,2.968407958984375,-0.0012859481573104857,-0.0023883747075684365,0.0044321417951257895
1772618238498439200,2.978439208984375,0.007388941207528114,0.0028325200121849772,0.00451421688827686
1772618238508471000,2.988470947265625,0.010080079987645148,-0.0018702508512884377,0.0009401669269427657
1772618238518502000,2.998501953125,-0.007871756288409233,0.008047204186860472,0.014311447646818123
1772618238528534000,3.008533935546875,-0.0005319149196147918,0.008990622516814619,0.010020413089124484
1772618238538564900,3.01856494140625,0.009347089537978172,-0.007656907961331307,-0.004874542667227797
1772618238548597000,3.028596923828125,0.007700491374731063,0.0012116408120840787,-0.001975131431291811
1772618238558628000,3.038628173828125,-0.005469955843687057,0.0012689787562005222,0.010174685768806375
1772618238568660000,3.048659912109375,0.007251578563451767,-0.007187500351294875,-0.005056781066069379
1772618238578691000,3.058691162109375,-0.003819850549101829,-0.00904490998731926,-0.01224460564434994
1772618238588723000,3.068722900390625,-0.006664134064316749,-0.00903276289179921,-0.01506127506685443
1772618238598754000,3.078754150390625,-0.006063830083608627,0.004378635209333151,-0.000343630372476764
1772618238608786200,3.0887861328125,-0.015489830076694487,0.008202157286554575,0.0021013196608051657
1772618238618817000,3.098817138671875,0.02192073990702629,0.0025938341517932713,-0.013274839174654334
1772618238628849200,3.10884912109375,0.00021919570863246916,0.002892305641714483,0.007403472056379541
1772618238638880000,3.1188798828125,-0.0032236382216215133,-0.005630681097041815,0.0144832696829224
1772618238648912000,3.128911865234375,-0.005317395630478858,0.006009743542503565,-0.004657150756614282
1772618238658943000,3.13894287109375,-0.0108534024477005,0.008288246401119977,0.014201639729947783
1772618238668975000,3.14897509765625,0.007106032612919807,0.002787950218096375,0.009242117626429534
1772618238679006200,3.159006103515625,-0.0009738134682178497,-0.013520667161885647,0.011142937145917676
1772618238689038000,3.1690380859375,-0.004411971223354339,-0.003453263992723077,0.015113795271958224
1772618238699070000,3.179070068359375,-0.008899345770478248,0.004572970471344888,0.009324608278111554
1772618238709101000,3.18910107421875,0.0044184009641408915,-0.0057340866725891825,0.012702916471636853
1772618238719133000,3.1991328125,0.011602759510278702,-0.0051888190810568625,0.008811142330639996
1772618238729164000,3.2091640625,-0.01907119569480419,0.01056709631960839,-0.0016362000668188556
1772618238739196200,3.219196044921875,0.0036760581642389296,-0.007010755544900894,-0.009957887513237073
1772618238749227000,3.22922705078125,0.009810615396499633,-0.0032414296066388486,0.005788063615839928
1772618238759259000,3.2392587890625,0.0017307693153619766,-0.0017499672061763703,0.004925939494324847
1772618238769290000,3.2492900390625,-0.0011129296779632568,-0.007821195144951344,-0.004184318213630468
1772618238779321900,3.25932177734375,-0.005754618003964424,0.0007853599577210843,-0.0029759562040213494
1772618238789353000,3.26935302734375,-0.004558686217665672,-0.0029430494482629,0.012635477258614265
1772618238799384600,3.279384521484375,0.010854571491479873,0.000797981977276504,0.004627714599575847
1772618238809415700,3.289415771484375,0.0063625207692384715,-0.0027069208711385725,-0.0005101597455330193
1772618238819447800,3.29944775390625,-0.006503975066542625,-0.0074291088211350135,-0.007999186626938172
1772618238829478700,3.309478759765625,0.010552373674511908,-0.01449267226550728,0.016332811106322332
1772618238839510800,3.3195107421875,-0.004113280537724495,-0.0007200396365486085,-0.008420690841483882
1772618238849541600,3.329541748046875,0.0005213935256004333,-0.007758559971209615,-0.0035294573343591764
1772618238859573500,3.339573486328125,-0.0014244798451662063,-0.017746522962301968,0.012071262938017024
1772618238869604600,3.3496044921875,-0.005912438914179801,-0.003138462422508746,0.007962119719292967
1772618238879636700,3.35963671875,-0.012497078001499176,-0.011052468683756887,0.01302600637958385
1772618238889667800,3.369667724609375,0.004109773406386375,-0.017510759711358695,-0.009202210307726636
1772618238899699700,3.37969970703125,0.009194529324769973,-0.007073792577441782,-0.0010771003127563745
1772618238909730600,3.38973046875,-0.011454875472187995,0.002508274760190397,-0.0025016075573861597
1772618238919762700,3.3997626953125,0.00006488192975521087,-0.011142685984168201,-0.008073708601295948
1772618238929793500,3.40979345703125,-0.010562310546636582,0.0018359284565784037,0.003968383041163906
1772618238939825700,3.41982568359375,0.0033569092124700545,0.009522318240720778,0.0033671383455395696
1772618238949856800,3.429856689453125,-0.0014367548048496246,0.009537022619508206,-0.011809337765933015
1772618238959888600,3.439888671875,0.006934183177351951,0.01119695518836379,-0.01588774791967589
1772618238969919700,3.449919677734375,0.006034019467234611,-0.0012670059948228299,-0.002034999259212054
1772618238979951600,3.45995166015625,0.0025970307558774944,-0.013239037208911031,0.005504944958677515
1772618238989982700,3.469982666015625,0.0028986440509557723,-0.001227148908469826,0.0021474923235131425
1772618239000014800,3.480014892578125,0.0027478374034166334,0.00043572453614324326,0.006397135424893349
1772618239010046700,3.490046630859375,-0.0011439093381166458,-0.007888853553682565,0.010751983333262615
1772618239020077800,3.500077880859375,-0.0012923778980970383,0.0025590916319750247,-0.0052083092328161
1772618239030109700,3.510109619140625,-0.003684241470694542,0.005321121957525611,0.00442184872997459
1772618239040140500,3.520140625,-0.005330255112051963,0.011435768912918864,0.005208669992419891
1772618239050172700,3.530172607421875,-0.013111410507559776,-0.00847109215473756,-0.001247237281850539
1772618239060203800,3.540203857421875,0.004696048861742019,-0.01358056238926947,0.018493720033834687
1772618239070235600,3.550235595703125,-0.0011409867286682129,-0.011508962013293057,0.015921207231283187
1772618239080266800,3.560266845703125,-0.01580780998468399,0.013104231848102062,0.002346818854473531
1772618239090298600,3.570298583984375,-0.0027881694138050077,-0.0031014183477498587,0.00868758444963023
1772618239100329700,3.580329833984375,0.0020019874721765515,-0.007776497486699372,-0.00430376160852611
1772618239110361600,3.590361572265625,0.0036509237229824065,-0.01131638031695038,0.0034209645917406303
1772618239120392400,3.600392333984375,-0.005627776753902435,-0.006133698715735226,-0.006028621772909536
1772618239130424800,3.6104248046875,0.0011029928058385848,-0.0032992242084816095,-0.006785449755890295
1772618239140455700,3.62045556640625,-0.01176701016128063,0.00047658626949414605,-0.005033016597991809
1772618239150487600,3.630487548828125,-0.014158289211988449,-0.0006870506823994219,0.006323490233370103
1772618239160518700,3.6405185546875,0.012025953358411789,-0.01933198378914967,0.002062645317963324
1772618239170550500,3.650550537109375,-0.011321604481339453,0.000605966536514461,-0.0015232594779459759
1772618239180581600,3.66058154296875,0.0006447276443243027,0.010527823755145072,-0.00428195163551718
1772618239190613800,3.67061376953125,0.001541384223103523,-0.0006471022645011544,-0.0036798118907492607
1772618239200644600,3.68064453125,-0.004595511096715927,-0.008066676072310656,0.020697271659830582
1772618239210676700,3.6906767578125,-0.0008516483932733535,0.00022483999812975523,0.0018778496358543633
1772618239220707600,3.70070751953125,-0.0015957447588443754,-0.011556125623267143,-0.006314863968919962
1772618239230739700,3.71073974609375,-0.006231587865948677,0.0004582286288961768,0.000979096998111345
1772618239240770600,3.7207705078125,-0.007729132947325706,-0.0019211042556911706,0.002712359664659016
1772618239250802700,3.730802734375,-0.01595803211033344,-0.01633291157102212,-0.000007872779201716185
1772618239260833800,3.740833740234375,-0.004134907847642899,0.007541537953354418,0.002644016269338317
1772618239270865700,3.75086572265625,0.0040939913153648375,0.0064994084892794485,0.004512828648788854
1772618239280896800,3.760896728515625,-0.007128828966617584,-0.00664955754969269,0.018320838551805354
1772618239290928600,3.7709287109375,0.012775894942879677,-0.0009492452825419605,0.001285203805216588
1772618239300959500,3.78095947265625,-0.0024888942062854767,-0.0032824009378440676,-0.0027540753479581323
1772618239310992000,3.790991943359375,-0.005032148948311805,-0.003170428463350981,-0.000984302896191366
1772618239321022700,3.801022705078125,0.004845686465501785,-0.00426311907088384,-0.007090319020557217
1772618239331054600,3.8110546875,-0.009667992055416106,-0.0025121837503276766,0.00160968195265159
1772618239341086700,3.821086669921875,0.006793313401937485,-0.013937851394340395,0.011605170663073658
1772618239351117600,3.83111767578125,0.002008417212963104,0.01179440962485969,0.005363463261909783
1772618239361149700,3.841149658203125,0.018463292929530143,0.00781659203507006,0.009940493420441635
1772618239371180800,3.851180908203125,0.0011006547182798386,-0.005454758274555206,0.0028404978226637466
1772618239381212700,3.861212646484375,-0.0021913725644350053,-0.010538655676413327,-0.0076264762904495
1772618239391243800,3.871243896484375,-0.0027881694138050077,-0.001578263901080936,-0.010191997663211078
1772618239401275600,3.881275634765625,0.014869652351737022,-0.00204531515724957,0.0004791846519568935
1772618239411306500,3.891306396484375,-0.0032370822250843046,-0.0018821787510998546,-0.006014734811452217
1772618239421338600,3.901338623046875,-0.01161503446996212,-0.002075783360749483,0.005895095053734258
1772618239431369700,3.91136962890625,-0.004427753314375877,0.0073141589382663364,-0.009009208486275747
1772618239441401600,3.921401611328125,0.0021557167291641234,-0.007066230325493961,0.006315256694564595
1772618239451432700,3.9314326171875,0.0012596446722745894,-0.003942435749154538,-0.003218665218981914
1772618239461464600,3.941464599609375,0.004705985733866692,-0.009597520635090768,-0.006787742177676409
1772618239471495700,3.95149560546875,-0.011461305212974547,-0.0015599427931010722,-0.004158672315720468
1772618239481527600,3.961527587890625,0.007545593073964118,0.00507693793810904,-0.020583732849336227
1772618239491559000,3.971558837890625,0.0033598318219184875,-0.007178513327240944,0.0059216223010560495
1772618239501590800,3.9815908203125,-0.005769231051206588,0.012182477360684424,-0.0016604714249726384
1772618239511621600,3.99162158203125,0.006952303355932235,0.003881773336790502,-0.009088461434678174
1772618239521653800,4.00165380859375,-0.0005284077882766723,0.001131159454397857,0.008250631504203193
1772618239531684600,4.0116845703125,-0.0071107087880373,-0.005948843668121844,0.008605934048164635
1772618239541716500,4.021716552734375,-0.007409983995556831,-0.0083106774286367,0.0043995820992393415
1772618239551747600,4.03174755859375,-0.0009790741652250289,-0.0022101685964502392,0.0007121440244605764
1772618239561779700,4.04177978515625,-0.0009767360776662827,-0.004565956208668649,-0.00817788136182353
1772618239571810800,4.051810791015625,0.0020177695631980893,-0.010910210668854415,0.012809705880936235
1772618239581842700,4.0618427734375,0.0018675474375486373,0.006953381068166345,-0.0008382957213558256
1772618239591873500,4.07187353515625,-0.012052256843447684,-0.002786982103716582,0.0014133876289939508
1772618239601905700,4.08190576171875,0.006354921984672546,-0.011820822707749902,0.016252562644076533
1772618239611936500,4.0919365234375,0.0018634557843208311,-0.008619122323300688,-0.00415416053738445
1772618239621968600,4.10196875,0.01622515861392021,-0.004868373221345246,0.005208592360606417
1772618239631999700,4.111999755859375,-0.008614099088311195,-0.009081333007570356,-0.010822847479232586
1772618239642031600,4.122031494140625,-0.009509586623311042,-0.004181560000963509,-0.02007580159350764
1772618239652062700,4.132062744140625,-0.003822773158550262,0.0019542028076946732,-0.014441065375856123
1772618239662094600,4.142094482421875,-0.011152093133330345,0.006031498716585338,-0.010277949780458585
1772618239672125700,4.152125732421875,-0.003523497951030731,-0.0008839249613694846,-0.011715704665728844
1772618239682157800,4.16215771484375,-0.0021808511704206465,-0.005353800384420901,-0.0002615826787892729
1772618239692189700,4.172189697265625,-0.016696867778897284,0.005162643460184336,-0.0018063233361812307
1772618239702220800,4.182220703125,-0.01430325064063072,0.003790569655690342,0.010874774029292166
1772618239712252700,4.192252685546875,0.0027519290566444393,0.006767466574627906,0.0053825926540652285
1772618239722283500,4.202283447265625,0.004548749345541,0.003355557505600154,0.015050539043708703
1772618239732316000,4.21231591796875,0.00365033920109272,0.005456584905460476,-0.001260489489068277
1772618239742346800,4.2223466796875,0.004690203642845153,0.0009514555059373378,-0.010369509654585272
1772618239752378600,4.232378662109375,-0.010275310298800468,0.006563176174182444,-0.010928445011866279
1772618239762409700,4.24240966796875,0.004839256724715232,-0.001667732282821089,-0.004646971855894662
1772618239772441600,4.252441650390625,0.002895136919617653,-0.0012616722325794398,0.00015106237586587666
1772618239782472700,4.26247265625,-0.001294131463766098,0.0015534217207692563,0.0016450500935548916
1772618239792504800,4.2725048828125,0.001250292322039604,0.0004920760995708405,0.023149884409760124
1772618239802536000,4.282535888671875,-0.007731471034884452,-0.010040003705583512,0.0080565885031363
1772618239812568000,4.292568115234375,0.00019756839871406555,-0.0021891623410396277,0.00015024952511303127
1772618239822599000,4.302598876953125,0.010371756410598754,-0.010193714696262032,0.014802779394295066
1772618239832631000,4.312631103515625,0.004237783700227737,0.0076982628850266336,-0.00410788284339942
1772618239842662100,4.322662109375,-0.006086626437306404,-0.00202803522888571,-0.003584790551057085
1772618239852694000,4.332694091796875,0.010371756410598754,0.0011960779167711733,-0.01657178922765888
1772618239862725000,4.34272509765625,0.000647065731883049,-0.006468008704017847,-0.0014809684059116988
1772618239872757000,4.352757080078125,-0.00952536871433258,0.004364478819817304,0.009515034549986012
1772618239882787800,4.362787841796875,-0.00713116705417633,-0.0004398709882982075,0.01378635976021178
1772618239892820200,4.3728203125,-0.01132043543756008,0.0035809454930014906,-0.0008654394566081463
1772618239902851000,4.38285107421875,-0.010873276191949844,-0.0010012129317969083,0.016337615145603192
1772618239912883000,4.392883056640625,0.007527472895383834,-0.0015535861175507307,0.007559530267771333
1772618239922914000,4.4029140625,0.0067775313109159465,-0.006089329851046204,-0.0036029883614508433
1772618239932946000,4.41294580078125,-0.005787351229786872,0.00800561180114746,0.004745294830948114
1772618239942977000,4.42297705078125,-0.010876783323287963,0.006624423108436167,-0.00940500743740704
1772618239953009000,4.4330087890625,-0.002343348255753517,0.004831329146586358,0.00976532408320345
1772618239963040000,4.4430400390625,-0.0011474164694547653,-0.008137841612379997,0.003193768239743076
1772618239973072100,4.453072021484375,-0.0018985270977020263,-0.002464910542499274,-0.0017963270985521375
1772618239983103000,4.46310302734375,-0.000702010789513588,-0.0013633242424577474,0.010452817723597399
1772618239993134800,4.473134765625,-0.007882862204313277,-0.012977427130658178,0.0030275082947453483
1772618240003166000,4.483166015625,0.0010948094993829727,0.0009606069267727434,-0.005792744357534684
1772618240013197800,4.49319775390625,-0.003095627927780151,-0.0037941863848827777,0.005756919558905065
1772618240023229200,4.503229248046875,-0.0014484452426433562,-0.008349529867991805,0.005121978089655749
1772618240033261000,4.513260986328125,-0.005337853896617889,0.006851528128888458,0.014936228481656872
1772618240043292200,4.523292236328125,-0.0198550395488739,0.008398556641489268,0.0036893651703838255
1772618240053324000,4.533323974609375,-0.0021913725644350053,-0.0018469430409371853,-0.005860297734988853
1772618240063355000,4.54335498046875,0.0007984569013118743,-0.0016216098524630069,-0.004141168625070713
1772618240073387000,4.553386962890625,0.0004956745624542236,-0.009745751733053474,0.007585313162999228
1772618240083417900,4.56341796875,0.00019873744249343872,0.009740034378319978,-0.001169696799921803
1772618240093450000,4.573449951171875,-0.005783844098448753,0.006836111364047974,-0.012091661838651634
1772618240103481000,4.583481201171875,0.006032265901565552,-0.008411708384007215,0.0014219682276714592
1772618240113513000,4.593512939453125,0.0021428572475910186,-0.01162752862535417,-0.006489814110449515
1772618240123544000,4.6035439453125,0.004835165071487427,-0.007828629532735795,0.0035958325348794456
1772618240133576000,4.613575927734375,0.002889291700720787,-0.0031641996519640087,-0.007749276119633578
1772618240143608000,4.623608154296875,-0.001000116953253746,-0.00576762361600995,0.0071667041584383695
1772618240153639200,4.63363916015625,0.0024409634113311766,0.00638148119803518,0.00030622553811408576
1772618240163671000,4.643671142578125,-0.007734393644332886,-0.008761252474039792,-0.010285192371997981
1772618240173702000,4.653701904296875,-0.0005517886638641358,-0.006037636196427047,0.0010012403312604874
1772618240183734000,4.663734130859375,0.0012456161469221114,0.01739650394823402,0.00027648798697628077
1772618240193764900,4.673764892578125,-0.005185878205299377,0.005162259867694229,-0.006017958815000019
1772618240203797000,4.683796875,0.00978022025823593,-0.0016766827742569147,-0.00700609306951519
1772618240213828000,4.693828125,-0.0068301382809877395,-0.0016678966796025633,0.012263118548574857
1772618240223860000,4.70385986328125,0.0005009352594614029,-0.004020834747608751,0.00510750203973148
1772618240233891000,4.71389111328125,-0.0018920973569154739,-0.0011920775950886309,0.004036160180903971
1772618240243923000,4.7239228515625,0.00005611410140991211,-0.012305062560737132,-0.009830881866393611
1772618240253954000,4.7339541015625,-0.0006949965268373489,0.0021214673996903,0.00750935271680355
1772618240263986200,4.743986083984375,0.008884732723236083,-0.0043238910811021925,-0.009747108006500638
1772618240274017000,4.75401708984375,0.006340308937430382,-0.0017912307983264325,0.010652039223280734
1772618240284049200,4.764049072265625,-0.007427519652247428,0.0022776260757818817,0.0029608453998574984
1772618240294080000,4.774080078125,0.009182838886976241,-0.001793386222794652,0.014748359493049793
1772618240304111900,4.78411181640625,-0.01012275008559227,-0.000794127786066383,0.0007064814686542376
1772618240314143000,4.79414306640625,-0.004729951131343842,0.014150288568623362,-0.006157394685153849
1772618240324175000,4.804175048828125,0.003800561326742172,0.004506170579139143,0.0041253819674719125
1772618240334206200,4.814206298828125,0.013527590093016623,-0.0028580197796225547,-0.020614625744521616
1772618240344238000,4.824238037109375,0.004400280785560607,-0.0007469276434741913,0.0007356299313250929
1772618240354269000,4.83426904296875,0.0038040684580802914,-0.010116649138368666,0.0028464891720330343
1772618240364301000,4.844301025390625,0.0005120411753654479,-0.0011044906431809066,-0.0015230722482781857
1772618240374332000,4.854331787109375,0.006646598407626152,-0.007499982100259512,-0.003087385255820118
1772618240384363800,4.86436376953125,-0.001886252138018608,-0.004399367470107972,0.00969176109007094
1772618240394395100,4.87439501953125,-0.0027852468043565747,0.0053625864790752525,-0.00398584106604103
1772618240404427000,4.884427001953125,0.0040974984467029565,-0.010131225652992725,0.01746011636951007
1772618240414458000,4.8944580078125,-0.008321838143467902,-0.011604969733674078,0.023877723760274236
1772618240424490000,4.904489990234375,-0.008624620482325554,0.003481321043428033,0.01074469050937332
1772618240434520800,4.914520751953125,0.003494856378436088,-0.0031678163811564445,-0.006815570899518206
1772618240444553000,4.924552978515625,0.0030482816547155378,0.005418956308811903,-0.002480628701439127
1772618240454584000,4.934583984375,-0.003837386205792427,-0.002267981464602053,0.00012880944486241786
1772618240464616000,4.944615966796875,-0.00862520500421524,-0.011293857957888394,0.010172457279101944
1772618240474647000,4.95464697265625,0.00858428847193718,-0.00745143025079742,0.007299851851700805
1772618240484679000,4.964678955078125,0.0009469254612922668,-0.00862628271644935,0.0006061902988003567
1772618240494710000,4.9747099609375,-0.008481997141242027,0.00638411154653877,0.011188876913185231
1772618240504742000,4.984741943359375,-0.012969371688365936,-0.0034244580233469602,0.001465597306843847
1772618240514773000,4.99477294921875,0.006933014133572578,0.009835713305138051,-0.01701440929546952
1772618240524805000,5.00480517578125,-0.0029448212802410125,-0.012104973411373794,-0.001811355704325251
1772618240534836000,5.0148359375,0.006483516800403595,0.005506415396556258,-0.0021335596962831914
1772618240544868000,5.0248681640625,-0.0012993921607732772,-0.004177669277135283,-0.0011538279439322649
1772618240554899000,5.03489892578125,-0.0021978023052215577,0.0025870573511347175,0.005189015443879179
1772618240564930800,5.044930908203125,-0.0033919805258512494,0.003345748497638851,0.00926554416778963
1772618240574962000,5.0549619140625,0.0022930793732404706,0.0008326148992404341,-0.0018877362756291403
1772618240584994000,5.064994140625,-0.0005500350981950759,-0.007886405868269502,-0.003782048422517255
1772618240595025200,5.075025146484375,-0.001297054073214531,0.0047884033203125,0.006230153960688039
1772618240605057000,5.08505712890625,0.0004968436062335968,-0.005302252860274166,-0.0031551623955601822
1772618240615087900,5.095087890625,-0.003543371695280075,0.005513868050649762,0.009258173712086863
1772618240625120000,5.1051201171875,-0.01028349360525608,0.005010046714358032,0.002120375987724401
1772618240635150800,5.11515087890625,-0.002203647524118423,0.004284801179729402,-0.0038338060092180967
1772618240645183000,5.125182861328125,-0.0033995793104171753,0.003211418060865253,0.012401389941526576
1772618240655214000,5.135214111328125,0.006329787543416023,-0.004513294439669698,0.008971753419563173
1772618240665246000,5.145245849609375,-0.009836334359645843,-0.002376574671920389,-0.0016034303083783015
1772618240675277000,5.155277099609375,0.008123685222864151,-0.00398632968980819,-0.009196470120106824
1772618240685309000,5.165308837890625,-0.001454290461540222,0.005637330033537,-0.0023442341717425734
1772618240695340000,5.175340087890625,-0.008934417083859444,0.0058910307999700305,0.015881793102924712
1772618240705372200,5.1853720703125,-0.012528057661652565,0.007626147496886551,-0.007488999481941573
1772618240715403000,5.195403076171875,0.0016863456517457961,-0.0005242796024307609,-0.0073338271865388376
1772618240725435100,5.20543505859375,-0.005492752197384834,-0.0030545835313387213,0.009512637096922844
1772618240735466000,5.215466064453125,0.008426467561721801,0.0020994199646636844,0.01018813433884643
1772618240745497900,5.225497802734375,-0.0020487492233514783,-0.007924856448825448,-0.0011955390606541187
1772618240755529000,5.235529052734375,0.007525719329714775,0.007107822711206972,0.0023201454766793176
1772618240765561000,5.24556103515625,-0.002499415600299835,0.005766874697338789,-0.0005675250891130417
1772618240775592200,5.25559228515625,0.006173720198869705,-0.0033070604550652204,-0.008502765934634953
1772618240785624000,5.2656240234375,0.004677928683161735,0.010022340184729545,0.003683442319673486
1772618240795654400,5.275654296875,-0.006245031869411468,-0.004798376725055277,0.011679345577559433
1772618240805686300,5.285686279296875,-0.010440729993581772,-0.003877809547726065,0.012122874394245446
1772618240815718100,5.29571826171875,0.004972527715563774,0.008036554928682745,0.003633027306688018
1772618240825749200,5.305749267578125,0.004527122035622597,-0.00452498487746343,0.011634775783470832
1772618240835780000,5.315780029296875,-0.00010989011526107787,0.0001600676662288606,0.007289723183331079
1772618240845812200,5.325812255859375,-0.002503507253527641,0.008824326039198785,0.0029698689565295353
1772618240855844400,5.33584423828125,0.0028828619599342345,0.0010644143611192702,-0.0004041466543683782
1772618240865875200,5.345875244140625,-0.005645896932482719,-0.004785626841336489,0.006596914047002792
1772618240875907000,5.355906982421875,-0.005644143366813659,-0.002759107716102153,0.003908140753908083
1772618240885938200,5.365938232421875,0.004084054443240165,-0.002658423820603639,-0.012076441436633467
1772618240895970300,5.37597021484375,0.004083469921350479,-0.005803882239479571,0.010135303606488741
1772618240906001400,5.38600146484375,0.008275076392292975,0.006995448377914726,0.013718491288926452
1772618240916033300,5.396033203125,-0.013121347379684447,0.018179489285778252,0.013393373820674605
1772618240926064000,5.406064208984375,0.008878887504339218,-0.003941540700010955,0.004699172400590032
1772618240936096300,5.41609619140625,-0.004591419443488121,-0.000391045144200325,0.015602610835363157
1772618240946127000,5.426127197265625,0.0033411271214485168,-0.01197526435079053,-0.006939827466849237
1772618240956159200,5.4361591796875,-0.009231354203820229,0.00023684096317738292,0.00838100728506688
1772618240966190300,5.4461904296875,-0.010275894820690154,-0.0024129794258624312,-0.005838515161443502
1772618240976222200,5.45622216796875,-0.0005523731857538223,0.007093520191218704,-0.006200567106599919
1772618240986253300,5.46625341796875,0.01007131215929985,0.0029287469282746315,0.0028922599759418515
1772618240996285200,5.47628515625,-0.004143091154098511,-0.014970646774489432,-0.010116763302800246
1772618241006316300,5.48631640625,0.009625906479358673,-0.007435063637886196,-0.00525312105549965
1772618241016348400,5.496348388671875,0.001841243952512741,0.008699676746223121,-0.008679122581961565
1772618241026379300,5.506379150390625,0.009917582902312278,-0.0011677468714304268,0.010353526634164154
1772618241036411400,5.516411376953125,0.009919336467981339,-0.006330572994705289,-0.004504526611324399
1772618241046442200,5.526442138671875,0.013961305335164069,-0.0026418745446018872,-0.012716757767321542
1772618241056474000,5.53647412109375,0.001992635121941566,0.009523870876990258,-0.002856786803761497
1772618241066505200,5.546505126953125,-0.00010404489636421203,-0.007310907535254955,-0.001224591625202447
1772618241076537300,5.556537353515625,0.0009364040672779082,0.01704356232471764,0.002532591784116812
1772618241086568400,5.566568359375,0.003480243331193924,-0.005407558131963014,-0.008937645653984508
1772618241096600300,5.576600341796875,-0.0011567688196897506,-0.0024589009268209338,-0.00018428879203274845
1772618241106631200,5.586631103515625,-0.008790624698996543,-0.0032893421352840958,-0.00025122568155638874
1772618241116663300,5.596663330078125,0.0043827451288700105,-0.001379800453223288,-0.003973287545144558
1772618241126694100,5.606694091796875,0.0015390461355447769,0.006864204947371035,0.0069195198977598914
1772618241136726000,5.61672607421875,0.006029343292117118,-0.0005001132755540311,-0.005166748813143931
1772618241146757400,5.62675732421875,-0.007736147210001945,-0.00827335935924202,-0.0006993895741645246
1772618241156789200,5.636789306640625,0.002291325807571411,0.0007947853731922805,-0.0033705221792915832
1772618241166820400,5.6468203125,0.004683773902058601,-0.02051945827435702,-0.000010293065151199698
1772618241176852200,5.656852294921875,0.008422375908493995,0.005151848071534186,0.010219616322498768
1772618241186883300,5.66688330078125,-0.012227028888463973,-0.010579535676073282,0.006899833383178338
1772618241196915200,5.676915283203125,0.01306114162504673,-0.005746452963817864,-0.008439002816309221
1772618241206946300,5.6869462890625,0.01096270804107189,-0.006095485597196966,0.0004941812916891649
1772618241216978400,5.696978515625,-0.006247369956970215,0.0024875242331065237,0.006598535181931219
1772618241227009300,5.70700927734375,0.007520458632707595,-0.007395078687369823,-0.0004636217566439882
1772618241237041200,5.717041259765625,-0.008492518535256385,0.0028607049270533026,0.01113438851328101
1772618241247072300,5.727072265625,-0.014326046994328498,-0.010671378677990288,0.005218602297967299
1772618241257104100,5.737104248046875,-0.019859131202101706,-0.0011938128944486378,-0.006507144271163269
1772618241267135200,5.74713525390625,-0.00010112228691577911,0.003691986385732889,-0.011123081667977385
1772618241277167400,5.75716748046875,0.010976152044534683,-0.002854403050430119,-0.00273851701922249
1772618241287198200,5.7671982421875,0.010074819290637969,-0.0076417469248175615,0.00046557625171262767
1772618241297230300,5.777230224609375,-0.004140753066539764,0.002837561513483524,-0.004306108829239383
1772618241307261200,5.78726123046875,-0.006833060890436172,-0.006941489700973033,-0.004947690101829357
1772618241317293000,5.79729296875,-0.003839139771461487,-0.01039542954713106,0.004717822302132845
1772618241327324200,5.80732421875,0.0002034136176109314,0.008848620230238885,0.0012654122593579813
1772618241337356300,5.817356201171875,-0.0014379238486289978,-0.001953161628078669,-0.007268557097716256
1772618241347387400,5.827387451171875,-0.008321838143467902,-0.005212620081752538,-0.005163177749724127
1772618241357419300,5.837419189453125,-0.01206336275935173,0.010827190294209867,0.009662315799877978
1772618241367450000,5.8474501953125,-0.017152794852852822,0.009272069806698709,0.0008106085634091868
1772618241377482200,5.857482177734375,0.0015513210952281952,-0.004024305346328765,-0.0024553937954828143
1772618241387513000,5.86751318359375,-0.0014496142864227294,-0.009436758849117904,-0.0007466171162202954
1772618241397545200,5.877545166015625,-0.00010930559337139129,-0.009093187842145562,0.00926219230007846
1772618241407576300,5.887576416015625,-0.0017547347128391265,-0.006370923271402716,0.014194940561102702
1772618241417608200,5.897608154296875,0.007374912682175636,0.0037831900668330487,0.013602934051281771
1772618241427639300,5.907639404296875,-0.00983341175019741,0.0021396241108886894,0.0014847175658447666
1772618241437671200,5.917671142578125,-0.002501169165968895,-0.009099708914477377,0.0032796564249088986
1772618241447702300,5.927702392578125,0.0018418284744024275,-0.01574670918090269,0.004373424744675867
1772618241457734400,5.937734375,0.012467851907014845,-0.006120601772144437,0.00904850388362538
1772618241467765200,5.94776513671875,0.004689619120955467,0.0002209492743015289,0.014791723710740915
1772618241477797400,5.95779736328125,0.002141688203811645,0.002049826935585588,0.013377664794889279
1772618241487828200,5.967828125,0.0045341362982988355,0.0027115422473289073,-0.0012255186403868719
1772618241497860000,5.977860107421875,-0.00504325486421585,0.0010988646199926733,0.002812691933708265
1772618241507891200,5.98789111328125,-0.006240355694293975,0.01108090932695195,-0.014083895101794041
1772618241517923300,5.99792333984375,-0.01522095000743866,0.009325937152095138,-0.003771280433330685
1772618241527954400,6.007954345703125,-0.0005552957952022552,0.006442819463834166,-0.0003106459849048406
1772618241537986300,6.017986328125,0.005733575215935707,-0.0054960036003962156,-0.003091764603415504
1772618241548017200,6.02801708984375,-0.00010112228691577911,0.0038807504234835504,-0.007758683268795721
1772618241558049300,6.03804931640625,-0.003991115462779998,0.0031054186694324014,-0.003971757741761394
1772618241568080100,6.048080078125,-0.003988777375221252,-0.00326418942771852,0.018146235470147803
1772618241578112300,6.0581123046875,0.011423895812034606,-0.0017565613437443971,0.013967534146551042
1772618241588143400,6.068143310546875,-0.003688333123922348,-0.006562317657656967,0.0068815122751984745
1772618241598175200,6.07817529296875,0.0012485387563705443,0.005145801923237741,0.0008724126200890168
1772618241608206300,6.088206298828125,-0.00772854842543602,-0.0023659802126698194,-0.012655245971586555
1772618241618238200,6.09823828125,-0.012222937235236167,-0.0069226571363396935,-0.0015940459921024738
1772618241628269300,6.108269287109375,-0.006091887134313583,-0.006450893172435462,0.009432237937627359
1772618241638301400,6.118301513671875,0.0025888474494218825,-0.010992080266028641,0.0034581593635492026
1772618241648332300,6.128332275390625,-0.004898293435573578,-0.006821607914660126,-0.00509314015423879
1772618241658364400,6.138364501953125,0.0009381576329469681,0.004965732648596168,0.0056081952705979345
1772618241668395300,6.148395263671875,-0.004452303233742714,0.004066171726677567,0.01029854504391551
1772618241678427100,6.15842724609375,-0.005350128856301308,0.002415554975438863,-0.001563609754643403
1772618241688458200,6.168458251953125,0.010653495961427688,0.007893456663563846,-0.004371150589198805
1772618241698490000,6.178489990234375,-0.008351648759841918,0.002395242839772254,0.02092922638533637
1772618241708521500,6.188521484375,0.0028752631753683087,0.0009690276952460408,0.01426243457305245
1772618241718553300,6.19855322265625,0.0004816460371017456,0.011534918438456951,-0.00826998009206727
1772618241728584200,6.208584228515625,0.00003507131338119507,-0.009370598277729004,0.001621486554876901
1772618241738616300,6.2186162109375,-0.006996727019548415,-0.013311408325377852,-0.005230827025300823
1772618241748647200,6.228647216796875,-0.002500584644079208,-0.005280808213446289,-0.0034346140911802646
1772618241758679000,6.238678955078125,0.0028881226569414135,0.009629176148679107,0.006936749593773856
1772618241768710400,6.24871044921875,-0.0047439796566963194,0.01799867109246552,-0.012746207624091767
1772618241778742300,6.2587421875,-0.008636895442008971,0.005365527354832738,-0.0036435258678160607
1772618241788773400,6.2687734375,0.006174889242649078,0.0015304427039809524,-0.0028661163211101664
1772618241798805500,6.278805419921875,0.0007885200291872024,0.004495576119888573,-0.004358519436488859
1772618241808836400,6.28883642578125,-0.004449965146183967,-0.010725867077894509,0.013556140334066004
1772618241818868500,6.298868408203125,0.001533200916647911,0.008225373765360564,0.014725503773847595
1772618241828899300,6.3088994140625,0.006768763482570648,-0.006497819320391863,-0.0006347085738088935
1772618241838931200,6.31893115234375,-0.008490764969587325,-0.007975965581554919,-0.00798750988887623
1772618241848962300,6.32896240234375,-0.0060930561780929565,0.003553546029422432,-0.0035259913022164255
1772618241858994400,6.338994384765625,-0.0004015665382146835,0.006077968206815421,-0.0006381152404472232
1772618241869025500,6.349025634765625,-0.00279459915459156,-0.000999057507328689,0.005213802825263701
1772618241879057400,6.359057373046875,-0.008631634745001792,-0.01115759129235521,-0.0002743508288171142
1772618241889088500,6.369088623046875,-0.01521568931043148,0.0036370961270295083,-0.00225827292134054
1772618241899120400,6.379120361328125,0.0013940847069025038,0.002143752296734601,-0.005433035066514276
1772618241909151200,6.389151123046875,0.013366262051463126,0.006889211524464189,-0.000181274851039052
1772618241919183600,6.39918359375,-0.003841477859020233,0.0055234213302843265,-0.0019570569184841585
1772618241929214500,6.40921435546875,-0.0011427402943372726,-0.015736297384742647,0.0072647668385878205
1772618241939246300,6.419246337890625,-0.00936813232600689,-0.00453537840731442,-0.005021906115510501
1772618241949277400,6.42927734375,-0.007874094375967979,0.0009793298935517668,-0.0029292309854645282
1772618241959309300,6.439309326171875,0.013375029879808426,0.010098528959788381,0.01042662383641582
1772618241969340400,6.44934033203125,0.01187865384221077,-0.003533946279808879,0.020557493296382016
1772618241979372500,6.45937255859375,-0.013557400709390639,0.0033886377912946044,-0.010007969166082329
1772618241989403400,6.4694033203125,-0.009217910200357437,0.0013293854402378201,-0.006624213045882061
1772618241999435500,6.479435546875,-0.006224573603272438,-0.00976306819403544,0.014920272860699333
1772618242009466400,6.48946630859375,-0.002786415848135948,-0.006325842020660638,0.0027120811034459617
1772618242019498200,6.499498291015625,-0.015507950255274771,0.00810720901209861,0.0026589855096070094
1772618242029529300,6.509529296875,-0.005929390048980712,-0.0030466742195188997,0.010822947943932376
1772618242039561500,6.5195615234375,-0.01490413914322853,-0.011118245662655681,-0.0010180042363936081
1772618242049592600,6.529592529296875,-0.0003869534909725189,-0.004338339731562882,0.0059404548656893895
1772618242059624400,6.53962451171875,-0.011311083087325095,-0.0031175109660252927,0.003556957262638025
1772618242069655300,6.5496552734375,-0.007120061138272285,-0.007192487053666263,0.0049416713529964905
1772618242079687400,6.5596875,0.008144143489003181,0.00504500842988491,0.009777073886501602
1772618242089718300,6.56971826171875,0.0072463178664445875,0.005546948336344212,0.010817340187053196
1772618242099750400,6.57975048828125,-0.0005348375290632248,-0.00031039938973262903,-0.001204220124031417
1772618242109781500,6.589781494140625,-0.007121814703941345,-0.003385751714464277,0.007769067665492184
1772618242119813400,6.5998134765625,0.008293781092762947,0.0029072474825195967,0.013196800935803912
1772618242129844500,6.609844482421875,-0.005919453176856041,0.0011690255130641161,0.001796879654400982
1772618242139876400,6.61987646484375,-0.004420739051699638,0.008442651511542498,0.0009577071502106264
1772618242149907500,6.629907470703125,-0.004721183302998542,-0.01158345202160999,-0.0054916744851507245
1772618242159939600,6.639939697265625,-0.011754150679707526,-0.0058902453486807645,-0.001341258541122079
1772618242169970400,6.649970458984375,-0.00651683454811573,0.0007001841586083173,0.007385534540889784
1772618242180002600,6.66000244140625,0.00350830038189888,0.002320679766219109,0.0044066420276882125
1772618242190033400,6.670033447265625,0.006355506506562233,0.0026157171900384126,0.007220060047181323
1772618242200065300,6.680065185546875,-0.006209960556030273,0.004114540913049131,0.005998975553316995
1772618242210096400,6.690096435546875,-0.006358429116010665,-0.0029420813338831065,-0.003379806030867621
1772618242220128500,6.70012841796875,0.011151508611440658,-0.0010737119124270974,0.010294311826792545
1772618242230159600,6.71015966796875,-0.0033639234751462934,-0.010298234516661614,0.00262103268597275
1772618242240191500,6.72019140625,-0.0024719430714845655,0.010437003666535018,0.00047430754743982105
1772618242250222300,6.730222412109375,-0.00022679449319839477,-0.0018452990731224416,0.002131554968864657
1772618242260254500,6.74025439453125,-0.0017225860089063643,-0.005200801779795438,0.0003506537683075294
1772618242270285300,6.750285400390625,0.014440028762817383,-0.006404423682205378,-0.002444981999322772
1772618242280317200,6.760317138671875,-0.0036637832045555113,-0.0006611855887807905,0.0002648158154916018
1772618242290348500,6.7703486328125,-0.0027618659287691116,0.004867240710183978,0.003092755550681613
1772618242300380400,6.78038037109375,0.005617839881777763,0.006073675624188035,0.006347017239429988
1772618242310411500,6.79041162109375,0.00651508098244667,-0.005135664121713489,-0.0005062872880138456
1772618242320443400,6.800443359375,0.001726093140244484,-0.009882876915112138,0.01854963320584502
1772618242330474500,6.810474609375,0.005615501794219017,-0.007755564296524972,-0.01140160178183578
1772618242340506400,6.82050634765625,-0.003513561078906059,-0.00485428989706561,-0.00548403460138943
1772618242350537500,6.830537353515625,-0.005310381367802619,0.02258302147435024,-0.005746096770791336
1772618242360569600,6.840569580078125,0.0062087915122509,0.01044571669595316,0.00976288096436765
1772618242370600400,6.850600341796875,-0.005612579184770584,-0.0042324864706024526,0.01763815351726953
1772618242380632300,6.86063232421875,0.008750877210497856,-0.0035992666009813544,-0.008513912949734368
1772618242390663400,6.870663330078125,-0.004565700480341911,0.0012606493192724882,-0.005654482097737491
1772618242400695300,6.8806953125,-0.00815992558002472,-0.006608567952178419,0.006876913731894456
1772618242410726400,6.890726318359375,-0.00008241758644580841,0.014731029332336037,0.0022156804552068933
1772618242420758500,6.900758544921875,-0.004869067341089248,0.010198920594342051,0.013481700558098964
1772618242430789400,6.910789306640625,-0.009658639705181122,-0.007867591569945216,0.010504209984117188
1772618242440821500,6.920821533203125,0.0023088614642620083,0.003495331302471459,0.005287137489533051
1772618242450852400,6.930852294921875,-0.00008709376156330108,-0.006338025648798793,-0.0005982079217443242
1772618242460884200,6.94088427734375,-0.004575637352466583,0.006358684844337404,0.005364116282458416
1772618242470915300,6.950915283203125,-0.011157353830337524,-0.006748962803557515,0.0009839832357829436
1772618242480947500,6.960947509765625,0.0048538697719573975,0.0017612557851709424,0.012146844358299859
1772618242490978600,6.970978515625,-0.0002326397120952606,-0.0017463322106748818,0.007126824239199049
1772618242501010400,6.981010498046875,-0.006668810239434242,0.0008770020302385092,-0.0018022499492624773
1772618242511041300,6.991041259765625,-0.0020329671323299405,0.010230740504711866,-0.00038222708350513126
1772618242521073400,7.001073486328125,-0.0023316578179597854,-0.012045900167897344,0.0027577057768823575
1772618242531104300,7.011104248046875,-0.007119476616382598,0.0037809250445105134,-0.003636338075203821
1772618242541136400,7.021136474609375,-0.015346037691831588,-0.006244264684431254,-0.006977045071544125
1772618242551167500,7.03116748046875,-0.011457213559746741,-0.008460497695486992,0.012636874631256796
1772618242561199400,7.041199462890625,0.004703063124418258,-0.008339026740286498,0.005733552383049391
1772618242571230500,7.05123046875,0.005748188263177871,0.00041740342816337943,0.003777965902443975
1772618242581262300,7.061262451171875,-0.005177110376954079,0.0076888374695554375,0.0075542695707641536
1772618242591293400,7.07129345703125,0.0015554127484560011,-0.004371529615111649,-0.003888636902417056
1772618242601325600,7.08132568359375,0.0014016834914684295,0.0032927762013860045,-0.009156526268785818
1772618242611356400,7.0913564453125,-0.009370470413565635,0.00878540053460747,0.004445599498320371
1772618242621388500,7.101388427734375,0.0020008184283971785,0.0005000950092449784,-0.007669657845050096
1772618242631419400,7.11141943359375,0.009181669843196868,-0.018466964457649736,-0.006257676721853203
1772618242641451300,7.121451171875,-0.007427519652247428,-0.003955624024290591,-0.000824897383665666
1772618242651482400,7.131482421875,-0.010866846451163292,0.013196622839290647,-0.0005840423990739509
1772618242661514500,7.141514404296875,-0.006379471904039383,-0.002778780530951917,0.02092113441042602
1772618242671545600,7.151545654296875,-0.005630114841461181,-0.00519879248579964,-0.0056827035452239215
1772618242681577500,7.161577392578125,-0.0014367548048496246,0.010048260077275335,-0.005107483773422427
1772618242691608300,7.1716083984375,-0.0027852468043565747,0.006328600233327597,-0.0012313638592837378
1772618242701640400,7.181640380859375,-0.0005436053574085235,0.00644318479001522,-0.0012828794173896311
1772618242711671300,7.19167138671875,0.00903086319565773,-0.0019608334778808056,-0.01405203409222886
1772618242721703400,7.201703369140625,-0.0027928455889225006,-0.013381185625959188,-0.00006333386006299406
1772618242731734500,7.211734619140625,-0.014768530064821242,0.0010618570778518914,-0.0034625113116810097
1772618242741766400,7.221766357421875,-0.011476502782106398,0.009612973932549358,0.00936050157540012
1772618242751797500,7.231797607421875,-0.007136427751183509,-0.0022421346372924742,0.0211355169466231
1772618242761829400,7.241829345703125,-0.004141337588429451,0.006535831509530544,-0.004338289499212987
1772618242771860500,7.251860595703125,-0.007585340562462807,0.0028503661961294707,0.00279576363179367
1772618242781892600,7.261892578125,-0.011926000115275382,-0.008214834105037152,0.01551553990668617
1772618242791923500,7.27192333984375,-0.004292728757858276,-0.011111541927233338,-0.0024461145104840397
1772618242801955600,7.28195556640625,0.006484101322293281,-0.010462211173027753,0.0007435027105268091
1772618242811986400,7.291986328125,-0.0036900866895914074,0.009727247961983085,0.0008408804040867835
1772618242822018300,7.302018310546875,-0.005338438418507576,0.017473825234454125,0.0082822413520189
1772618242832049400,7.31204931640625,-0.0017488894939422606,-0.002487104107998311,-0.006720828121039085
1772618242842081300,7.322081298828125,-0.0005529577076435089,-0.003789510209765285,-0.0032615910452557725
1772618242852112600,7.332112548828125,-0.0029459903240203855,0.016655567654129115,-0.014818899412034079
1772618242862144500,7.34214453125,0.010371171888709068,-0.0035414719991385935,0.0038036209335085003
1772618242872175400,7.35217529296875,-0.009826397487521172,-0.011135269862692802,0.008489796855207532
1772618242882207500,7.36220751953125,-0.011322773525118826,-0.021623875852301716,-0.003322294556815177
1772618242892238300,7.37223828125,-0.003382628175616264,-0.0014476232587359846,0.013790186551958322
1772618242902270200,7.382270263671875,-0.0026326865911483763,0.0082613949268125,-0.0005907598342280835
1772618242912301600,7.392301513671875,0.0006575871258974075,-0.0001765804096125066,0.0028166465896181762
1772618242922333400,7.40233349609375,-0.008471475747227668,-0.0002779218922369182,0.0007503114772262051
1772618242932364500,7.412364501953125,-0.009516600885987282,-0.011589059778489171,0.007457800626079552
1772618242942396400,7.422396484375,-0.001437339326739311,-0.00990348131172359,0.005644335163058713
1772618242952427300,7.43242724609375,0.005747019219398498,-0.012392393784318119,-0.014334659559046848
1772618242962459400,7.44245947265625,0.00604103372991085,-0.005620031838864088,-0.005379944039252587
1772618242972490200,7.452490234375,-0.008625789526104927,0.014936835836432873,-0.0035518198632169514
1772618242982522400,7.4625224609375,0.012474281647801398,-0.004253236997686326,0.004731124741700478
1772618242992553500,7.472553466796875,-0.008171031495928764,0.001283573537133634,0.011991347835911437
1772618243002585300,7.48258544921875,-0.005475801062583923,0.0116942189197056,-0.0016508998790290205
1772618243012616400,7.492616455078125,-0.0032300679624080657,0.0012417802220210433,-0.0017409756155451759
1772618243022648300,7.5026484375,-0.009667992055416106,-0.01241129941418767,-0.01219975272247102
1772618243032679400,7.512679443359375,0.0024497312396764754,-0.005554894180782139,-0.008168204784602858
1772618243042711600,7.522711669921875,-0.006679916155338287,0.0009382489644922316,0.0038340845704311504
1772618243052742400,7.532742431640625,0.003045359045267105,-0.006945782283600419,0.007761834207107313
1772618243062774500,7.5427744140625,-0.014462825116515159,0.011204700103402137,0.007995738861104473
1772618243072805400,7.552805419921875,-0.0018903437912464142,-0.0056528746625408525,0.008720148712093942
1772618243082836500,7.56283642578125,-0.005479308193922043,-0.009916103331279008,0.014159796182485297
1772618243092868400,7.572868408203125,0.01621639078557491,-0.00016615034714341162,0.0087719291316811
1772618243102899200,7.582899169921875,0.00229658650457859,0.008194284507352859,0.012802317158924414
1772618243112931600,7.592931640625,-0.018055881172418593,-0.0013130918925628066,0.005525521955825388
1772618243122962400,7.60296240234375,-0.007283727267384529,0.01313857250912115,0.005303577167680487
1772618243132994300,7.612994384765625,0.001994388687610626,-0.008160564900841563,0.02027337455879897
1772618243143025400,7.623025390625,-0.002042319482564926,-0.0012645583094097674,0.0033735178539762273
1772618243153057300,7.633057373046875,-0.016261398971080778,-0.019958627787511795,0.010965822446765378
1772618243163088400,7.64308837890625,0.0018453356057405472,0.0066186692210845645,0.007816834063665009
1772618243173120500,7.65312060546875,-0.009078209468722342,-0.0011413337885402143,0.00414504564916715
1772618243183151400,7.6631513671875,-0.007283727267384529,0.0012723762896843253,0.013785848303558303
1772618243193183500,7.67318359375,0.0022889877200126646,-0.005488350016903132,0.010245810209680349
1772618243203214300,7.68321435546875,0.003634557110071182,-0.0008458031743764876,0.017498662848188542
1772618243213246500,7.69324658203125,0.0022878186762332916,-0.0044627150299027555,0.004335755048831925
1772618243223277300,7.70327734375,-0.001308159989118576,0.0117387887137942,0.012029437656863592
1772618243233309400,7.713309326171875,0.000633037206530571,0.009058153061382471,-0.007339622173085808
1772618243243340500,7.723340576171875,-0.003858428993821144,-0.008842811543960124,-0.009269110664632171
1772618243253372400,7.733372314453125,-0.0038572599500417705,0.0051844899658113714,0.005896775554167106
1772618243263403500,7.743403564453125,0.0027262100934982297,0.0028032573850825426,0.0038664981358451766
1772618243273435400,7.753435302734375,0.003772504276037216,-0.012847736336383968,0.0022994223490590228
1772618243283466200,7.76346630859375,-0.0004161795854568481,-0.00392712858216837,-0.00608131550794933
1772618243293498600,7.77349853515625,0.0052700493574142455,0.011224866108596325,0.00829670370221138
1772618243303529500,7.783529541015625,0.0024275194078683853,0.0022340061297640205,-0.002449900203035213
1772618243313561300,7.793561279296875,0.0013818097472190856,-0.001904244452435523,0.018293420821917244
1772618243323592400,7.803592529296875,-0.002810381245613098,-0.007224179099872708,0.01153421061898116
1772618243333624300,7.813624267578125,0.005123918884992599,0.003751004830282181,0.011814676094753666
1772618243343655400,7.823655517578125,-0.0008656769186258316,0.0027020985655486583,0.0055289377556182445
1772618243353687600,7.8336875,-0.007004910326004028,0.0016764635785482822,0.017080346104572527
1772618243363718400,7.843718505859375,-0.005215688821673393,-0.0021185630565509197,0.009231016277102754
1772618243373750500,7.85375048828125,0.0018126023799180982,0.01178704830231145,-0.007162356776883825
1772618243383781400,7.863781494140625,-0.00597089110314846,-0.006434782287850976,0.012997159311012365
1772618243393813200,7.873813232421875,-0.01210778642296791,-0.011023005127254872,-0.0027786891994066535
1772618243403844400,7.88384423828125,0.006897942820191383,0.0019250315121375023,0.0005916914159897715
1772618243413876500,7.89387646484375,-0.008516483932733535,0.0018064466337673365,0.006917515170341357
1772618243423907600,7.903907470703125,0.017066285613179206,0.01885711455270648,0.02084978164068889
1772618243433939500,7.913939453125,0.004941548055410385,0.011371489771362393,0.003618332061055116
1772618243443970600,7.923970458984375,0.0017974048107862472,-0.0008561419053003191,-0.0022846129389945415
1772618243454002400,7.93400244140625,0.005388707301020622,0.0030459618334658443,0.010473280556313693
1772618243464033300,7.944033203125,-0.00014963760375976562,0.0035622773251496255,0.002414655359718017
1772618243474065400,7.9540654296875,-0.008828618621826172,-0.003786459736153483,0.00024610198186710475
1772618243484096500,7.964096435546875,0.010325579181313514,0.003667454732675105,-0.008752699274825863
1772618243494128400,7.97412841796875,0.007782324439287185,0.02345081728482619,0.003072018723329529
1772618243504159500,7.984159423828125,0.0040355391263961786,0.013752850216254591,0.0067085211953148245
1772618243514191400,7.99419140625,-0.004647533544898033,-0.006460391653142869,-0.015494186591403558
1772618243524222500,8.004222412109375,0.0040296939074993135,0.014072401026822626,0.0025558128295000643
1772618243534254300,8.01425439453125,-0.00300853416621685,0.008838920820131898,0.013332752507505938
1772618243544285400,8.024285400390625,-0.007496493235230445,-0.006876845233235508,0.0007351504407124593
1772618243554317600,8.034317626953126,0.009410217902064323,-0.009316548269242048,-0.0010063457646407187
1772618243564348400,8.044348388671875,-0.005254267266392707,0.0038174759289249776,0.0012957754315808415
1772618243574380300,8.05438037109375,0.0025239655196666716,0.010797799802944064,0.003494536718027666
1772618243584411400,8.064411376953124,-0.011547229930758476,0.0004795454115606844,0.0020382917614188045
1772618243594443300,8.074443359375,0.004162964898347854,-0.0019905892953276634,0.014641506151668727
1772618243604474400,8.084474365234374,0.010151976180076598,0.019002514372766018,0.0015481564571848138
1772618243614506500,8.094506591796875,-0.0027168577432632444,0.009845924171898513,-0.006465364655782469
1772618243624537300,8.104537353515624,-0.005561141258478165,-0.011636278187390416,-0.009836311526759527
1772618243634569500,8.114569580078125,-0.01737842030227184,0.01083131848005578,0.0023589476836845275
1772618243644600300,8.124600341796874,-0.0004682020336389541,0.006595434475969523,-0.009519185568718239
1772618243654632400,8.134632568359375,-0.0021130466312170026,0.009661416184157133,-0.00795001828954555
1772618243664663300,8.144663330078124,-0.0025590368330478666,0.0029694807974621653,0.00725642826850526
1772618243674695400,8.1546953125,0.01958615947961807,-0.005377784048207104,-0.009856244636513292
1772618243684726500,8.1647265625,-0.014230185404419898,0.0030883031378500163,0.004834950442356057
1772618243694758400,8.17475830078125,0.009559855505824088,-0.0071533788859844205,0.00256000494742766
1772618243704789500,8.18478955078125,-0.008391396248340606,0.0020727146208286283,0.013506894364859908
1772618243714821400,8.1948212890625,-0.009136661657691001,0.006291227365005761,-0.0026293849557871
1772618243724852200,8.204852294921874,-0.015122165808081626,-0.0028102716477587815,0.006624345476622693
1772618243734884600,8.214884521484375,-0.016168459990620613,0.00613048384534195,0.005606396039156243
1772618243744915500,8.22491552734375,0.0059784898877143855,-0.004687555028032512,-0.011241387985134497
1772618243754947300,8.234947265625,-0.011225158369541167,0.010369600986130535,-0.004802893069968559
1772618243764978400,8.244978515625,0.004184592208266258,-0.0022702099543064833,0.013501601701811887
1772618243775009300,8.25500927734375,0.0005927051961421966,-0.001640789476968348,0.0002613315170397982
1772618243785041400,8.26504150390625,0.00044832828938961026,0.005836231872811913,0.0011399135830113664
1772618243795072300,8.275072265625,-0.0070341364204883575,0.0030511129326187074,0.0016533612641738728
1772618243805104400,8.2851044921875,-0.010627776998281479,-0.014691811566799879,0.0008936883035581558
1772618243815135500,8.295135498046875,-0.00883563288450241,0.012972805754467845,0.0037184497009729966
1772618243825167400,8.30516748046875,-0.006442015746235847,0.008402008973900229,0.0007253140332875772
1772618243835198500,8.315198486328125,0.002539163088798523,-0.0030557525751180943,-0.0043936775148380545
1772618243845230600,8.325230712890624,0.009721183547377586,-0.0026249599424190816,-0.003168875827081501
1772618243855261400,8.335261474609375,-0.008086860343813895,-0.005591061472706497,-0.011913597291428595
1772618243865293600,8.34529345703125,-0.0052390696972608565,0.006076908760890364,-0.008885458809020929
1772618243875324400,8.355324462890625,-0.003441664886474609,-0.0035773104975000023,0.01129784914641641
1772618243885356500,8.3653564453125,0.0008995791882276535,0.004294884182326496,0.0036143774051452054
1772618243895387400,8.375387451171875,-0.0014946224719285964,-0.0007939451229758561,0.0016645630782004446
1772618243905419500,8.38541943359375,-0.00672901599407196,0.018702362382411956,-0.0008805091615766286
1772618243915450600,8.39545068359375,0.0029950901627540587,-0.0009419022263027727,0.00790624307990074
1772618243925482500,8.405482421875,-0.009127893829345703,0.000008731295727193356,-0.013759932977589777
1772618243935513600,8.415513671875,0.0038911622196435925,0.008647690830659121,-0.010819239883194677
1772618243945545500,8.42554541015625,-0.018402502653002736,0.008294931870233268,0.008136978529277257
1772618243955576300,8.435576416015625,-0.013912790018320083,0.003595010550972074,0.006963546269154176
1772618243965608700,8.445608642578126,0.0028489596903324126,0.0016160386282019316,-0.00007515672859735786
1772618243975639600,8.4556396484375,-0.007173837152123451,-0.0035920696752145885,0.008237178367585874
1772618243985671400,8.46567138671875,-0.009269348126649856,-0.002679083016142249,-0.005984481237083673
1772618243995702500,8.47570263671875,-0.005229132825136184,-0.005247618329897522,0.0020215415560174733
1772618244005734400,8.485734375,0.007042904248833656,-0.00977927041016519,-0.0024120752435643224
1772618244015765500,8.495765625,-0.004182838642597198,-0.0067065667002461846,0.00038701742305420335
1772618244025797600,8.505797607421876,-0.0025379940450191494,-0.001001907051540911,0.001345898183621466
1772618244035828500,8.515828369140625,-0.005229717347025871,-0.006630578854586929,0.0009463226730935275
1772618244045860600,8.525860595703126,-0.017795184409618376,0.004449252760130912,0.00019431699570268392
1772618244055891500,8.535891357421875,-0.017644962283968925,-0.00889713554708287,-0.014500257350341416
1772618244065923300,8.54592333984375,0.0039022681355476378,0.003271021027304232,0.003092134496173821
1772618244075954400,8.555954345703125,-0.002831424033641815,0.0005663651784881949,0.013841300251265056
1772618244085986600,8.565986572265626,0.005699672946333885,0.015907964157219977,-0.0035527605781331658
1772618244096017700,8.576017578125,-0.005375847819447517,-0.003780614517256617,0.005929148020385764
1772618244106049500,8.586049560546876,-0.014506664258241653,-0.01296009240336716,-0.0015392287986353038
1772618244116080600,8.59608056640625,-0.0163040690690279,0.00719597591869533,-0.004719557601492851
1772618244126112500,8.606112548828126,-0.007323474755883216,0.003215034790057689,0.005026774086873046
1772618244136143400,8.616143310546875,0.0007522796720266342,-0.007652542313467711,0.01368963508720044
1772618244146175700,8.62617578125,0.002991583031415939,0.004505220731068402,0.011558842736738734
1772618244156206600,8.63620654296875,-0.003894669350981712,0.010293174749054014,0.011821612725616432
1772618244166238500,8.646238525390626,-0.00644493835568428,0.0007944017807021736,0.008525187828997149
1772618244176269600,8.65626953125,0.0029798925936222074,0.00851476689968258,-0.005483979802462272
1772618244186301400,8.666301513671876,0.0005880290210247039,0.0032343605450354516,0.010359298787824808
1772618244196332500,8.67633251953125,-0.0027022446960210797,0.011121259603649377,0.00982447039191611
1772618244206364400,8.686364501953125,0.00538052399456501,0.006892462927475571,-0.0014087160204537211
1772618244216395500,8.6963955078125,-0.0007528641939163207,-0.0022947233410552143,0.011248306349688209
1772618244226427600,8.706427734375,0.007029460245370865,-0.0012502192568033933,0.0001328325994312763
1772618244236458500,8.71645849609375,0.003584872749447822,0.004837905017845332,0.0014627431960543616
1772618244246489600,8.726489501953125,-0.0018038345515727996,-0.006338938964251428,0.00772114600369241
1772618244256521500,8.736521484375,-0.006890344035625457,-0.006995119584351777,0.011509925561095587
1772618244266552600,8.746552490234375,-0.010182955840229987,-0.007294778384361416,0.013881440465408377
1772618244276584400,8.75658447265625,-0.0007546177595853806,-0.004335161393787711,0.003844514632900245
1772618244286615600,8.766615478515625,-0.008537526720762252,-0.004288216979522258,0.008750173957599326
1772618244296647400,8.7766474609375,-0.006146832191944122,0.006592183072958141,-0.016151170929102225
1772618244306678500,8.786678466796875,-0.007190203765034675,0.0033074805801734325,0.003119561359216459
1772618244316710400,8.79671044921875,-0.0050958618342876435,-0.004304875853378325,-0.0014782558590173721
1772618244326741500,8.806741455078125,-0.0010533084452152251,-0.00407092096703127,0.007840333670261315
1772618244336773400,8.8167734375,0.00897591813802719,0.008041432033199817,0.0027578519073547794
1772618244346804700,8.8268046875,0.008830956709384918,0.006642853814270347,-0.010361349181015975
1772618244356836600,8.836836669921874,-0.004488543590903282,0.011361918225418776,0.002993414228898473
1772618244366867500,8.846867431640625,0.0023936171382665634,0.003008789894543588,0.005481997907930054
1772618244376899600,8.856899658203124,0.006432663396000861,-0.0033612383277155456,0.003050738473283127
1772618244386930400,8.866930419921875,0.005684475377202034,0.0028086276799440383,-0.019119966739974913
1772618244396962300,8.87696240234375,-0.013017887005209922,0.007526322117913514,-0.005314605451771058
1772618244406993400,8.886993408203125,-0.016609774017333982,0.0063009267751127475,0.0010804110812721772
1772618244417025500,8.897025634765624,0.0014969605594873428,-0.0022490941010415554,-0.007848964501288719
1772618244427056600,8.907056640625,0.011515081226825713,-0.0006357588865794241,0.0017795449271099642
1772618244437088500,8.917088623046874,-0.0013555062621831893,0.00031449104296043514,0.0023640439839102325
1772618244447119400,8.927119384765625,0.00912146408855915,-0.0027773192262277005,-0.001594977573864162
1772618244457151500,8.9371513671875,0.01136661266684532,-0.001024630340002477,0.002219425048562698
1772618244467182300,8.947182373046875,0.012117138773202895,-0.00037665129266679286,0.00919993158567231
1772618244477214500,8.95721435546875,0.006582885521650314,0.008314257625211029,0.012016687773144803
1772618244487245600,8.96724560546875,-0.006133972710371017,0.005224018258601427,0.008199860298191197
1772618244497277400,8.97727734375,-0.00029752164185047145,0.008049140415620059,0.002344247871474363
1772618244507308500,8.98730859375,-0.0034410803645849226,-0.00931095877867192,-0.0032901595526142044
1772618244517340400,8.99734033203125,0.0004465747237205505,0.00920545257758349,0.0069050438478356225
1772618244527371500,9.00737158203125,-0.01556640244424343,-0.017239377157762647,0.0084039223697735
1772618244537403600,9.017403564453126,-0.009732289463281632,-0.0076660228495486074,0.00040648017534986134
1772618244547434500,9.0274345703125,0.004033785560727119,0.005216930930688977,0.004143611743906513
1772618244557466600,9.037466552734376,-0.002551438048481941,-0.008802223805245011,0.0035478880401933564
1772618244567497500,9.04749755859375,-0.014223755663633346,-0.0019150946400128305,0.013509880906390026
1772618244577529300,9.057529296875,-0.015870938348770142,0.009178619369585066,0.007844630819465964
1772618244587560400,9.067560546875,-0.009740472769737243,0.0018771920487284659,-0.008528777158726006
1772618244597592600,9.077592529296876,-0.010788520517945288,0.006520926201343536,-0.008707015235885046
1772618244607623700,9.087623779296875,-0.008394903379678726,0.0011536635471507907,-0.00024032526162918655
1772618244617655600,9.097655517578126,0.009561024549603461,0.008510821376927196,-0.0055807181752054015
1772618244627686400,9.107686279296875,0.002527472651004791,0.0007242226213216781,0.006141987053467891
1772618244637717500,9.117717529296876,-0.009445289215445518,0.0009022278030402957,0.00423149095675908
1772618244647749400,9.127749267578125,0.009558101940155028,-0.009999525564722717,-0.006691419363464228
1772618244657781500,9.137781494140626,0.0032756606698036194,0.008959624590352176,-0.010931504618632607
1772618244667812600,9.1478125,0.0025268881291151046,0.002678644624724984,-0.012597350905044003
1772618244677843500,9.157843505859375,-0.0030108722537755964,0.003923109994176775,0.010471823818166739
1772618244687875600,9.16787548828125,-0.0024140754044055935,0.00620190511373803,0.009780704315425827
1772618244697906400,9.177906494140625,-0.008100304347276687,-0.006978186715859919,0.0019486224502790717
1772618244707938600,9.1879384765625,-0.002413490882515907,0.0009273074453696608,0.013287940684822388
1772618244717969400,9.197969482421875,0.003273322582244873,-0.0005716624081134796,-0.006237971940962597
1772618244728001500,9.20800146484375,0.0026718495577573776,0.004778630844969302,-0.00367440506326966
1772618244738032600,9.21803271484375,0.010455927562713623,0.007260930913686752,0.011575606641871855
1772618244748064500,9.228064453125,-0.014383330139517782,0.0027747619429603215,0.008531316175684332
1772618244758095600,9.238095703125,0.005516717594861984,-0.005412617899570614,0.013410311255743726
1772618244768127500,9.24812744140625,0.014041969355940818,-0.001807907938491553,0.005346037203073501
1772618244778158300,9.258158447265625,0.00476268435716629,0.0027145561883226035,0.007955927440524101
1772618244788190700,9.268190673828125,-0.004359364253282547,0.00952361514866352,-0.01975214999655727
1772618244798221600,9.2782216796875,-0.0021130466312170026,-0.00623215412152931,-0.004771538950479589
1772618244808254200,9.288254150390625,-0.008542202895879744,0.013818755059316753,0.011554860681365244
1772618244818285300,9.298285400390625,-0.0012128829210996627,0.0028140710400417447,0.003684241470694542
1772618244828317200,9.308317138671875,-0.017372575083374975,0.0036731355547904966,-0.006539717666781507
1772618244838348000,9.31834814453125,-0.010344283881783484,-0.012662826489843427,-0.005497250275989063
1772618244848380400,9.32838037109375,-0.0022638532787561416,0.000021006255410611628,-0.001411296136607416
1772618244858411300,9.338411376953125,-0.006305822145938873,-0.004730572185851633,-0.0028945341314189133
1772618244868443100,9.348443115234375,-0.01049742861688137,0.002198752153292298,-0.028095277523226103
1772618244878474200,9.35847412109375,-0.003769581666588783,-0.0026775851787999272,0.010408060699841007
1772618244888506000,9.368506103515625,-0.003919803792238235,-0.0032899449234828353,0.008192836902360431
1772618244898537200,9.378537109375,-0.006909048736095428,-0.001641100004222244,0.003594489961164072
1772618244908569300,9.3885693359375,-0.011095979031920432,0.0074039926461875434,-0.0008033705384470522
1772618244918600400,9.398600341796875,-0.0057125324279069896,-0.01104256834425032,0.0040653406096156685
1772618244928632300,9.40863232421875,0.009699556237459182,-0.001176733895484358,-0.003233186934678815
1772618244938663200,9.4186630859375,0.0028150574207305907,-0.00876576425237581,0.007676311348122544
1772618244948695300,9.4286953125,0.0001204115092754364,-0.000800648858398199,0.0020098237187601625
1772618244958726100,9.43872607421875,-0.006911386823654175,-0.005450392626691609,0.004038096409663558
1772618244968758300,9.44875830078125,0.0014694880306720733,0.0030626389736309644,0.006566290579875931
1772618244978789400,9.458789306640625,0.010745265898108482,0.0063001413238234815,0.000630036965268664
1772618244988821200,9.4688212890625,0.012242810979485512,0.00007697422634810208,0.003344264360028319
1772618244998852400,9.478852294921875,0.005063713130354881,0.0008671016907319426,-0.0012236417771317063
1772618245008883200,9.48888330078125,0.004167641073465347,0.007394896024279296,-0.01096448900620453
1772618245018915000,9.4989150390625,0.003417699488997459,0.005826495930086821,-0.006113582942890934
1772618245028946200,9.5089462890625,-0.001370119309425354,0.010109981935564429,-0.0029155997523339465
1772618245038978300,9.518978271484375,-0.004811199674010277,0.01065924984877929,0.0008653892242582514
1772618245049009400,9.529009521484374,0.0011748889982700348,0.0007817614948377013,0.005290722252684645
1772618245059041300,9.539041259765625,0.005517886638641357,0.007695431607123464,-0.0068289738037856295
1772618245069072100,9.549072021484376,0.0031219314128160475,0.020912037788517773,-0.0028686325051821768
1772618245079104300,9.559104248046875,-0.008996376404166222,-0.010726031474675983,0.0045607685768976804
1772618245089135000,9.569135009765626,-0.00824701934158802,0.007211958939116448,-0.007203227643389255
1772618245099167200,9.579167236328125,0.0050672202616930005,0.008977434241678565,0.0062487399301491674
1772618245109198300,9.5891982421875,0.00132628016769886,0.006391491135396063,0.012576965704141184
1772618245119230200,9.599230224609375,-0.010643559089303017,0.0048440242313779885,0.016220948229683563
1772618245129261300,9.60926123046875,-0.006006546938419342,-0.0009394362745806575,-0.00790960408076644
1772618245139293200,9.619293212890625,-0.0010725976675748825,0.0011520561119541526,-0.014184921490587293
1772618245149324300,9.62932421875,-0.0013753800064325332,0.0044172501866705715,-0.001181414637179114
1772618245159356400,9.6393564453125,0.0013157587736845017,0.012423428243398666,-0.00040531113157048817
1772618245169387300,9.64938720703125,-0.0012298340559005736,0.011903715218231081,-0.008781459578429348
1772618245179419400,9.65941943359375,0.0089449384778738,0.0042622970869764685,0.013734428643574938
1772618245189450200,9.6694501953125,0.0037041152149438856,-0.00011056596869602798,0.003236493136617355
1772618245199482000,9.679482177734375,-0.0025812486648559567,-0.004415186093747615,0.00024269531522877512
1772618245209513200,9.68951318359375,-0.01051613331735134,0.01140332794804126,0.0023669346273178233
1772618245219545300,9.69954541015625,0.0036953473865985868,0.0028727972236461934,-0.0033018865230260413
1772618245229576400,9.709576416015626,-0.019798340925574302,0.012195775233674794,-0.011455953184422106
1772618245239608300,9.7196083984375,-0.01395955176949501,0.006234364344924688,-0.010520001208293252
1772618245249639200,9.72963916015625,0.00010989011526107787,0.007143277617078274,0.0019139895283151417
1772618245259670300,9.739670166015625,-0.0033317747712135314,0.007880377986282109,-0.016384710256918334
1772618245269702100,9.7497021484375,-0.016354922473430632,0.012584920681733638,0.004576427370333112
1772618245279733200,9.759733154296875,-0.0009440028518438339,-0.007541373556572944,0.008183804212533868
1772618245289765400,9.769765380859376,0.013269231417775154,-0.0015311368237249552,0.0012780936444178224
1772618245299796200,9.779796142578125,0.00024608371555805207,0.0073051719142124055,0.011811356193083338
1772618245309828400,9.789828369140626,0.0017424597531557082,0.0014385631694458425,-0.003661942873918451
1772618245319859200,9.799859130859375,-0.0042407063096761705,-0.008798588809743524,0.007165055624046362
1772618245329891300,9.809891357421876,0.0009954407781362533,-0.0027579934712499378,0.009140881175082176
1772618245339922200,9.819922119140625,-0.004993570503592491,0.0008188421022146939,0.008008735339995474
1772618245349954300,9.829954345703126,0.00682663114964962,0.00621682868823409,0.009837886995915323
1772618245359985400,9.8399853515625,-0.0000526069700717926,-0.002755564052145928,-0.012596912513626738
1772618245370017300,9.850017333984376,0.008773089042305946,0.0067524516685865815,-0.011614509313576854
1772618245380048400,9.86004833984375,0.005031564426422119,0.007209292057994753,-0.014392193865985609
1772618245390080300,9.870080322265625,-0.018016718205809593,0.014703922129701822,-0.010031651435769163
1772618245400111000,9.880111083984374,0.0015840543210506439,0.004889215079974383,-0.008527224522456526
1772618245410143200,9.890143310546875,-0.010088263294100761,-0.0009498115381225943,0.011305603194609284
1772618245420174300,9.90017431640625,0.004726444000005722,-0.008158811335172505,-0.009850842375610954
1772618245430206200,9.910206298828125,0.013103227201104163,0.005871303186193108,0.0029068410571431737
1772618245440237300,9.9202373046875,0.002025368347764015,0.008824746164306998,-0.004886301603680476
1772618245450269200,9.930269287109375,-0.002463759765028953,0.0007521152752451598,-0.008493404451245442
1772618245460300300,9.94030029296875,-0.006354921984672546,0.005125215792935341,0.015229617371084168
1772618245470332200,9.950332275390625,0.0038204350709915157,0.005738543651998043,-0.0023839679605094713
1772618245480363300,9.96036328125,0.01026128177344799,0.006865775849949568,-0.002945095274876803
1772618245490395400,9.9703955078125,-0.0029039047479629517,0.001392404206469655,0.0017908609055681153
1772618245500426200,9.98042626953125,-0.014424246671795845,-0.0016046039187349378,-0.004884698735061101
1772618245510458000,9.9904580078125,-0.008735679641366005,-0.0027130766172893343,0.013150801803031936
1772618245520489200,10.0004892578125,-0.003647416591644287,0.015510745000559836,0.005052588948141783
1772618245530521000,10.01052099609375,-0.007691139024496078,0.014734426865819841,-0.00022311383192427455
1772618245540552200,10.02055224609375,-0.004850362640619278,-0.008682360285241157,0.00858738004474435
1772618245550584300,10.030584228515625,0.018490765458345413,0.009926624725293367,0.0032462610453832894
1772618245560615400,10.040615478515624,0.006219897428154945,0.009354396061599254,-0.00033377569874282924
1772618245570646300,10.050646240234375,-0.007547346639633178,0.0021668957103043794,0.0014654648761032148
1772618245580678100,10.06067822265625,0.005023381119966507,-0.003720792355109006,0.0006802145162364468
1772618245590709200,10.070709228515625,0.004422492617368698,0.0020285832181572913,0.003222158650588244
1772618245600741000,10.0807412109375,-0.005896656823158264,-0.001033452967274934,-0.01088444147335831
1772618245610772500,10.0907724609375,-0.009039046502113342,-0.00012561740735545754,-0.001612736992840655
1772618245620804400,10.100804443359374,-0.003957797715067863,0.0009951119845733045,0.0014838407830102369
1772618245630835200,10.110835205078125,0.002181435692310333,-0.0005322802457958459,-0.004721014339639805
1772618245640867300,10.120867431640624,-0.005894903257489204,0.014588387724943459,-0.004854267064179294
1772618245650898200,10.130898193359375,-0.0027507600128650663,-0.0007611936308443546,-0.0049377760625910014
1772618245660930000,10.140929931640626,-0.006344400590658187,-0.002544734313059598,0.009281353658274746
1772618245670961200,10.150961181640625,-0.005894903257489204,0.005140504693612456,0.004665256431256421
1772618245680993300,10.1609931640625,-0.004250058659911155,0.021193868670891968,0.004939849288668483
1772618245691024400,10.1710244140625,-0.00499532406926155,0.0020564576057717204,-0.0014340970568824558
1772618245701056300,10.18105615234375,-0.010530161842703818,-0.0002928272004239261,-0.007236486025596968
1772618245711087000,10.191087158203125,0.01057107837498188,0.01307708811284974,-0.010762445361772552
1772618245721119200,10.201119140625,0.00982815105319023,0.0001536744580604136,-0.0053794828149490055
1772618245731150000,10.211150146484375,0.0063923313856124875,-0.003890395034663379,-0.019594000292778944
1772618245741182200,10.22118212890625,-0.007820318362116814,0.015414353687688707,0.002148359973193146
1772618245751213300,10.23121337890625,0.003999298769235611,-0.006375234120339155,-0.002838337831618264
1772618245761245200,10.2412451171875,0.005047931039333343,0.017686554669681935,-0.0029142937112366777
1772618245771276300,10.2512763671875,-0.008720482072234153,0.003844875392504036,-0.002447447951044887
1772618245781308200,10.26130810546875,0.007141103926301002,-0.004976436705701053,0.001792354176333174
1772618245791339300,10.27133935546875,-0.004375146344304084,0.0005208455363288521,0.0003011018384248018
1772618245801370600,10.28137060546875,-0.0072188453376293175,-0.002175791402813047,-0.00021659275959245858
1772618245811401700,10.291401611328125,-0.006467734709382057,0.004437507523410022,-0.008335830136202276
1772618245821433600,10.30143359375,-0.010054945546388626,0.011886928480211644,-0.00006508285915479063
1772618245831464400,10.31146435546875,-0.0075064301073551176,0.01636995564578101,-0.00797892929019872
1772618245841495600,10.32149560546875,-0.0015232640445232391,-0.005585435449518263,-0.006620911410520784
1772618245851527400,10.33152734375,-0.004070025917887687,0.006213120627496392,0.004853129986440763
1772618245861558500,10.34155859375,-0.007062193471193313,0.014173596378974616,-0.013980745254573412
1772618245871590700,10.351590576171875,0.006108253747224807,0.0024551563334651288,0.013341976993577554
1772618245881621500,10.36162158203125,0.009099836778640747,0.009527414540946483,0.0068100727404933415
1772618245891653600,10.371653564453124,0.009394435811042785,0.011478219815157353,0.003105879893735982
1772618245901684500,10.3816845703125,-0.009459317740797996,-0.0003777472712099552,0.003534361838339828
1772618245911716400,10.39171630859375,0.006854103678464889,0.020327954290248453,0.0002572535635437816
1772618245921747500,10.40174755859375,-0.007062193471193313,0.019559874260891227,-0.005757549746567383
1772618245931779600,10.411779541015624,0.0031108254969120022,0.0063338791966438285,0.002912791307317093
1772618245941810700,10.421810791015625,-0.0016816694766283035,0.005131736865267157,0.004751190282194875
1772618245951842600,10.431842529296874,0.007895137163996696,0.00706520741218701,-0.000986837346572429
1772618245961873400,10.441873291015625,-0.004972527715563774,0.005420143618900328,0.013249672767356968
1772618245971905500,10.451905517578124,0.010288754302263258,0.008937577155325562,-0.002176828015851788
1772618245981936400,10.461936279296875,-0.012005495092272759,0.004089972727373242,-0.01337360054112505
1772618245991968500,10.471968505859374,-0.013503624695539474,0.01284848525505513,-0.013611692746472543
1772618246001999600,10.48199951171875,0.00041091888844966884,0.002609378780797124,0.005906041139434092
1772618246012031500,10.492031494140624,-0.004379237997531891,0.0039821649713441725,0.01731778072279412
1772618246022062600,10.5020625,0.0011591069072484968,-0.00818686838587746,-0.006243579697841778
1772618246032094500,10.512094482421874,-0.0015308628290891647,0.016689287260640413,-0.000861338670225814
1772618246042125600,10.52212548828125,0.0014659808993339539,0.015156195941846817,0.001011245702044107
1772618246052157400,10.532157470703124,-0.00032850130200386043,0.013209135260991751,-0.0056438785053323955
1772618246062188300,10.542188232421875,-0.0016769933015108108,-0.00004508125074207783,-0.008305375632434152
1772618246072220700,10.552220703125,0.002513444125652313,-0.01055947926873341,0.00988670370685868
1772618246082251500,10.56225146484375,-0.0012304185777902603,-0.006428626541700214,-0.017099297400214708
1772618246092282600,10.57228271484375,-0.003775426885485649,0.0035068573434837162,-0.0061275566693162545
1772618246102314500,10.582314453125,-0.0019826982498168944,-0.007567622242681682,-0.003990914533380419
1772618246112345300,10.592345458984376,0.007294833183288574,0.0038180421845056115,-0.0012743764505255967
1772618246122377500,10.60237744140625,0.0032569559693336487,0.007768916968442499,0.007713040329050272
1772618246132408600,10.61240869140625,0.0008580781340599059,-0.006444700893666595,-0.003563094742479734
1772618246142440400,10.6224404296875,-0.0000415010541677475,-0.009361154595948756,0.006001980361156165
1772618246152471600,10.632471435546876,0.00040799627900123595,-0.003712097591999918,0.0007297162137692793
1772618246162503400,10.64250341796875,-0.01828968992829323,0.012435173480119556,-0.014522702077589928
1772618246172534500,10.652534423828126,-0.34225744015574455,0.03354291650382802,-0.14877121445508673
1772618246182566400,10.66256640625,-0.15046937840878963,0.003909720789641142,-0.05923197770211845
1772618246192597500,10.672597412109376,0.7395955470204353,-0.016637319611385464,0.2623884422142058
1772618246202629600,10.682629638671875,-0.22511691537499426,0.01138537216624245,-0.08148763951878063
1772618246212660500,10.692660400390626,0.05309095419645309,0.005139974970649928,0.02966336252358742
1772618246222692600,10.702692626953125,0.1368675540357828,-0.007274886373803019,0.05686839950908906
1772618246232723500,10.712723388671876,-0.08002689191699028,0.007607661992125213,-0.013630813005473464
1772618246242755300,10.72275537109375,0.22789807052612304,-0.027350984794832764,0.11129961673282086
1772618246252786400,10.732786376953126,-0.18399170878231524,0.00045866702031344174,-0.07617542695349548
1772618246262818600,10.742818603515625,-0.49501463724076744,0.01999295018222183,-0.19714995410628616
