time,seconds_elapsed,z,y,x
1772618235599327000,0.079326904296875,-0.004279176704585552,0.059539854526519775,0.015523466281592846
1772618235609359000,0.089359130859375,0.0009070094674825668,0.0007848255336284637,0.00472601130604744
1772618235619390000,0.099389892578125,0.00295764347538352,-0.05154096335172653,-0.014178171753883362
1772618235629421800,0.109421875,0.00016405014321208,0.027360163629055023,0.007277320139110088
1772618235639453000,0.119452880859375,-0.000313720665872097,0.04001497104763985,0.009222493506968021
1772618235649484800,0.12948486328125,0.0011141602881252766,-0.05843888968229294,-0.014535532332956791
1772618235659517000,0.139516845703125,-0.002392157446593046,0.01004695799201727,0.0004894892917945981
1772618235669548000,0.149548095703125,-0.005087916739284992,0.04717408865690231,0.009416172280907631
1772618235679580000,0.159579833984375,0.0036091688089072704,-0.05146726593375206,-0.010829976759850979
1772618235689611000,0.169611083984375,-0.0015258099883794785,0.002204395364969969,-0.0009100681636482477
1772618235699643000,0.179642822265625,-0.0003830473870038986,0.04706933721899986,0.007963583804666996
1772618235709674000,0.189674072265625,-0.00034964364022016525,-0.04399452731013298,-0.0070534818805754185
1772618235719705900,0.199705810546875,-0.0016785613261163235,0.003980986308306456,-0.001622497569769621
1772618235729736700,0.20973681640625,-0.0007396405562758446,0.03929690271615982,0.008302871137857437
1772618235739769000,0.21976904296875,-0.0002746526151895523,-0.04096251726150513,-0.010259894654154778
1772618235749800000,0.229800048828125,-0.0017819828353822231,0.011329895816743374,0.0014126744354143739
1772618235759831800,0.239831787109375,-0.0014408319257199764,0.025515753775835037,0.004939764738082886
1772618235769864000,0.249864013671875,-0.0004967339336872101,-0.036052800714969635,-0.011007243767380714
1772618235779894800,0.259894775390625,-0.0005537252873182297,0.01728232577443123,0.0023519713431596756
1772618235789927000,0.269927001953125,-0.001675089355558157,0.012320228852331638,0.0010615026112645864
1772618235799958300,0.279958251953125,0.0019124550744891167,-0.029504716396331787,-0.006835035979747772
1772618235809990100,0.289990234375,-0.00007003312930464745,0.021413344889879227,0.007865514606237411
1772618235820021200,0.300021240234375,-0.0019233268685638905,-0.0019646822474896908,0.0004374259151518345
1772618235830053400,0.310053466796875,0.00134815345518291,-0.01975390315055847,-0.0037743316497653723
1772618235840084200,0.320084228515625,-0.0002894243225455284,0.025364572182297707,0.007708686403930187
1772618235850116400,0.330116455078125,0.0005014771595597267,-0.014206349849700928,-0.003686146344989538
1772618235860147200,0.340147216796875,0.0022863277699798346,-0.006965480744838715,0.00008702022023499012
1772618235870179000,0.350178955078125,-0.0026986002922058105,0.019681483507156372,0.006880876608192921
1772618235880210200,0.360210205078125,0.0010785609483718872,-0.019339684396982193,-0.008612595498561859
1772618235890242300,0.3702421875,0.00025383196771144867,0.0013362197205424309,0.0019031635019928217
1772618235900273400,0.3802734375,-0.0007286081090569496,0.012810450047254562,0.0032682998571544886
1772618235910305300,0.39030517578125,-0.0011993786320090294,-0.018895559012889862,-0.003294629044830799
1772618235920337200,0.400337158203125,0.0006469911895692348,0.010685235261917114,0.00011608120985329151
1772618235930368300,0.4103681640625,-0.0019022608175873756,0.0028683366253972054,0.0014751935377717018
1772618235940400400,0.420400390625,0.0016972676385194063,-0.014380957931280136,-0.002845519222319126
1772618235950431200,0.43043115234375,0.0009801662527024746,0.01597871258854866,0.0025509430561214685
1772618235960463400,0.44046337890625,0.0008608568459749222,-0.004426159895956516,-0.0014419342624023557
1772618235970494200,0.450494140625,0.0013199327513575554,-0.007165940478444099,0.0009831392671912909
1772618235980526300,0.4605263671875,-0.00030432920902967453,0.012341180816292763,0.002303800778463483
1772618235990557200,0.47055712890625,0.0008782315999269485,-0.006675897166132927,-0.0007940526120364666
1772618236000589300,0.48058935546875,-0.0004757195711135864,0.0005138390697538853,0.0009551115799695253
1772618236010620400,0.490620361328125,0.000051637180149555206,0.008787908591330051,0.002983939368277788
1772618236020652300,0.50065234375,0.000048174988478422165,-0.010463017039000988,-0.0026875282637774944
1772618236030684200,0.51068408203125,-0.00040075648576021194,0.005392393562942743,-0.000227964308578521
1772618236040715300,0.52071533203125,-0.0017507127486169338,0.0005076234228909016,0.0024415883235633373
1772618236050747100,0.5307470703125,-0.0009475643746554852,-0.009507294744253159,-0.0007978155044838786
1772618236060778200,0.5407783203125,-0.0017132232896983624,0.010543644428253174,-0.0016281891148537397
1772618236070810400,0.550810302734375,0.0005503152497112751,-0.0027495273388922215,-0.0024902881123125553
1772618236080841200,0.56084130859375,-0.002865721471607685,-0.004604418762028217,0.0006072345422580838
1772618236090873300,0.570873291015625,-0.0002610655501484871,0.006144113838672638,-0.001373490085825324
1772618236100904200,0.580904296875,0.0010798359289765358,-0.006632667966187,-0.0008400588994845748
1772618236110936000,0.59093603515625,0.0011907315347343683,-0.00006416486576199532,0.0019815932027995586
1772618236120967200,0.60096728515625,0.0008144271560013294,0.0028898133896291256,0.0005583998281508684
1772618236130999300,0.610999267578125,-0.0033334516920149326,-0.005536074750125408,-0.001265266677364707
1772618236141030400,0.621030517578125,0.0023292279802262783,0.0027466220781207085,0.0004982786485925317
1772618236151062300,0.631062255859375,-0.0014599128626286983,0.0007676277309656143,-0.0013579446822404861
1772618236161093000,0.641093017578125,0.0021742365788668394,-0.0036217947490513325,-0.0016005586367100477
1772618236171125200,0.651125244140625,-0.0011093402281403542,0.00481038773432374,0.0014298850437626243
1772618236181157400,0.661157470703125,-0.0006707175634801388,-0.000456811860203743,0.00009590759873390198
1772618236191188200,0.671188232421875,0.0009995563887059689,-0.0018438608385622501,-0.0005325636593624949
1772618236201220400,0.681220458984375,0.0012144732754677534,0.0051671769469976425,0.002510896883904934
1772618236211251200,0.691251220703125,0.0015115339774638414,-0.0015826956368982792,0.0002772033913061023
1772618236221283000,0.701282958984375,0.003051906358450651,-0.003189114388078451,-0.0009004464372992516
1772618236231314200,0.711314208984375,0.0006218352355062962,0.005175330676138401,0.00020706153009086847
1772618236241346300,0.72134619140625,0.00018800655379891396,-0.003641329938545823,-0.0024297344498336315
1772618236251377400,0.73137744140625,-0.00041544437408447266,0.0037159263156354427,-0.0026310018729418516
1772618236261409300,0.7414091796875,-0.0021081496961414814,0.0037369648925960064,0.0006159240147098899
1772618236271440400,0.7514404296875,0.0005404031835496426,-0.005235122982412577,-0.004541885107755661
1772618236281472300,0.76147216796875,-0.0001719924621284008,0.0018848381005227566,0.00027097936253994703
1772618236291503000,0.771503173828125,0.000009899027645587921,-0.0005488712340593338,0.0034070818219333887
1772618236301535500,0.781535400390625,0.0002836720086634159,-0.0024631512351334095,-0.0017890115268528461
1772618236311566300,0.79156640625,-0.0006068632937967777,0.0030227014794945717,-0.00040729623287916183
1772618236321598200,0.80159814453125,-0.001866272184997797,-0.0011733747087419033,0.003524594707414508
1772618236331630300,0.81163037109375,-0.00024930667132139206,-0.000003616791218519211,0.0005063354037702084
1772618236341661200,0.8216611328125,0.0006108945235610008,0.0016512712463736534,0.0014387080445885658
1772618236351693000,0.831693115234375,-0.000215254258364439,-0.0010387012735009193,-0.00020492856856435537
1772618236361724200,0.84172412109375,0.0008912892080843449,0.000037748366594314575,0.0010443603387102485
1772618236371756300,0.85175634765625,0.000492575578391552,-0.003355658845975995,-0.0008145933970808983
1772618236381787400,0.861787353515625,-0.00004325248301029205,-0.0026581771671772003,0.0013388385996222496
1772618236391819300,0.8718193359375,0.0022612945176661015,0.00078184949234128,0.0017582221189513803
1772618236401850000,0.88185009765625,-0.0019590165466070175,0.0017975796945393085,-0.000818918808363378
1772618236411882200,0.89188232421875,0.0015850311610847712,-0.0024346369318664074,-0.0007052028086036444
1772618236421913000,0.9019130859375,-0.000009669922292232513,0.0023979353718459606,-0.0009416915127076209
1772618236431945200,0.9119453125,0.0014233291149139404,0.0003605308011174202,-0.0026571000926196575
1772618236441976300,0.921976318359375,-0.0010952223092317581,-0.0019007595255970955,-0.00011537899263203144
1772618236452008200,0.93200830078125,-0.00044149765744805336,0.001085350289940834,0.00008433428592979908
1772618236462039300,0.942039306640625,-0.000273718498647213,0.00046110479161143303,-0.001370017882436514
1772618236472071200,0.9520712890625,-0.001710542943328619,0.0009014117531478405,-0.001212296774610877
1772618236482103300,0.962103271484375,0.00002583768218755722,0.00021937629207968712,0.000013822573237121105
1772618236492134400,0.972134521484375,-0.0016020098701119423,0.00027131102979183197,-0.0009697035420686007
1772618236502166300,0.982166259765625,-0.0004139738157391548,0.0016654757782816887,0.0012034359388053417
1772618236512197400,0.992197265625,0.0014790198765695095,-0.001325426623225212,-0.000553382677026093
1772618236522229200,1.002229248046875,-0.0012778844684362411,0.0004535648040473461,0.0008157483534887433
1772618236532260000,1.012260009765625,0.0010636970400810242,0.00042630359530448914,-0.0013425670331344008
1772618236542292500,1.02229248046875,-0.0014639091677963734,0.0005879574455320835,-0.002565224189311266
1772618236552323300,1.0323232421875,0.0020949202589690685,-0.0011928011663258076,0.0008049020543694496
1772618236562355200,1.042355224609375,-0.0007898160256445408,0.00041734566912055016,0.0020920077804476023
1772618236572386300,1.05238623046875,0.0007682484574615955,-0.0003753076307475567,-0.0011832023737952113
1772618236582418200,1.062418212890625,0.0003959387540817261,-0.0022528362460434437,0.003615281078964472
1772618236592449300,1.07244921875,-0.00010902527719736099,0.001166029367595911,0.0009396260138601065
1772618236602481400,1.0824814453125,0.00047607114538550377,-0.0011330777779221535,0.000018438557162880898
1772618236612512300,1.09251220703125,-0.0005860431119799614,0.0019431612454354763,0.00405360572040081
1772618236622544400,1.10254443359375,-0.001689656637609005,0.0010406156070530415,0.0002617972204461694
1772618236632576300,1.112576171875,0.0018374971114099026,-0.0006829858757555485,0.0015005952445790172
1772618236642607000,1.122607177734375,0.0022926314268261194,-0.00004622386768460274,0.0007775470148772001
1772618236652639200,1.13263916015625,0.0017658278811722994,-0.0023771990090608597,-0.0004311376833356917
1772618236662670300,1.14267041015625,0.00032132910564541817,-0.0006024683825671673,-0.00023166689788922668
1772618236672702200,1.1527021484375,-0.0025993753224611282,-0.0017326315864920616,-0.0027144819032400846
1772618236682733300,1.1627333984375,-0.0008451510220766068,0.0017100363038480282,0.00010500673670321703
1772618236692765200,1.17276513671875,-0.00035590631887316704,-0.0011158473789691925,0.0029895114712417126
1772618236702796300,1.18279638671875,0.0005913800559937954,-0.000712644774466753,-0.0013445168733596802
1772618236712828200,1.192828125,0.00022312672808766365,-0.0004497487097978592,-0.0005376921617425978
1772618236722859300,1.202859375,0.0004140753298997879,0.0013004806824028492,-0.0016522251535207033
1772618236732891400,1.212891357421875,-0.0010146312415599823,-0.0017573591321706772,-0.002380114048719406
1772618236742922200,1.222922119140625,-0.0019917446188628674,0.001384638249874115,-0.0009768945164978504
1772618236752954400,1.232954345703125,0.0010929619893431664,-0.0005466132424771786,0.0016768064815551043
1772618236762985200,1.242985107421875,0.001090298406779766,0.0008049407042562962,0.0004509533755481243
1772618236773017000,1.25301708984375,0.0009106043726205826,-0.0013708635233342648,-0.00037831254303455353
1772618236783048200,1.263048095703125,-0.0019325865432620049,0.0009820391424000263,-0.0007828467059880495
1772618236793079600,1.27307958984375,0.0003174273297190666,0.001422239001840353,0.0006550530670210719
1772618236803111700,1.283111572265625,-0.00001786462962627411,0.001531961839646101,0.0004619738319888711
1772618236813142500,1.293142578125,0.000693861860781908,-0.001276336144655943,0.0001589037710800767
1772618236823174400,1.30317431640625,-0.0005317246541380882,0.000008372589945793152,0.002858283929526806
1772618236833205500,1.31320556640625,-0.00013760291039943695,-0.000466272234916687,-0.0005454497877508402
1772618236843237600,1.323237548828125,-0.0009360187686979771,0.0003811456263065338,-0.002178500173613429
1772618236853268700,1.333268798828125,0.0017158158589154482,0.0005334918387234211,0.00026540562976151705
1772618236863300600,1.343300537109375,-0.001358537469059229,0.0002567893825471401,0.0009631537832319736
1772618236873331500,1.35333154296875,0.002976121148094535,-0.0006716921925544739,-0.0008597564301453531
1772618236883363600,1.363363525390625,-0.000385320745408535,0.0008092913776636124,-0.001103435643017292
1772618236893394400,1.37339453125,-0.001887638121843338,-0.0005664238706231117,0.001534809242002666
1772618236903426600,1.383426513671875,0.0011480990797281265,-0.001332615502178669,0.0003062930190935731
1772618236913457700,1.393457763671875,-0.0004904824309051037,-0.0007952568121254444,-0.001598607748746872
1772618236923489500,1.403489501953125,0.0005473517812788486,-0.0004570353776216507,0.0001287185586988926
1772618236933520600,1.413520751953125,0.0002550729550421238,-0.00021957838907837868,-0.0003782087587751448
1772618236943552500,1.423552490234375,0.0010143397375941277,-0.00014900462701916695,-0.0005566405598074198
1772618236953584400,1.43358447265625,0.001070306170731783,-0.0005706818774342537,0.0006351993652060628
1772618236963615700,1.44361572265625,0.000727557111531496,0.0012360066175460815,-0.0017467319266870618
1772618236973647600,1.453647705078125,0.0014271733816713095,-0.0006271866150200367,-0.0010894074803218246
1772618236983678500,1.463678466796875,-0.00253374595195055,0.0010663177818059921,-0.000041719875298440456
1772618236993710600,1.473710693359375,0.0005237036384642124,0.00015098927542567253,0.0023618165869265795
1772618237003741400,1.483741455078125,-0.00014474941417574883,-0.00022691348567605019,0.0007918830960988998
1772618237013773600,1.493773681640625,-0.0012872102670371532,0.0009776256047189236,-0.00019178894581273198
1772618237023804700,1.5038046875,-0.0025671254843473434,-0.0008165463805198669,0.0005123508162796497
1772618237033836500,1.51383642578125,0.0016012690030038357,-0.0017444952391088009,0.00017113285139203072
1772618237043867600,1.52386767578125,0.0012926084455102682,-0.00038788095116615295,0.0008494399953633547
1772618237053899500,1.5338994140625,-0.0017406502738595009,0.0016617137007415295,-0.002366248518228531
1772618237063930600,1.5439306640625,0.00029214052483439445,0.00039777765050530434,-0.003276783274486661
1772618237073962500,1.55396240234375,-0.0004844916984438896,-0.0012970026582479477,0.0014419931685552
1772618237083993300,1.563993408203125,0.0013450998812913895,-0.0013167099095880985,0.001958912704139948
1772618237094025700,1.574025634765625,0.00031922245398163795,-0.0006464952602982521,-0.00048616441199555993
1772618237104056600,1.584056640625,0.00004438450559973717,0.00007495516911149025,0.0006661853985860944
1772618237114088400,1.59408837890625,0.0009978287853300571,0.0012949919328093529,-0.000912051007617265
1772618237124119600,1.60411962890625,-0.0007305629551410675,-0.0020864238031208515,-0.0036327363923192024
1772618237134151400,1.6141513671875,-0.0010190247558057308,-0.0002139238640666008,-0.0009701211238279939
1772618237144183600,1.62418359375,0.0005274731665849686,-0.0013955687172710896,0.002278669038787484
1772618237154214700,1.634214599609375,-0.0018045278266072273,0.001049922313541174,0.0011816035257652402
1772618237164246500,1.64424658203125,0.0003433115780353546,0.00004724226891994476,0.0009536369470879436
1772618237174277600,1.654277587890625,-0.00041652144864201546,-0.0010717450641095638,0.000856811529956758
1772618237184309500,1.6643095703125,0.0009467503987252712,0.0010713008232414722,0.0009039494907483459
1772618237194340400,1.67434033203125,-0.00010483944788575172,0.0006461478769779205,-0.00022113195154815912
1772618237204372700,1.684372802734375,-0.0018888912163674831,-0.00019061705097556114,0.0012595856096595526
1772618237214403600,1.694403564453125,0.00012303795665502548,0.0010394295677542686,0.0015406471211463213
1772618237224435500,1.704435546875,-0.0016114790923893452,-0.0004005418159067631,-0.0014460880775004625
1772618237234466600,1.714466552734375,-0.0011541121639311314,0.00031238794326782227,-0.0010420102626085281
1772618237244498400,1.72449853515625,0.0009452579542994499,0.0016399738378822803,0.0028565912507474422
1772618237254529500,1.734529541015625,-0.0005761752836406231,-0.0029201293364167213,0.0014245217898860574
1772618237264561700,1.744561767578125,-0.001453953329473734,0.00031188270077109337,-0.002657571341842413
1772618237274592500,1.754592529296875,-0.0014208867214620113,-0.00046880776062607765,-0.00035313668195158243
1772618237284624600,1.764624755859375,-0.0003268602304160595,-0.0023988010361790657,0.0034067139495164156
1772618237294655500,1.774655517578125,0.0013008022215217352,-0.0023848474957048893,-0.002515631727874279
1772618237304687600,1.7846875,0.0013127864804118872,-0.0002303500659763813,0.003343322779983282
1772618237314718500,1.794718505859375,-0.0001434246078133583,0.001654693391174078,-0.0009226804249919951
1772618237324750600,1.80475048828125,-0.0012046941556036472,0.001192369032651186,0.0015335531206801534
1772618237334782700,1.81478271484375,-0.0007899794727563858,0.0011718189343810081,-0.000584607885684818
1772618237344813600,1.8248134765625,-0.0002810494042932987,-0.00023219967260956764,0.0011227447539567947
1772618237354845400,1.834845458984375,-0.0001577557995915413,-0.0027310336008667946,-0.0008340665954165161
1772618237364876500,1.84487646484375,-0.0006368588656187057,0.0007310761138796806,-0.003820268902927637
1772618237374908400,1.854908447265625,-0.001252932008355856,-0.00041043246164917946,-0.0019308915361762047
1772618237384939500,1.864939453125,0.0010469737462699413,0.0015677637420594692,0.00209953635931015
1772618237394971600,1.8749716796875,-0.0007442086935043335,0.0008108722977340221,-0.0006341959815472364
1772618237405002500,1.88500244140625,0.00012771040201187134,-0.002091706730425358,0.003561614314094186
1772618237415034600,1.89503466796875,0.001970259938389063,0.0011712159030139446,0.002409552223980427
1772618237425065500,1.9050654296875,-0.0014092912897467613,0.0011608288623392582,-0.0014046271098777652
1772618237435097300,1.915097412109375,0.000798358116298914,-0.0010181688703596592,0.00041242141742259264
1772618237445128400,1.92512841796875,0.000250812154263258,-0.0012543913908302784,0.0009213516023010015
1772618237455160600,1.93516064453125,0.00027150893583893776,0.00024452852085232735,0.0010527411941438913
1772618237465191700,1.945191650390625,-0.0005396897904574871,0.0007041902281343937,0.0023832565639168024
1772618237475223600,1.9552236328125,-0.0017660963349044323,-0.001447924878448248,0.0007552788592875004
1772618237485254400,1.96525439453125,0.0018850977066904306,-0.0001882496289908886,0.0010112086310982704
1772618237495286500,1.97528662109375,-0.0002781297080218792,-0.0008636023849248886,-0.001082941540516913
1772618237505317400,1.9853173828125,0.0017876841593533754,0.0014759846962988377,-0.00300174904987216
1772618237515349500,1.995349609375,0.0025343920569866896,-0.00036165816709399223,-0.0006103875930421054
1772618237525380600,2.005380615234375,0.00046378420665860176,0.00169749790802598,-0.000026622670702636242
1772618237535412500,2.01541259765625,-0.0018060673028230667,0.0004854639992117882,-0.0001913041342049837
1772618237545444600,2.025444580078125,-0.002364266198128462,-0.0015531857497990131,-0.00044750026427209377
1772618237555475500,2.035475341796875,-0.00039301393553614616,-0.0014810622669756413,0.0020343433134257793
1772618237565507600,2.045507568359375,-0.00021777767688035965,0.001162125263363123,0.001663897535763681
1772618237575538700,2.05553857421875,-0.0013821283355355263,-0.0014445330016314983,0.00020893977489322424
1772618237585570600,2.065570556640625,0.0009534638375043869,-0.0038533625192940235,0.00039882317651063204
1772618237595601700,2.0756015625,0.000321192666888237,-0.0014030109159648418,-0.003680370282381773
1772618237605633500,2.085633544921875,0.0019798092544078827,0.0006659990176558495,-0.0013732737861573696
1772618237615664400,2.095664306640625,-0.0029952875338494778,0.00016509229317307472,-0.0020841071382164955
1772618237625696800,2.10569677734375,-0.0011270800605416298,0.0018221107311546803,-0.003502240404486656
1772618237635727600,2.1157275390625,-0.00029452191665768623,0.001164163462817669,-0.0014933929778635502
1772618237645759500,2.125759521484375,-0.0010963999666273594,0.0017322152853012085,-0.0005090886843390763
1772618237655790600,2.13579052734375,0.0004776609130203724,0.0010200748220086098,-0.002403444144874811
1772618237665822500,2.145822509765625,0.00013411324471235275,0.000026449095457792282,0.0006884856848046184
1772618237675853600,2.155853515625,-0.000680011697113514,-0.00016836822032928467,0.00006180396303534508
1772618237685885400,2.165885498046875,0.0005426453426480293,-0.0011699828319251537,-0.0022191936150193214
1772618237695916500,2.17591650390625,-0.00012488383799791336,0.0011037914082407951,0.0024855586234480143
1772618237705948700,2.18594873046875,-0.0007070512510836124,-0.0015244819223880768,-0.0016460695769637823
1772618237715979500,2.1959794921875,-0.0003918614238500595,0.0016665617004036903,-0.0007338662398979068
1772618237726011400,2.206011474609375,0.0010411855764687061,-0.0011238986626267433,0.0009444579482078552
1772618237736043500,2.21604345703125,-0.0017540273256599903,0.00002138689160346985,0.0015271860174834728
1772618237746074400,2.226074462890625,-0.0023388578556478024,0.00015800679102540016,-0.0020851255394518375
1772618237756106500,2.2361064453125,0.0006699627265334129,-0.0013987207785248756,0.000594189390540123
1772618237766137600,2.2461376953125,0.002372521674260497,0.000896125566214323,0.0024751799646764994
1772618237776169500,2.25616943359375,0.0011660074815154076,0.00047553516924381256,-0.0012795994989573956
1772618237786200600,2.26620068359375,0.0026041145902127028,-0.00005816202610731125,0.0023976932279765606
1772618237796233000,2.27623291015625,-0.0008322419598698616,0.002756099682301283,-0.00039510754868388176
1772618237806263800,2.286263916015625,-0.001782457809895277,-0.00039042485877871513,-0.00260340073145926
1772618237816296200,2.296296142578125,-0.002286967821419239,-0.00045438623055815697,-0.001080541405826807
1772618237826327000,2.3063271484375,0.0014214841648936272,-0.00038301339372992516,0.002150405663996935
1772618237836359000,2.31635888671875,0.0023418704513460398,0.0006724786944687366,0.00006996560841798782
1772618237846390000,2.32639013671875,0.0015698201023042202,0.000959035474807024,0.0008747729007154703
1772618237856422000,2.336421875,-0.001489904709160328,-0.0007104161195456982,0.00020620343275368214
1772618237866453000,2.346452880859375,-0.0002270340919494629,0.0007703015580773354,0.0005215216660872102
1772618237876485000,2.356485107421875,0.0012425840832293034,0.0011500949040055275,0.0005169488722458482
1772618237886516000,2.366515869140625,0.0009919805452227592,0.0017469096928834915,0.0019529253477230668
1772618237896548000,2.376548095703125,-0.0008311211131513119,-0.0007162177935242653,-0.0002896732767112553
1772618237906579000,2.386578857421875,0.0004911385476589203,-0.0004962403327226639,-0.0008164465543814003
1772618237916611000,2.396611083984375,-0.0025763078592717648,-0.0002507762983441353,-0.0013184086419641972
1772618237926642000,2.406641845703125,0.001909254351630807,0.001249115914106369,0.0018843088764697313
1772618237936674000,2.416674072265625,-0.00022731348872184753,0.00006504124030470848,0.0027526007033884525
1772618237946706200,2.4267060546875,0.0019282493740320206,0.0015918309800326824,0.00037066941149532795
1772618237956737000,2.436737060546875,-0.0016634659841656685,-0.0006860434077680111,0.0004957163473591208
1772618237966769000,2.446768798828125,-0.0006682430393993855,0.0009422139264643192,0.0004658888792619109
1772618237976800000,2.456800048828125,-0.00033111777156591415,-0.0016206088475883007,0.0014588077319785953
1772618237986832000,2.466831787109375,0.002346957102417946,0.0008129873313009739,0.0013703907607123256
1772618237996863000,2.476863037109375,-0.0015041581355035305,0.0026549240574240685,-0.00029745674692094326
1772618238006895000,2.48689501953125,0.0009459499269723892,-0.0024077454581856728,0.0002796503249555826
1772618238016926000,2.496926025390625,-0.0013601337559521198,0.0005449801683425903,-0.0011775856837630272
1772618238026958000,2.5069580078125,-0.001596356276422739,0.0009748144075274467,-0.001233778428286314
1772618238036989000,2.516989013671875,-0.00011744443327188492,0.0021672798320651054,0.002268001902848482
1772618238047020800,2.527020751953125,-0.0006625931710004807,0.0004996084608137608,-0.0017536377999931574
1772618238057052000,2.537052001953125,0.0023314780555665493,-0.0006972691044211388,0.0021252124570310116
1772618238067084000,2.547083984375,-0.0008818921633064747,-0.00018833903595805168,-0.00019946100655943155
1772618238077115100,2.557115234375,0.0022682647686451674,-0.0003262106329202652,0.001571113825775683
1772618238087147000,2.56714697265625,-0.0005956985987722874,0.0002498314715921879,0.0018949542427435517
1772618238097177900,2.577177734375,0.000024940352886915207,0.001097620464861393,0.00006823486182838678
1772618238107210000,2.5872099609375,0.0035016974434256554,-0.0022640880197286606,0.0009050001390278339
1772618238117240800,2.59724072265625,-0.0003943387418985367,0.00014591263607144356,-0.0009985757060348988
1772618238127273000,2.60727294921875,-0.00008567841723561287,-0.0005813967436552048,-0.003302210010588169
1772618238137304000,2.617303955078125,0.00012818630784749985,-0.002988784108310938,-0.0027466295287013054
1772618238147336000,2.6273359375,-0.00017381645739078522,0.002486409153789282,-0.0025415662676095963
1772618238157367000,2.637366943359375,0.0005350364372134209,0.0010120873339474201,-0.0011407025158405304
1772618238167399000,2.64739892578125,-0.00033262139186263084,0.0012003728188574314,-0.004302673507481813
1772618238177430000,2.657429931640625,-0.0014849943108856678,-0.00020043272525072098,-0.001437150640413165
1772618238187462100,2.667462158203125,-0.0004373067058622837,0.0015199687331914902,-0.0011974661611020565
1772618238197494000,2.677493896484375,-0.0012902757152915,-0.0023227171041071415,0.0011684292694553733
1772618238207525000,2.687525146484375,-0.0009848112240433693,0.00364462798461318,0.0001162142725661397
1772618238217557000,2.697556884765625,-0.0004137149080634117,-0.0006585246883332729,0.002110132947564125
1772618238227587800,2.707587890625,-0.003509639296680689,-0.00011284323409199715,-0.0013280080165714025
1772618238237620200,2.7176201171875,0.0001986646093428135,-0.0000760592520236969,-0.0010358470026403666
1772618238247651000,2.727651123046875,-0.0008274517022073269,0.0007662982679903507,0.0007114529144018888
1772618238257683000,2.737682861328125,0.005003978032618761,0.00021814415231347084,-0.002479790709912777
1772618238267714000,2.747714111328125,0.002891558688133955,0.0005808663554489613,0.00003449968062341213
1772618238277746000,2.757745849609375,-0.0016760556027293205,-0.0021732966415584087,-0.00047403958160430193
1772618238287777000,2.767777099609375,0.0010369066148996353,0.0014363517984747887,-0.001506813452579081
1772618238297809200,2.77780908203125,0.0012272312305867672,0.00026330165565013885,-0.0012266349513083696
1772618238307840000,2.787840087890625,0.0018440193962305784,-0.0009883837774395943,-0.0005267561646178365
1772618238317872000,2.7978720703125,-0.00031773047521710396,-0.000019747763872146606,-0.0011916703078895807
1772618238327903000,2.807903076171875,0.00015285005792975426,0.00271398713812232,-0.000013754237443208694
1772618238337934800,2.817934814453125,0.00018849316984415054,0.0005860817618668079,0.001463281107135117
1772618238347966000,2.827966064453125,0.0002990146167576313,-0.0005308482795953751,0.0009966952493414283
1772618238357997800,2.837997802734375,0.0010461495257914066,-0.001161560881882906,-0.002020933199673891
1772618238368029200,2.848029296875,-0.0006955577991902828,0.0022395625710487366,0.0009591439738869667
1772618238378061000,2.85806103515625,-0.00018545519560575485,-0.0014947555027902126,0.0020426297560334206
1772618238388092200,2.868092041015625,0.0004832646809518337,0.0016120881773531437,0.0009179767221212387
1772618238398124000,2.8781240234375,0.001322855008766055,0.0005753706209361553,0.00007867731619626284
1772618238408155000,2.88815478515625,0.00012310082092881203,0.0021964372135698795,-0.0013405212666839361
1772618238418187000,2.89818701171875,0.0009690034203231335,0.0002454281784594059,-0.0006258597131818533
1772618238428217900,2.9082177734375,-0.0007836227305233479,-0.0013412833213806152,-0.004232845269143581
1772618238438250000,2.91825,-0.0003707371652126312,0.0017016669735312462,-0.0008163261227309704
1772618238448282000,2.9282822265625,-0.000131318811327219,0.0007660984992980957,-0.0014277879381552339
1772618238458313000,2.93831298828125,-0.0007944623939692974,0.0018387511372566223,-0.001262076897546649
1772618238468344800,2.9483447265625,-0.0006117695011198521,-0.00017433194443583488,-0.001661284826695919
1772618238478376000,2.9583759765625,0.0005046650767326355,-0.0006859563291072845,0.0015493950340896845
1772618238488408000,2.968407958984375,-0.000735302921384573,0.00010953005403280258,0.00041675264947116375
1772618238498439200,2.978439208984375,0.0010358751751482487,0.0002815490588545799,0.0006922550965100527
1772618238508471000,2.988470947265625,0.001354389125481248,-0.0003538811579346657,-0.0006166885723359883
1772618238518502000,2.998501953125,0.0034493347629904747,-0.0014148051850497723,-0.0014496751828119159
1772618238528534000,3.008533935546875,0.00029428815469145775,-0.0013615419156849384,-0.0020424947142601013
1772618238538564900,3.01856494140625,0.0031859055161476135,0.00253377016633749,0.0019495155429467559
1772618238548597000,3.028596923828125,-0.0004956484772264957,0.00008685793727636337,0.0014278021408244967
1772618238558628000,3.038628173828125,-0.0014800634235143661,0.0016046371310949326,0.0001952631864696741
1772618238568660000,3.048659912109375,0.0008022659458220005,-0.00040951138362288475,-0.0008750612614676356
1772618238578691000,3.058691162109375,0.00041300663724541664,-0.001757719088345766,-0.001249748165719211
1772618238588723000,3.068722900390625,-0.0009537278674542904,0.00017174100503325462,-0.00042017351370304823
1772618238598754000,3.078754150390625,0.0008249171078205109,-0.0023833606392145157,0.00007341743912547827
1772618238608786200,3.0887861328125,-0.001869935542345047,0.0005511762574315071,-0.0004054189193993807
1772618238618817000,3.098817138671875,0.00003055622801184654,-0.0003271852619946003,0.000970570370554924
1772618238628849200,3.10884912109375,-0.0005063368007540703,0.00024965545162558556,0.0023082762490957975
1772618238638880000,3.1188798828125,0.0022928223479539156,0.002541596069931984,-0.002600516192615032
1772618238648912000,3.128911865234375,0.00012474274262785912,-0.0022595501504838467,-0.0028785504400730133
1772618238658943000,3.13894287109375,0.00011588400229811668,0.0011225873604416847,-0.00006439315620809793
1772618238668975000,3.14897509765625,0.0016615826170891523,0.0007169879972934723,-0.002768833190202713
1772618238679006200,3.159006103515625,0.0009244140237569809,-0.0015440573915839195,0.0006857280386611819
1772618238689038000,3.1690380859375,0.0006136232987046242,-0.0005576224066317081,0.00020822323858737946
1772618238699070000,3.179070068359375,-0.0016191019676625729,-0.0011541969142854214,-0.0015571077819913626
1772618238709101000,3.18910107421875,-0.0003437139093875885,0.0005907057784497738,-0.00031740631675347686
1772618238719133000,3.1991328125,-0.0025547733530402184,0.0018227305263280869,-0.0015823799185454845
1772618238729164000,3.2091640625,-0.001821338664740324,-0.00015493249520659447,0.0011196632403880358
1772618238739196200,3.219196044921875,-0.003534544724971056,-0.002704726066440344,-0.0015124407364055514
1772618238749227000,3.22922705078125,-0.004739093128591776,0.002104942686855793,0.0002910519251599908
1772618238759259000,3.2392587890625,0.001924273557960987,-0.001922708936035633,-0.0006517128786072135
1772618238769290000,3.2492900390625,0.00022064941003918648,-0.0016009989194571972,-0.0020679819863289595
1772618238779321900,3.25932177734375,-0.0005472744815051556,0.0019159475341439247,0.0014915955252945423
1772618238789353000,3.26935302734375,-0.00004367111250758171,-0.0008726483210921288,0.000007948488928377628
1772618238799384600,3.279384521484375,0.000802110880613327,-0.0007040752097964287,-0.0011563132284209132
1772618238809415700,3.289415771484375,0.0011685616336762905,0.0022384515032172203,0.0013851415133103728
1772618238819447800,3.29944775390625,0.0010197749361395836,-0.002033394295722246,-0.0025443527847528458
1772618238829478700,3.309478759765625,0.0011920812539756298,-0.0007071401923894882,0.0037364461459219456
1772618238839510800,3.3195107421875,-0.0028566564433276653,0.001250986009836197,-0.0024464272428303957
1772618238849541600,3.329541748046875,0.0007047890685498714,-0.0008305404335260391,0.0006162080680951476
1772618238859573500,3.339573486328125,0.0012001895811408758,0.0015207347460091114,0.0005791127914562821
1772618238869604600,3.3496044921875,0.00035889679566025734,0.000009657349437475204,0.001185514498502016
1772618238879636700,3.35963671875,0.002109164372086525,0.00023878412321209908,-0.0010733029339462519
1772618238889667800,3.369667724609375,-0.0008522709831595421,-0.0005484460853040218,0.001083058537915349
1772618238899699700,3.37969970703125,0.00048153800889849663,-0.0014608483761548996,0.0017123554134741426
1772618238909730600,3.38973046875,-0.0005477736704051495,-0.0008547129109501839,-0.0002562532899901271
1772618238919762700,3.3997626953125,0.0006428426131606102,-0.002564979251474142,0.003401916241273284
1772618238929793500,3.40979345703125,-0.00016116583719849586,-0.0004474995657801628,-0.000346749322488904
1772618238939825700,3.41982568359375,0.00031668273732066154,0.00041517242789268494,-0.0014505420112982392
1772618238949856800,3.429856689453125,0.0010775481350719929,0.0017611337825655937,0.0047136107459664345
1772618238959888600,3.439888671875,0.00007701758295297623,-0.0004971381276845932,0.0022072591818869114
1772618238969919700,3.449919677734375,-0.0016204812563955784,-0.0019208639860153198,-0.00003192666918039322
1772618238979951600,3.45995166015625,0.00015326449647545815,0.000332897063344717,-0.0021560736931860447
1772618238989982700,3.469982666015625,0.000477637629956007,-0.0002804291434586048,-0.001990425167605281
1772618239000014800,3.480014892578125,-0.0021523241885006428,0.001873993780463934,0.002090137917548418
1772618239010046700,3.490046630859375,-0.0006859879940748215,0.0007797009311616421,-0.0005346736288629472
1772618239020077800,3.500077880859375,-0.00011704256758093834,-0.0005445894785225391,0.0009340415708720684
1772618239030109700,3.510109619140625,-0.0008430201560258865,0.00013931049033999443,0.0008855720516294241
1772618239040140500,3.520140625,-0.0019067451357841492,0.002245501149445772,0.00016304722521454096
1772618239050172700,3.530172607421875,0.00024881772696971893,-0.0009220628999173641,0.0009369618492200971
1772618239060203800,3.540203857421875,0.0006201276555657387,-0.0016871062107384205,0.0004419101169332862
1772618239070235600,3.550235595703125,0.0018145551439374685,0.002472751773893833,-0.000549318443518132
1772618239080266800,3.560266845703125,-0.00019715074449777603,0.00003885570913553238,-0.0007516563055105507
1772618239090298600,3.570298583984375,-0.0012011625804007053,-0.0010117613710463047,0.0007831234252080321
1772618239100329700,3.580329833984375,0.0006776750087738037,-0.001767805777490139,0.0006694254698231816
1772618239110361600,3.590361572265625,0.000619085505604744,-0.0007736478000879288,0.0012436029501259327
1772618239120392400,3.600392333984375,-0.0012417873367667198,-0.0018208669498562813,-0.0018400477711111307
1772618239130424800,3.6104248046875,0.0023513496853411198,-0.00006877351552248001,0.0015552161494269967
1772618239140455700,3.62045556640625,-0.0006360854022204876,-0.0006902138702571392,-0.001366814598441124
1772618239150487600,3.630487548828125,-0.0004991991445422173,0.00047412002459168434,-0.001878674142062664
1772618239160518700,3.6405185546875,0.0001376899890601635,0.000196938868612051,0.00363237620331347
1772618239170550500,3.650550537109375,0.0009736563079059124,-0.001958623994141817,0.0035242519807070494
1772618239180581600,3.66058154296875,-0.001714820507913828,-0.003580466378480196,0.0011835333425551653
1772618239190613800,3.67061376953125,0.0020370406564325094,-0.0010217013768851757,0.0004061567597091198
1772618239200644600,3.68064453125,0.004141599405556917,0.00011379551142454147,-0.0013466429663822055
1772618239210676700,3.6906767578125,-0.001957572065293789,-0.001586100086569786,-0.0002635353594087064
1772618239220707600,3.70070751953125,-0.0007126526907086372,-0.001237472053617239,-0.002145332284271717
1772618239230739700,3.71073974609375,-0.0006780317053198814,-0.0006531747058033943,-0.0018433297518640757
1772618239240770600,3.7207705078125,-0.0016048089601099491,0.0028239847160875797,0.00018485519103705883
1772618239250802700,3.730802734375,-0.0010396861471235752,-0.0010735513642430305,0.00010096561163663864
1772618239260833800,3.740833740234375,-0.0015464001335203648,0.0001295972615480423,0.000960109056904912
1772618239270865700,3.75086572265625,0.00031807878986001015,-0.00038918666541576385,-0.0004138156655244529
1772618239280896800,3.760896728515625,-0.002008540090173483,0.0005675675347447395,-0.0000017868587747216225
1772618239290928600,3.7709287109375,-0.00039306655526161194,0.00041203899309039116,-0.00006969750393182039
1772618239300959500,3.78095947265625,0.001785228494554758,-0.0008987407200038433,0.0016259965486824512
1772618239310992000,3.790991943359375,-0.0002510244958102703,-0.00042469799518585205,-0.000026228604838252068
1772618239321022700,3.801022705078125,0.0008419742807745934,-0.0011643487960100174,0.0005474998615682125
1772618239331054600,3.8110546875,-0.0015524737536907196,0.0012889550998806953,-0.0016429501120001078
1772618239341086700,3.821086669921875,-0.0014958749525249004,0.00042401719838380814,0.0003031170926988125
1772618239351117600,3.83111767578125,-0.00107189966365695,-0.0016114367172122002,-0.0014279375318437815
1772618239361149700,3.841149658203125,0.0012690883595496416,-0.0020362832583487034,0.00042427098378539085
1772618239371180800,3.851180908203125,0.00017239851877093315,0.0008503170683979988,0.00012360012624412775
1772618239381212700,3.861212646484375,0.002222110517323017,0.0011402266100049019,-0.00038649782072752714
1772618239391243800,3.871243896484375,-0.0003214743919670582,0.0020939046517014503,-0.00200063968077302
1772618239401275600,3.881275634765625,-0.000055188313126564026,0.0015560947358608246,-0.00005207164213061333
1772618239411306500,3.891306396484375,0.0017874529585242271,-0.001523585058748722,0.0004981374368071556
1772618239421338600,3.901338623046875,-0.0013088951818645,-0.00038113072514533997,-0.000835167767945677
1772618239431369700,3.91136962890625,-0.001621284056454897,0.0010689599439501762,-0.002442385535687208
1772618239441401600,3.921401611328125,0.0011534858494997025,-0.0011286470107734203,0.0022607240825891495
1772618239451432700,3.9314326171875,0.0006730514578521252,-0.0021236040629446507,-0.0025830334052443504
1772618239461464600,3.941464599609375,0.0016854144632816315,-0.000418294221162796,0.0036811542231589556
1772618239471495700,3.95149560546875,-0.0002552308142185211,-0.00011575920507311821,0.0007293063681572676
1772618239481527600,3.961527587890625,0.001825618790462613,0.0014767106622457504,-0.0023564514704048634
1772618239491559000,3.971558837890625,0.0016716881655156612,-0.0022716885432600975,0.0007194994250312448
1772618239501590800,3.9815908203125,-0.0022434056736528873,-0.0009788358584046364,0.00028799683786928654
1772618239511621600,3.99162158203125,0.0002748793922364712,-0.00017642555758357048,-0.003230305388569832
1772618239521653800,4.00165380859375,-0.00026788748800754547,0.0014415173791348934,-0.001483679166994989
1772618239531684600,4.0116845703125,0.0008559664711356163,-0.001113253179937601,-0.00010522699449211359
1772618239541716500,4.021716552734375,-0.0016615423373878002,-0.001063948031514883,0.00047711865045130253
1772618239551747600,4.03174755859375,-0.001450620125979185,0.0022540842182934284,-0.002728261984884739
1772618239561779700,4.04177978515625,-0.0012327455915510654,0.00003506289795041084,0.0002657670993357897
1772618239571810800,4.051810791015625,0.0005869925953447819,-0.0007811961695551872,0.001079096575267613
1772618239581842700,4.0618427734375,-0.0017667189240455627,-0.0006121834740042686,0.003108031116425991
1772618239591873500,4.07187353515625,0.0017862040549516678,-0.0008398839272558689,-0.00127899379003793
1772618239601905700,4.08190576171875,-0.0002796216867864132,-0.00031032273545861244,-0.003753167809918523
1772618239611936500,4.0919365234375,-0.0005776290781795979,0.00008276011794805527,0.002541213296353817
1772618239621968600,4.10196875,-0.0017828857526183128,-0.0015439512208104134,0.003085153875872493
1772618239631999700,4.111999755859375,0.00027786800637841225,-0.0013953465968370438,-0.00037509127287194133
1772618239642031600,4.122031494140625,-0.0007549864239990711,-0.0012304699048399925,-0.002651909599080682
1772618239652062700,4.132062744140625,-0.0008189021609723568,0.0010779579170048237,-0.0011932962806895375
1772618239662094600,4.142094482421875,-0.0002453853376209736,0.003158440813422203,-0.0007498011691495776
1772618239672125700,4.152125732421875,0.0004867180250585079,-0.0012954301200807095,0.0013727381592616439
1772618239682157800,4.16215771484375,-0.00011709751561284065,-0.0011494052596390247,0.00258105737157166
1772618239692189700,4.172189697265625,-0.00011683115735650063,0.001063948031514883,0.00015252083539962769
1772618239702220800,4.182220703125,-0.0015926752239465714,-0.0006271600723266602,-0.0001044049859046936
1772618239712252700,4.192252685546875,0.0019764932803809643,-0.00037229573354125023,0.0007014676230028272
1772618239722283500,4.202283447265625,-0.0015380755066871643,0.0016739042475819588,-0.002460706513375044
1772618239732316000,4.21231591796875,0.0012779510580003262,-0.0000558183528482914,0.0010693134972825646
1772618239742346800,4.2223466796875,0.0008573373779654503,0.0010130200535058975,0.004613371100276709
1772618239752378600,4.232378662109375,0.002292514545843005,-0.0005092429928481579,0.0027654035948216915
1772618239762409700,4.24240966796875,0.002006676746532321,-0.0007676165550947189,-0.0003329128376208246
1772618239772441600,4.252441650390625,0.0008905460126698017,-0.0007606926374137402,-0.0003041506861336529
1772618239782472700,4.26247265625,0.00041388534009456635,0.0016360986046493053,-0.00029677647398784757
1772618239792504800,4.2725048828125,0.00211884081363678,0.00037029851227998734,0.0014547845348715782
1772618239802536000,4.282535888671875,-0.0005198121070861816,0.0004615895450115204,0.0010793370893225074
1772618239812568000,4.292568115234375,-0.00012273481115698814,0.0004924819804728031,0.001006632694043219
1772618239822599000,4.302598876953125,-0.0024656513705849648,-0.000561877153813839,0.0006791618652641773
1772618239832631000,4.312631103515625,0.0011216267012059689,0.0015153889544308186,-0.0011565551394596696
1772618239842662100,4.322662109375,-0.0010888236574828625,0.0011326936073601246,-0.0004906641552224755
1772618239852694000,4.332694091796875,-0.00018041953444480896,-0.0013624215498566628,0.0014598349807783961
1772618239862725000,4.34272509765625,0.0010834494605660439,-0.001078344415873289,0.000018843915313482285
1772618239872757000,4.352757080078125,-0.0010172519832849503,0.00006202096119523048,-0.00042563764145597816
1772618239882787800,4.362787841796875,-0.000550516415387392,0.0024223835207521915,-0.00017420179210603237
1772618239892820200,4.3728203125,-0.0004298752173781395,0.0010316814295947552,-0.0003853904199786484
1772618239902851000,4.38285107421875,-0.0007180855609476566,-0.0008446164429187775,-0.0002052952186204493
1772618239912883000,4.392883056640625,0.0016412087716162205,-0.0021759308874607086,0.0033718629274517298
1772618239922914000,4.4029140625,-0.00006118882447481155,-0.00019595259800553322,-0.0008431548485532403
1772618239932946000,4.41294580078125,0.0005659856833517551,-0.0013994351029396057,0.0011078770039603114
1772618239942977000,4.42297705078125,-0.0012660585343837738,-0.000728248618543148,-0.0003280004602856934
1772618239953009000,4.4330087890625,-0.0008468772284686565,0.0015945606864988804,-0.0010691581992432475
1772618239963040000,4.4430400390625,0.0023382322397083044,-0.0010066297836601734,0.0019272471545264125
1772618239973072100,4.453072021484375,0.0005123689770698547,-0.0018252851441502571,0.0009282954270020127
1772618239983103000,4.46310302734375,0.0015415698289871216,-0.0020012371242046356,-0.0007759585860185325
1772618239993134800,4.473134765625,0.000041144900023937225,0.0016707293689250946,0.0010949121788144112
1772618240003166000,4.483166015625,-0.0006868406198918819,-0.0016626892611384392,0.0011981104034930468
1772618240013197800,4.49319775390625,-0.00019202521070837975,0.0018726568669080734,0.0011309986002743244
1772618240023229200,4.503229248046875,-0.0008582537993788719,0.0010419879108667374,-0.0005177888670004904
1772618240033261000,4.513260986328125,0.002362573053687811,-0.00026535801589488983,0.0010630636243149638
1772618240043292200,4.523292236328125,-0.0008102245628833771,0.00029690004885196686,-0.002617517951875925
1772618240053324000,4.533323974609375,-0.0003082188777625561,-0.0011356142349541187,-0.0035914359614253044
1772618240063355000,4.54335498046875,-0.001546445768326521,-0.0014694789424538612,0.0019313242519274354
1772618240073387000,4.553386962890625,-0.0007986300624907017,-0.0006156694144010544,-0.0013254552613943815
1772618240083417900,4.56341796875,0.00006502913311123848,-0.0004958310164511204,0.00007277959957718849
1772618240093450000,4.573449951171875,-0.0011664163321256638,-0.0006151408888399601,0.00013296701945364475
1772618240103481000,4.583481201171875,0.0017019116785377264,0.001764478161931038,0.0010445191292092204
1772618240113513000,4.593512939453125,0.0004973639734089375,-0.001013465691357851,0.00017819285858422518
1772618240123544000,4.6035439453125,-0.00004743179306387901,-0.0004597613587975502,0.002488975413143635
1772618240133576000,4.613575927734375,-0.00009030848741531372,0.001043060328811407,0.0009611201239749789
1772618240143608000,4.623608154296875,-0.0003340025432407856,-0.0015348847955465317,0.00034541264176368713
1772618240153639200,4.63363916015625,0.001636736560612917,0.0010989811271429062,-0.0015925696352496743
1772618240163671000,4.643671142578125,0.00005610613152384758,0.0009434339590370655,0.0011458246735855937
1772618240173702000,4.653701904296875,-0.0006514959968626499,-0.002130652777850628,0.0004235752858221531
1772618240183734000,4.663734130859375,0.00007288902997970581,-0.00019160378724336624,-0.0010137301869690418
1772618240193764900,4.673764892578125,0.0002734251320362091,0.0009085475467145443,0.0007913602748885751
1772618240203797000,4.683796875,0.00003502890467643738,0.0015747500583529472,0.001528869615867734
1772618240213828000,4.693828125,-0.0008062636479735374,-0.003094303421676159,0.0024085117038339376
1772618240223860000,4.70385986328125,0.00048309797421097755,-0.00017299409955739975,0.0009168223477900028
1772618240233891000,4.71389111328125,0.0005587320774793625,-0.0016140309162437916,0.0008169537177309394
1772618240243923000,4.7239228515625,-0.0013454691506922245,-0.0012395945377647877,0.0020265881903469563
1772618240253954000,4.7339541015625,0.0032175909727811813,0.0014240993186831474,-0.0027660364285111427
1772618240263986200,4.743986083984375,-0.002523176372051239,0.002384350635111332,0.002150492276996374
1772618240274017000,4.75401708984375,0.0013898063916713,0.0013094991445541382,0.0004314217949286103
1772618240284049200,4.764049072265625,-0.0004327148199081421,-0.0009962273761630058,-0.0001551219029352069
1772618240294080000,4.774080078125,0.00026396848261356354,0.0018733283504843712,-0.0015175951411947608
1772618240304111900,4.78411181640625,0.0017770493868738413,-0.0028768652118742466,0.0023241087328642607
1772618240314143000,4.79414306640625,0.00024892762303352356,-0.000046990346163511276,-0.0028892955742776394
1772618240324175000,4.804175048828125,-0.001843662466853857,-0.0007885838858783245,-0.002059255726635456
1772618240334206200,4.814206298828125,-0.0016327397897839546,-0.0011153537780046463,0.000651043257676065
1772618240344238000,4.824238037109375,0.0014282558113336563,-0.0006647738628089428,0.0013862323248758912
1772618240354269000,4.83426904296875,0.0020948450546711683,0.000404485035687685,-0.002592796692624688
1772618240364301000,4.844301025390625,-0.00030882516875863075,-0.0011462904512882233,0.0008006577845662832
1772618240374332000,4.854331787109375,0.0007527107372879982,0.0005096630193293095,0.0017484768759459257
1772618240384363800,4.86436376953125,0.00015218323096632957,0.002744855359196663,0.0002162054879590869
1772618240394395100,4.87439501953125,0.00040039001032710075,-0.0004634545184671879,0.0014324712101370096
1772618240404427000,4.884427001953125,0.0019325350876897573,-0.0009609581902623177,0.0013838517479598522
1772618240414458000,4.8944580078125,0.0016241411212831736,-0.0005399123765528202,0.0012549548409879208
1772618240424490000,4.904489990234375,0.0016249967738986015,0.0003132615238428116,0.00028225453570485115
1772618240434520800,4.914520751953125,0.001905960263684392,-0.0008920850232243538,0.0004495010944083333
1772618240444553000,4.924552978515625,0.0005752993747591972,-0.0020937365479767323,0.004310154356062412
1772618240454584000,4.934583984375,-0.001203692052513361,0.00029218941926956177,0.0024834920186549425
1772618240464616000,4.944615966796875,0.00035208044573664665,0.0015323041006922722,0.0004182884003967047
1772618240474647000,4.95464697265625,-0.0012636594474315643,0.0025277938693761826,0.0004385284846648574
1772618240484679000,4.964678955078125,0.0007449411787092686,-0.000568657647818327,0.0032687969505786896
1772618240494710000,4.9747099609375,0.0007950086146593094,0.00005718506872653961,-0.0010303439339622855
1772618240504742000,4.984741943359375,0.00013382826000452042,0.0027329297736287117,-0.001463252236135304
1772618240514773000,4.99477294921875,-0.0003165123052895069,0.001696161925792694,0.0005492985947057605
1772618240524805000,5.00480517578125,-0.00030737509950995445,-0.00007239170372486115,0.0002699743490666151
1772618240534836000,5.0148359375,-0.00004478776827454567,0.00033374037593603134,-0.00002643547486513853
1772618240544868000,5.0248681640625,-0.0015157395973801613,-0.0016161641106009483,0.0023530053440481424
1772618240554899000,5.03489892578125,0.0007127933204174042,0.0013673752546310425,-0.0018252278678119183
1772618240564930800,5.044930908203125,-0.0008184993639588356,-0.0006554652936756611,0.0009319966193288565
1772618240574962000,5.0549619140625,-0.0004898654296994209,0.0020588282495737076,-0.0009151719859801233
1772618240584994000,5.064994140625,-0.0023050568997859955,-0.00012865522876381874,0.0012341163819655776
1772618240595025200,5.075025146484375,0.0018201798666268587,-0.0010580983944237232,-0.0009475450497120619
1772618240605057000,5.08505712890625,-0.0006094519048929214,-0.0007947096601128578,-0.0021894860547035933
1772618240615087900,5.095087890625,-0.0009050630033016205,-0.0012975148856639862,0.0024207120295614004
1772618240625120000,5.1051201171875,-0.0007023932412266731,0.0014310656115412712,0.0018269920255988836
1772618240635150800,5.11515087890625,0.0005783205851912498,-0.0006174384616315365,-0.0008739860495552421
1772618240645183000,5.125182861328125,0.000383955892175436,-0.00008669588714838028,-0.0023713121190667152
1772618240655214000,5.135214111328125,0.000962394755333662,0.001239292323589325,-0.0007861987687647343
1772618240665246000,5.145245849609375,0.0019320382270962,-0.0017517865635454655,0.001287069171667099
1772618240675277000,5.155277099609375,0.000013763085007667542,-0.0010252762585878372,-0.0005332014989107847
1772618240685309000,5.165308837890625,0.000008284114301204681,0.0004915106110274792,0.0005260015605017543
1772618240695340000,5.175340087890625,-0.001430355478078127,-0.0015199752524495125,-0.0007070419960655272
1772618240705372200,5.1853720703125,0.0009074760600924492,0.00029358500614762306,0.0007016999879851937
1772618240715403000,5.195403076171875,-0.0007439502514898777,-0.001505912747234106,0.0004428407410159707
1772618240725435100,5.20543505859375,-0.00038879597559571266,0.001076696440577507,-0.0012344473507255316
1772618240735466000,5.215466064453125,0.0029385576490312815,-0.0007339874282479286,0.0011988828191533685
1772618240745497900,5.225497802734375,0.0012258642818778753,0.001599909272044897,-0.0013870199909433722
1772618240755529000,5.235529052734375,0.0007028193213045597,-0.0006904089823365211,-0.00012228474952280521
1772618240765561000,5.24556103515625,-0.0008449670858681202,-0.0024047386832535267,0.0029425430111587048
1772618240775592200,5.25559228515625,0.00029273517429828644,0.0006709457375109196,0.001069542020559311
1772618240785624000,5.2656240234375,0.00031158654019236565,-0.002189402934163809,-0.0005110583151690662
1772618240795654400,5.275654296875,0.00003142235800623894,0.00017974525690078735,0.0005344987148419023
1772618240805686300,5.285686279296875,-0.0003134910948574543,0.0016515818424522877,0.00022863643243908882
1772618240815718100,5.29571826171875,0.0004063616506755352,0.00097327446565032,-0.0014267845544964075
1772618240825749200,5.305749267578125,-0.0007270234636962414,0.0014279750175774097,0.0012019507121294737
1772618240835780000,5.315780029296875,-0.001113448292016983,0.00181972561404109,0.0000983367208391428
1772618240845812200,5.325812255859375,0.0014758720062673092,-0.0013020113110542297,0.0011895186034962535
1772618240855844400,5.33584423828125,-0.0015963506884872913,0.0016042962670326233,-0.0016507427208125591
1772618240865875200,5.345875244140625,0.0006301724351942539,-0.0014772252179682255,0.001999902306124568
1772618240875907000,5.355906982421875,-0.0032420633360743523,0.00030815787613391876,-0.0021881847642362118
1772618240885938200,5.365938232421875,-0.00033213570713996887,0.0006244848482310772,-0.00016869418323040009
1772618240895970300,5.37597021484375,-0.00024451781064271927,0.00017840508371591568,0.0010571589227765799
1772618240906001400,5.38600146484375,-0.0008470299653708935,-0.001765976194292307,0.0010183460544794798
1772618240916033300,5.396033203125,0.0009817627724260092,0.0007453849539160728,0.00025614933110773563
1772618240926064000,5.406064208984375,0.00021669361740350723,-0.00023762322962284088,-0.00021357659716159105
1772618240936096300,5.41609619140625,0.00001589115709066391,0.0015903706662356853,-0.0005643149488605559
1772618240946127000,5.426127197265625,0.00022736424580216408,-0.0003155679441988468,-0.0012736305361613631
1772618240956159200,5.4361591796875,0.0005296329036355019,0.000744103454053402,-0.0019231755286455154
1772618240966190300,5.4461904296875,0.0005876380018889904,-0.0022519095800817013,-0.0016679291147738695
1772618240976222200,5.45622216796875,-0.0005255634896457195,0.001624587457627058,-0.0009472777019254863
1772618240986253300,5.46625341796875,0.00024243909865617752,0.000896089244633913,0.0009567080996930599
1772618240996285200,5.47628515625,-0.0008462611585855484,0.0018074228428304195,0.00036282313521951437
1772618241006316300,5.48631640625,-0.0010905973613262177,-0.000026689842343330383,-0.0021796338260173798
1772618241016348400,5.496348388671875,-0.0004983101971447468,-0.0013678576797246933,-0.00023179769050329924
1772618241026379300,5.506379150390625,0.0006390712223947048,0.00038846489042043686,0.0006438706768676639
1772618241036411400,5.516411376953125,0.001969586592167616,0.00014372030273079872,-0.0021508506033569574
1772618241046442200,5.526442138671875,-0.0001787431538105011,-0.000988151878118515,-0.0022637490183115005
1772618241056474000,5.53647412109375,0.001953649800270796,0.00035674450919032097,0.0008569429628551006
1772618241066505200,5.546505126953125,-0.0005658469162881374,0.00004901830106973648,0.0007778903236612678
1772618241076537300,5.556537353515625,-0.0006164470687508583,0.0017843344248831272,0.0023542153649032116
1772618241086568400,5.566568359375,0.0004179389216005802,0.0007967078126966953,-0.0023105486761778593
1772618241096600300,5.576600341796875,0.0009886540938168764,-0.000454179011285305,0.0021329354494810104
1772618241106631200,5.586631103515625,0.00042972853407263756,0.0010463646613061428,-0.002342249732464552
1772618241116663300,5.596663330078125,-0.0018744380213320255,-0.0010117264464497566,-0.001458879210986197
1772618241126694100,5.606694091796875,-0.0006894185207784176,-0.00022592442110180855,0.001323055592365563
1772618241136726000,5.61672607421875,0.00007277820259332657,-0.0007409797981381416,-0.0013970970176160336
1772618241146757400,5.62675732421875,0.0002887141890823841,-0.0007292497903108597,-0.0012647885596379638
1772618241156789200,5.636789306640625,0.00019470462575554848,-0.0005907653830945492,-0.0003824832965619862
1772618241166820400,5.6468203125,0.0007321508601307869,0.0007917294278740883,0.00036840594839304686
1772618241176852200,5.656852294921875,-0.0016796081326901913,-0.0008064340800046921,-0.001984230475500226
1772618241186883300,5.66688330078125,0.002166087506338954,-0.0015162299387156963,-0.0009011117508634925
1772618241196915200,5.676915283203125,0.0007671290077269077,-0.0007958449423313141,0.002501609269529581
1772618241206946300,5.6869462890625,-0.0002988893538713455,0.0019122264347970486,-0.0018049811478704214
1772618241216978400,5.696978515625,-0.0008861161768436432,-0.0021240604110062122,-0.0011580993887037039
1772618241227009300,5.70700927734375,-0.0019871601834893227,0.00026532774791121483,0.0001165259163826704
1772618241237041200,5.717041259765625,-0.0028747916221618652,-0.0008241715840995312,0.002840939676389098
1772618241247072300,5.727072265625,0.0006486261263489723,-0.002005338203161955,-0.002623546402901411
1772618241257104100,5.737104248046875,0.0007751262746751308,-0.0003397972323000431,-0.0017084842547774315
1772618241267135200,5.74713525390625,-0.0015699821524322033,-0.0009050043299794197,-0.00011019082739949226
1772618241277167400,5.75716748046875,0.00024975603446364403,-0.0023103542625904083,-0.0003149879048578441
1772618241287198200,5.7671982421875,-0.0009688013233244419,0.0023751994594931602,0.002647415269166231
1772618241297230300,5.777230224609375,0.0026024978142231703,-0.0005620005540549755,-0.0015939348377287388
1772618241307261200,5.78726123046875,0.0007326379418373108,-0.0002887933515012264,0.0013594814809039235
1772618241317293000,5.79729296875,-0.0032735550776124,-0.0013476661406457424,-0.0013356375275179744
1772618241327324200,5.80732421875,-0.0003347983583807945,-0.002274635247886181,-0.0008696769364178181
1772618241337356300,5.817356201171875,0.0013581730891019106,0.0017640483565628529,-0.0013210827019065619
1772618241347387400,5.827387451171875,0.002684470498934388,-0.0008463943377137184,0.001108450349420309
1772618241357419300,5.837419189453125,-0.0008079991675913334,-0.0007491889409720898,0.00018167030066251755
1772618241367450000,5.8474501953125,-0.0010981271043419838,-0.00034448783844709396,-0.0007175313658080995
1772618241377482200,5.857482177734375,-0.00044298963621258736,-0.0007080091163516045,0.0046564615331590176
1772618241387513000,5.86751318359375,-0.0001735202968120575,0.002056165598332882,0.0011492728954181075
1772618241397545200,5.877545166015625,-0.00029016705229878426,0.00008942093700170517,0.0009759011445567012
1772618241407576300,5.887576416015625,-0.00029431330040097237,-0.0005008638836443424,-0.0012563688214868307
1772618241417608200,5.897608154296875,-0.0006208168342709541,-0.0013474826700985432,0.0003284784033894539
1772618241427639300,5.907639404296875,0.0017120207194238901,0.0006967829540371895,-0.0004292981466278434
1772618241437671200,5.917671142578125,0.0009847115725278854,-0.001039065420627594,-0.001523324754089117
1772618241447702300,5.927702392578125,-0.000146444421261549,-0.00012149056419730186,-0.0009860757272690535
1772618241457734400,5.937734375,0.0002008317969739437,0.001760032493621111,-0.0020721128676086664
1772618241467765200,5.94776513671875,0.0008482732810080051,-0.0015239515341818333,0.0008026915602385998
1772618241477797400,5.95779736328125,0.00024293642491102219,-0.0006768000312149525,0.0006958988960832357
1772618241487828200,5.967828125,-0.00010059168562293053,-0.0024647703394293785,0.00025990360882133245
1772618241497860000,5.977860107421875,-0.0012476150877773762,0.0024082818999886513,-0.0018988547381013632
1772618241507891200,5.98789111328125,-0.0003355201333761215,0.00026754802092909813,0.00006508966907858849
1772618241517923300,5.99792333984375,0.0011728943791240454,0.0007405253127217293,0.0015058598946779966
1772618241527954400,6.007954345703125,0.0018506287597119808,-0.003925785422325134,-0.0011615015100687742
1772618241537986300,6.017986328125,-0.0006181215867400169,0.0005959956906735897,-0.0009878634009510279
1772618241548017200,6.02801708984375,0.0008939723484218121,0.001680945511907339,-0.0006913330289535224
1772618241558049300,6.03804931640625,0.0013080937787890434,0.0012516439892351627,-0.0013403453631326556
1772618241568080100,6.048080078125,-0.0021293070167303085,-0.00023481296375393867,-0.0015999260358512402
1772618241578112300,6.0581123046875,0.00038232002407312393,0.0004024817608296871,-0.00026834558229893446
1772618241588143400,6.068143310546875,-0.0025392724201083183,-0.0015875906683504581,0.0017350877169519663
1772618241598175200,6.07817529296875,-0.0006268564611673355,0.0006044572219252586,-0.0005903844721615314
1772618241608206300,6.088206298828125,-0.00024207262322306633,0.00035248231142759323,0.002599305473268032
1772618241618238200,6.09823828125,0.0014772643335163593,-0.0021066805347800255,0.0006333600031211972
1772618241628269300,6.108269287109375,0.0017250559758394957,0.00004299590364098549,0.0023302778135985136
1772618241638301400,6.118301513671875,-0.001467275433242321,0.001802812796086073,0.0025446622166782618
1772618241648332300,6.128332275390625,0.001272950554266572,0.002327702473849058,0.00024756835773587227
1772618241658364400,6.138364501953125,-0.0003108312375843525,-0.0006859307177364826,0.0001623472198843956
1772618241668395300,6.148395263671875,0.0006175623275339603,0.00012588314712047577,-0.0015636382158845663
1772618241678427100,6.15842724609375,-0.001141189131885767,0.0011567925103008747,0.0014848822029307485
1772618241688458200,6.168458251953125,0.0012083686888217926,0.0011623110622167587,0.002360675949603319
1772618241698490000,6.178489990234375,-0.0006593060679733753,-0.001545590814203024,-0.001125668059103191
1772618241708521500,6.188521484375,-0.0010330253280699253,-0.0010995352640748024,0.0011085784062743187
1772618241718553300,6.19855322265625,-0.0005515255033969879,0.00039050355553627014,-0.003370858496055007
1772618241728584200,6.208584228515625,0.0002023950219154358,-0.00004838267341256142,-0.0015810197219252586
1772618241738616300,6.2186162109375,-0.000955547671765089,-0.0014153830707073212,-0.00040576671017333865
1772618241748647200,6.228647216796875,0.0005958913825452328,-0.004183175973594189,-0.0020116728264838457
1772618241758679000,6.238678955078125,0.002102707978338003,0.0009039947763085365,0.0006341777043417096
1772618241768710400,6.24871044921875,0.0008972189389169216,0.0014804149977862835,0.0018054777756333351
1772618241778742300,6.2587421875,-0.00041891494765877724,0.0010702884756028652,0.0011085285805165768
1772618241788773400,6.2687734375,0.0002797259949147701,-0.00011760974302887917,-0.0015544700436294079
1772618241798805500,6.278805419921875,0.0019497943576425314,-0.0009991158731281757,0.00006126973312348127
1772618241808836400,6.28883642578125,-0.0013433173298835754,0.00001293746754527092,-0.00022628711303696036
1772618241818868500,6.298868408203125,-0.0013438500463962555,0.0012675528414547443,0.0014520370168611407
1772618241828899300,6.3088994140625,-0.0017057647928595543,-0.0018439418636262417,-0.0008132177754305303
1772618241838931200,6.31893115234375,0.0011315671727061272,0.0026208474300801754,-0.003189556300640106
1772618241848962300,6.32896240234375,0.0015637939795851707,-0.001384231261909008,-0.0031977032776921988
1772618241858994400,6.338994384765625,-0.0012615532614290714,0.0017761415801942348,-0.00005996704567223787
1772618241869025500,6.349025634765625,-0.0027168989181518555,0.000006359536200761795,-0.0005592107772827148
1772618241879057400,6.359057373046875,0.0007207095623016357,-0.0003012358210980892,-0.000009268056601285934
1772618241889088500,6.369088623046875,0.0009616611059755087,0.000394351314753294,0.00044736580457538366
1772618241899120400,6.379120361328125,-0.002487931400537491,-0.0013907654210925102,-0.0013055268209427595
1772618241909151200,6.389151123046875,0.0004547084681689739,-0.0005555953830480576,-0.0015586017398163676
1772618241919183600,6.39918359375,0.0005135643295943737,-0.0002535930834710598,-0.0017777798930183053
1772618241929214500,6.40921435546875,0.00031824177131056786,-0.000641372986137867,-0.003778388723731041
1772618241939246300,6.419246337890625,-0.0014628805220127106,-0.00217908201739192,-0.00012506445636972785
1772618241949277400,6.42927734375,0.00048658624291419983,-0.000020646490156650543,0.002231853548437357
1772618241959309300,6.439309326171875,-0.0001451154239475727,-0.0005218535661697388,0.0011170543730258942
1772618241969340400,6.44934033203125,-0.0011354628950357437,-0.0009543653577566147,-0.0019110809080302715
1772618241979372500,6.45937255859375,-0.0024492000229656696,0.00009039277210831642,-0.0003576591261662543
1772618241989403400,6.4694033203125,0.0009151296690106392,-0.00010461360216140747,0.0042341421358287334
1772618241999435500,6.479435546875,0.0004027378745377064,-0.0016351323574781418,-0.0009462389862164855
1772618242009466400,6.48946630859375,0.0011249284725636244,-0.0010294150561094284,0.0006982762133702636
1772618242019498200,6.499498291015625,0.00036566099151968956,-0.0002453806810081005,0.001249550492502749
1772618242029529300,6.509529296875,0.0004999372176826,0.0027669407427310944,-0.0014536468079313636
1772618242039561500,6.5195615234375,0.00046132178977131844,-0.0006807874888181686,-0.00040862237801775336
1772618242049592600,6.529592529296875,0.0008365404792129993,-0.0005552466027438641,-0.0013841739855706692
1772618242059624400,6.53962451171875,0.0019324312452226877,-0.0006881379522383213,0.0013471641577780247
1772618242069655300,6.5496552734375,-0.0005475375801324844,-0.00028963666409254074,-0.0008753017173148692
1772618242079687400,6.5596875,-0.00031983712688088417,-0.0038524135015904903,0.0005223252810537815
1772618242089718300,6.56971826171875,0.0028992677107453346,-0.0005798940546810627,0.001558275893330574
1772618242099750400,6.57975048828125,-0.00022408738732337952,0.0028364090248942375,-0.001032447093166411
1772618242109781500,6.589781494140625,0.00023828400298953056,0.0017492682673037052,-0.000015439465641975403
1772618242119813400,6.5998134765625,-0.001167598646134138,0.0016941404901444912,-0.003340396098792553
1772618242129844500,6.609844482421875,-0.0006546513177454472,-0.0019857981242239475,-0.00028407154604792595
1772618242139876400,6.61987646484375,-0.002907419577240944,0.0002629747614264488,-0.0020409589633345604
1772618242149907500,6.629907470703125,0.00048732152208685875,-0.0004008244723081589,0.0009506044443696737
1772618242159939600,6.639939697265625,0.0002260655164718628,-0.0017419923096895218,0.001391091151162982
1772618242169970400,6.649970458984375,-0.0006812503561377525,0.001765131950378418,-0.00048233201960101724
1772618242180002600,6.66000244140625,0.000775498803704977,0.0012034717947244644,-0.002115115988999605
1772618242190033400,6.670033447265625,-0.0003586770035326481,-0.00047145411372184753,-0.002494879299774766
1772618242200065300,6.680065185546875,0.00026476895436644554,0.0003740992397069931,0.0012394050136208534
1772618242210096400,6.690096435546875,0.0005628997460007668,-0.0014331568963825703,-0.0016644354909658432
1772618242220128500,6.70012841796875,0.0021631934214383364,-0.003366345539689064,0.00011482229456305504
1772618242230159600,6.71015966796875,0.0019487286917865276,-0.00018608849495649338,0.0026930151507258415
1772618242240191500,6.72019140625,0.0020741636399179697,-0.0027605663053691387,0.002108451444655657
1772618242250222300,6.730222412109375,-0.0002690688706934452,0.0009721824899315834,-0.0013825737405568361
1772618242260254500,6.74025439453125,-0.00193753931671381,-0.0015812558121979237,-0.0006986738881096244
1772618242270285300,6.750285400390625,-0.00017198454588651657,0.000026540830731391907,0.00009687314741313457
1772618242280317200,6.760317138671875,-0.0008460306562483311,0.0008886060677468777,-0.0011558778351172805
1772618242290348500,6.7703486328125,-0.0007243268191814423,-0.00003416091203689575,-0.0008154528914019465
1772618242300380400,6.78038037109375,0.0007148454897105694,-0.00033136969432234764,-0.00016910373233258724
1772618242310411500,6.79041162109375,0.004955165553838015,-0.0009822370484471321,0.0006311599863693118
1772618242320443400,6.800443359375,-0.0012782290577888489,-0.00022989418357610703,0.00019227107986807823
1772618242330474500,6.810474609375,0.001746460096910596,-0.0007371054962277412,0.002881499705836177
1772618242340506400,6.82050634765625,0.001366427168250084,-0.0027973270043730736,-0.0002684872015379369
1772618242350537500,6.830537353515625,-0.0002130451612174511,-0.0023804414086043835,-0.0002001419197767973
1772618242360569600,6.840569580078125,0.0007528834976255894,0.0007042977958917618,0.0034561119973659515
1772618242370600400,6.850600341796875,-0.0011914754286408424,-0.0004957336932420731,0.00002512673381716013
1772618242380632300,6.86063232421875,-0.0014679115265607834,0.002888078335672617,-0.002569058444350958
1772618242390663400,6.870663330078125,-0.0004650559276342392,-0.00014613615348935127,-0.000952298694755882
1772618242400695300,6.8806953125,-0.0010706586763262749,-0.001046817284077406,0.002350820228457451
1772618242410726400,6.890726318359375,-0.0006053331308066845,0.0010330365039408207,-0.0011738418834283948
1772618242420758500,6.900758544921875,0.0009262505918741226,-0.0012197312898933887,-0.00040844938484951854
1772618242430789400,6.910789306640625,-0.0002793860621750355,0.00007941806688904762,0.0031403331086039543
1772618242440821500,6.920821533203125,-0.0014876620844006538,0.0018983576446771622,0.0023973113857209682
1772618242450852400,6.930852294921875,-0.0032662921585142612,-0.0002740565687417984,0.0006582504138350487
1772618242460884200,6.94088427734375,-0.0009520049206912518,-0.0014964472502470016,-0.0007801229367032647
1772618242470915300,6.950915283203125,-0.001966489478945732,0.003078528679907322,-0.002482461277395487
1772618242480947500,6.960947509765625,0.0002106446772813797,-0.0005931719206273556,0.0004065359244123101
1772618242490978600,6.970978515625,-0.0020466274581849575,-0.0003608744591474533,-0.00015123427147045732
1772618242501010400,6.981010498046875,0.0022559757344424725,-0.0014173504896461964,0.00004903541412204504
1772618242511041300,6.991041259765625,0.00038735102862119675,0.0010782168246805668,0.0012390681076794863
1772618242521073400,7.001073486328125,-0.0009697959758341312,0.0017456053756177425,-0.0003303326666355133
1772618242531104300,7.011104248046875,-0.0005133301019668579,0.00023251306265592575,-0.001965995877981186
1772618242541136400,7.021136474609375,-0.0001202472485601902,0.0007057567127048969,-0.0008416093187406659
1772618242551167500,7.03116748046875,0.0011918656527996063,0.00019098259508609772,-0.0004281780566088855
1772618242561199400,7.041199462890625,-0.0009636967442929745,-0.00024018296971917152,0.00009406788740307093
1772618242571230500,7.05123046875,-0.0003341967239975929,-0.001351676881313324,0.0026289010420441628
1772618242581262300,7.061262451171875,0.00103679858148098,-0.0004651104100048542,0.00114525412209332
1772618242591293400,7.07129345703125,-0.0012874421663582325,0.00017577270045876503,0.0012456628028303385
1772618242601325600,7.08132568359375,0.003195190569385886,-0.0011195889674127102,0.0013415366411209106
1772618242611356400,7.0913564453125,0.004427401348948479,-0.0015909620560705662,0.002397547010332346
1772618242621388500,7.101388427734375,-0.000997724011540413,-0.00024180486798286438,0.0015274920733645558
1772618242631419400,7.11141943359375,0.000890734139829874,-0.0007417011074721813,-0.0011349971173331141
1772618242641451300,7.121451171875,-0.0005487040616571903,-0.0012745996937155724,0.003165475558489561
1772618242651482400,7.131482421875,0.0007343785837292671,-0.0014105741865932941,-0.001991607714444399
1772618242661514500,7.141514404296875,-0.0005367482081055641,-0.00030083535239100456,-0.00015029817586764693
1772618242671545600,7.151545654296875,-0.001196637749671936,0.0017781294882297516,0.0005550697678700089
1772618242681577500,7.161577392578125,-0.004168991465121508,0.0009775841608643532,-0.002217014553025365
1772618242691608300,7.1716083984375,-0.000979417935013771,0.0006826869212090969,-0.00024061783915385604
1772618242701640400,7.181640380859375,0.00035855406895279884,-0.0009253299795091152,0.0015346453292295337
1772618242711671300,7.19167138671875,-0.0009477157145738602,-0.000663059763610363,0.002049801405519247
1772618242721703400,7.201703369140625,0.0017202389426529408,-0.0017930390313267708,0.002159789903089404
1772618242731734500,7.211734619140625,-0.0008142357692122459,-0.002231768798083067,0.002376626245677471
1772618242741766400,7.221766357421875,0.0010326665360480547,-0.0004170909523963928,-0.00036190234823152423
1772618242751797500,7.231797607421875,-0.0020512472838163376,0.00042162323370575905,-0.000611539464443922
1772618242761829400,7.241829345703125,0.0008153794333338737,-0.0010609584860503674,-0.0012291264720261097
1772618242771860500,7.251860595703125,0.00036109844222664833,0.0015896614640951157,0.000480124494060874
1772618242781892600,7.261892578125,-0.000615216325968504,0.00095369853079319,-0.0017012706957757473
1772618242791923500,7.27192333984375,0.0013819378800690174,-0.0007194881327450275,0.00002691440749913454
1772618242801955600,7.28195556640625,-0.0009651058353483677,-0.0019914135336875916,-0.002143561840057373
1772618242811986400,7.291986328125,-0.0009360578842461109,0.0005502239800989628,0.002159738214686513
1772618242822018300,7.302018310546875,-0.000349629670381546,0.00019575702026486397,0.00040657934732735157
1772618242832049400,7.31204931640625,-0.00010698987171053886,-0.0008302726782858372,0.0011625115294009447
1772618242842081300,7.322081298828125,0.0006181886419653893,0.0007132957689464092,-0.002513183280825615
1772618242852112600,7.332112548828125,0.0007368787191808224,-0.0004636314697563648,0.0008006227435544133
1772618242862144500,7.34214453125,-0.00010760966688394547,-0.0018543340265750885,-0.0009240403887815773
1772618242872175400,7.35217529296875,0.00121082435362041,0.00043642986565828323,-0.0024559255689382553
1772618242882207500,7.36220751953125,-0.0010669771581888199,0.0004665236920118332,-0.003579513169825077
1772618242892238300,7.37223828125,0.00186435435898602,-0.0008065281435847282,-0.0024159043096005917
1772618242902270200,7.382270263671875,-0.0010025384835898876,-0.0018659336492419243,-0.00038817361928522587
1772618242912301600,7.392301513671875,0.0006691724993288517,0.00004614144563674927,0.0009985791984945536
1772618242922333400,7.40233349609375,-0.0024746893905103207,0.0010815784335136414,0.0013786123599857092
1772618242932364500,7.412364501953125,-0.0014260336756706238,0.00025505712255835533,-0.0000552422134205699
1772618242942396400,7.422396484375,-0.0014944770373404026,-0.0004906277172267437,-0.0006395397940650582
1772618242952427300,7.43242724609375,-0.0011075162328779697,0.00005187932401895523,0.0008716603042557836
1772618242962459400,7.44245947265625,0.0012397938407957554,-0.00015984196215867996,0.00008869089651852846
1772618242972490200,7.452490234375,-0.001194590236991644,0.0003870287910103798,0.0012300587259232998
1772618242982522400,7.4625224609375,-0.000632929615676403,-0.0010659918189048767,-0.00008261343464255333
1772618242992553500,7.472553466796875,-0.002606462687253952,-0.0011962340213358402,0.00014317897148430347
1772618243002585300,7.48258544921875,-0.000749706756323576,-0.00030247727409005165,-0.0012307458091527224
1772618243012616400,7.492616455078125,-0.00023018568754196167,-0.00020040199160575867,-0.0010971076553687453
1772618243022648300,7.5026484375,0.00044412678107619286,-0.0010318411514163017,0.0019341022707521915
1772618243032679400,7.512679443359375,-0.0007865368388593197,-0.001023047138005495,0.0026187305338680744
1772618243042711600,7.522711669921875,0.0013194908387959003,-0.0019221305847167969,-0.0008183452300727367
1772618243052742400,7.532742431640625,-0.002651647198945284,-0.0000955057330429554,0.002437327289953828
1772618243062774500,7.5427744140625,-0.0007698573172092438,0.0007369983941316605,-0.0008370293071493506
1772618243072805400,7.552805419921875,0.0006864303722977638,0.0010844036005437374,-0.0020634152460843325
1772618243082836500,7.56283642578125,-0.0000968053936958313,0.001196256373077631,-0.00023675308329984546
1772618243092868400,7.572868408203125,-0.001588362269103527,0.0014430247247219086,0.002453962340950966
1772618243102899200,7.582899169921875,0.0011893147602677345,-0.0008177324198186398,0.0016606065910309553
1772618243112931600,7.592931640625,0.0013078574556857347,-0.001081814058125019,0.0005165636539459229
1772618243122962400,7.60296240234375,0.001992822391912341,-0.000283930916339159,-0.0013298059348016977
1772618243132994300,7.612994384765625,0.0010239770635962486,0.0014745756052434444,-0.001146424445323646
1772618243143025400,7.623025390625,0.0004655122756958008,-0.0005049519240856171,-0.0007365639903582633
1772618243153057300,7.633057373046875,0.0003272276371717453,-0.001048512291163206,0.0021413303911685944
1772618243163088400,7.64308837890625,-0.001465346198529005,0.001581625547260046,0.00005128164775669575
1772618243173120500,7.65312060546875,0.000537041574716568,-0.0003891517408192158,0.0017043158877640963
1772618243183151400,7.6631513671875,0.0004049488343298435,0.0015783915296196938,0.002179956529289484
1772618243193183500,7.67318359375,-0.0006938809528946877,-0.0007106135599315166,0.0003389059565961361
1772618243203214300,7.68321435546875,0.0009511536918580532,0.00009312853217124939,0.001204433385282755
1772618243213246500,7.69324658203125,0.0008647926151752472,0.00012316880747675896,0.0023678354918956757
1772618243223277300,7.70327734375,0.0004757046699523926,-0.00036472221836447716,0.0031316298991441727
1772618243233309400,7.713309326171875,0.0007216264493763447,0.0006605405360460281,0.0012442364823073149
1772618243243340500,7.723340576171875,-0.000021662097424268723,0.000635240226984024,-0.0013773792888969183
1772618243253372400,7.733372314453125,-0.001357812900096178,-0.0009203208610415459,-0.003703237744048238
1772618243263403500,7.743403564453125,-0.0007380950264632702,-0.00036611687391996384,0.0013708830811083317
1772618243273435400,7.753435302734375,0.000991786364465952,0.0006441827863454819,0.001324754091911018
1772618243283466200,7.76346630859375,0.0006602229550480843,-0.00012387288734316826,-0.00004943693056702614
1772618243293498600,7.77349853515625,0.0016592999454587698,-0.0005645942874252796,-0.0001774815027602017
1772618243303529500,7.783529541015625,-0.0006691017188131809,0.0014985566958785057,-0.0020898974034935236
1772618243313561300,7.793561279296875,-0.0006780200637876987,0.0022381688468158245,-0.001272801193408668
1772618243323592400,7.803592529296875,0.0004476979374885559,-0.001403970643877983,0.0009964782511815429
1772618243333624300,7.813624267578125,-0.0003545372746884823,-0.0013100565411150455,0.0006868774071335793
1772618243343655400,7.823655517578125,0.002443379955366254,-0.000355579424649477,0.00047009612899273634
1772618243353687600,7.8336875,-0.0015568225644528866,-0.0010405797511339188,0.0033698338083922863
1772618243363718400,7.843718505859375,0.0022245999425649643,-0.0001806453801691532,0.0032992600463330746
1772618243373750500,7.85375048828125,0.0021537633147090673,0.0014533665962517262,0.000742661883123219
1772618243383781400,7.863781494140625,0.00050766346976161,0.0010512289591133595,0.0009658347116783261
1772618243393813200,7.873813232421875,-0.0004864698275923729,0.0014017880894243717,-0.00035381782799959183
1772618243403844400,7.88384423828125,-0.00281673576682806,0.0003019021824002266,-0.0001634018262848258
1772618243413876500,7.89387646484375,0.001092112623155117,0.0011027832515537739,0.001256534829735756
1772618243423907600,7.903907470703125,-0.00018221000209450722,-0.0009329374879598618,0.002223262097686529
1772618243433939500,7.913939453125,-0.0018666102550923824,-0.0006641731597483158,0.0014372877776622772
1772618243443970600,7.923970458984375,-0.00018056342378258705,0.0005305209197103977,-0.0009185444214381278
1772618243454002400,7.93400244140625,-0.0006774682551622391,-0.0020801671780645847,0.0008188142674043775
1772618243464033300,7.944033203125,-0.00017599482089281082,0.000939324963837862,-0.0009194309823215008
1772618243474065400,7.9540654296875,4.172325134277344e-7,0.0009021880105137825,-0.00005265790969133377
1772618243484096500,7.964096435546875,-0.00020118430256843567,-0.002217172645032406,-0.0006071280222386122
1772618243494128400,7.97412841796875,0.0019289646297693253,-0.0002940795384347439,0.003594412002712488
1772618243504159500,7.984159423828125,0.00040244078263640404,0.002014614176005125,0.00218480103649199
1772618243514191400,7.99419140625,-0.0030640154145658016,-0.0008841804228723049,0.00009765836875885725
1772618243524222500,8.004222412109375,-0.0004621068947017193,0.0019510206766426563,0.0005061873234808445
1772618243534254300,8.01425439453125,0.0001041283831000328,0.0007136473432183266,0.0010228428291156888
1772618243544285400,8.024285400390625,0.0010159944649785757,-0.0019535082392394543,-0.00014229014050215483
1772618243554317600,8.034317626953126,0.0012143796775490046,0.002317995298653841,-0.0009453438688069582
1772618243564348400,8.044348388671875,0.0014103883877396584,0.001357127446681261,-0.0008004679111763835
1772618243574380300,8.05438037109375,-0.0010506808757781982,0.0030420618131756783,0.002218739129602909
1772618243584411400,8.064411376953124,-0.0004259035922586918,-0.0001425459049642086,0.00249357707798481
1772618243594443300,8.074443359375,0.0006129401735961437,-0.0014238408766686916,-0.0006671746959909797
1772618243604474400,8.084474365234374,0.0019727502949535847,-0.000004909001290798187,-0.0011105909943580627
1772618243614506500,8.094506591796875,-0.0015171258710324764,-0.0012292833998799324,-0.00047557568177580833
1772618243624537300,8.104537353515624,0.0010733306407928467,-0.0018266304396092892,-0.0012500229058787227
1772618243634569500,8.114569580078125,-0.0006694318726658821,0.000028304755687713623,-0.0015878919512033463
1772618243644600300,8.124600341796874,-0.0007155048660933971,-0.0012271092273294926,0.0006728654261678457
1772618243654632400,8.134632568359375,0.002290372969582677,0.0009385459125041962,-0.000510778627358377
1772618243664663300,8.144663330078124,-0.00017544766888022423,0.000029875431209802628,-0.002572065219283104
1772618243674695400,8.1546953125,-0.001441654283553362,0.0007440038025379181,0.0008331851568073034
1772618243684726500,8.1647265625,0.00017994455993175507,0.0015477454289793968,0.0028768950141966343
1772618243694758400,8.17475830078125,-0.00028700148686766624,0.0003901277668774128,-0.0033287168480455875
1772618243704789500,8.18478955078125,0.0006781280972063541,0.0004535107873380184,-0.002693552989512682
1772618243714821400,8.1948212890625,0.0000854278914630413,0.0011486676521599293,0.0007223603315651417
1772618243724852200,8.204852294921874,0.0028769532218575478,0.0004115053452551365,-0.0014955202350392938
1772618243734884600,8.214884521484375,0.0005947481840848923,0.0010542431846261024,-0.00022906239610165358
1772618243744915500,8.22491552734375,-0.0008002156391739845,-0.000696252565830946,-0.002178762573748827
1772618243754947300,8.234947265625,0.001514979638159275,0.003096199594438076,0.00009642529767006636
1772618243764978400,8.244978515625,-0.0007849261164665222,-0.0008575292304158211,0.0004426361992955208
1772618243775009300,8.25500927734375,-0.000497815664857626,-0.00008572544902563095,-0.00039801403181627393
1772618243785041400,8.26504150390625,0.0008633257821202278,-0.0018010674975812435,-0.0009458262356929481
1772618243795072300,8.275072265625,0.0007133507169783115,0.000346488319337368,-0.0010892880382016301
1772618243805104400,8.2851044921875,0.0029951471369713545,0.0016349260695278645,0.0010582851245999336
1772618243815135500,8.295135498046875,0.00022381450980901718,-0.0022832094691693783,0.000299883889965713
1772618243825167400,8.30516748046875,0.0029644733294844627,-0.003914661705493927,0.0004330419469624758
1772618243835198500,8.315198486328125,-0.0005942969582974911,-0.0007135802879929543,-0.0006189928390085697
1772618243845230600,8.325230712890624,0.0005990657955408096,0.0024859411641955376,-0.0022762781009078026
1772618243855261400,8.335261474609375,-0.0008901231922209263,-0.0008439132943749428,0.0004693390801548958
1772618243865293600,8.34529345703125,-0.0007625576108694077,-0.0009301993995904922,-0.0010380101157352328
1772618243875324400,8.355324462890625,0.00035588303580880165,0.0008420022204518318,0.0012017970439046621
1772618243885356500,8.3653564453125,0.00009622471407055855,0.0010262923315167427,0.000045718858018517494
1772618243895387400,8.375387451171875,0.0003808140754699707,-0.00023286044597625732,-0.0022890048567205667
1772618243905419500,8.38541943359375,-0.0021427972242236137,0.0010534459725022316,-0.000029046321287751198
1772618243915450600,8.39545068359375,0.0002538594417273998,0.0002379072830080986,0.0019923613872379065
1772618243925482500,8.405482421875,-0.0006079394370317459,0.0031812330707907677,-0.00033470866037532687
1772618243935513600,8.415513671875,0.000764741562306881,-0.00023109884932637215,-0.0011480909306555986
1772618243945545500,8.42554541015625,-0.000391337089240551,-0.0009176619350910187,-0.0005086659803055227
1772618243955576300,8.435576416015625,0.0006174938753247261,0.0000523710623383522,-0.0007564179832115769
1772618243965608700,8.445608642578126,-0.0015428625047206879,-3.594905138015747e-7,-0.0032158473040908575
1772618243975639600,8.4556396484375,0.0011492969933897257,0.00047599291428923607,-0.0013333266833797097
1772618243985671400,8.46567138671875,0.00046539725735783577,0.0004112781025469303,-0.000004675588570535183
1772618243995702500,8.47570263671875,-0.0003627557307481766,0.0026034372858703136,-0.0022823840845376253
1772618244005734400,8.485734375,-0.0017108479514718056,-0.0005755778402090073,-0.0005603840691037476
1772618244015765500,8.495765625,-0.0013117184862494469,0.003887855913490057,0.0009525248315185308
1772618244025797600,8.505797607421876,0.0016033775173127651,0.0018470757640898228,0.00034692208282649517
1772618244035828500,8.515828369140625,-0.002922335173934698,0.0006651836447417736,-0.0032853311859071255
1772618244045860600,8.525860595703126,0.0005797217600047588,-0.00003735814243555069,0.0014252682449296117
1772618244055891500,8.535891357421875,0.00014738086611032486,-0.0014655045233666897,0.0009630440035834908
1772618244065923300,8.54592333984375,0.001627033343538642,0.0007720836438238621,-0.0007530968869104981
1772618244075954400,8.555954345703125,0.0005203094333410263,0.0005286023952066898,-0.002200423739850521
1772618244085986600,8.565986572265626,0.0007986095733940601,0.000022069551050662994,-0.00013487593969330192
1772618244096017700,8.576017578125,-0.0010254783555865288,0.0028783013112843037,-0.0006120127509348094
1772618244106049500,8.586049560546876,-0.0005176132544875145,-0.0032677415292710066,0.003361157374456525
1772618244116080600,8.59608056640625,0.0009194912854582071,0.0004007541574537754,0.002446230500936508
1772618244126112500,8.606112548828126,0.000330932904034853,0.000051880255341529846,0.00015324889682233334
1772618244136143400,8.616143310546875,-0.0001833708956837654,0.0015698554925620556,0.0035932320170104504
1772618244146175700,8.62617578125,-0.0003756508231163025,0.0013919561170041561,0.0019378107972443104
1772618244156206600,8.63620654296875,-0.0004219436086714268,0.001655984204262495,0.001899849739857018
1772618244166238500,8.646238525390626,0.0025269747711718082,-0.002609068527817726,-0.00029938877560198307
1772618244176269600,8.65626953125,-0.0006877034902572632,0.00044663483276963234,-0.0015309246955439448
1772618244186301400,8.666301513671876,-0.002046714536845684,-0.0011983998119831085,-0.00037591176806017756
1772618244196332500,8.67633251953125,-0.00001571187749505043,-0.0007170741446316242,0.0007512941956520081
1772618244206364400,8.686364501953125,-0.00047191139310598373,-0.000578323844820261,-0.0014301009941846132
1772618244216395500,8.6963955078125,0.00023335032165050507,-0.001844125334173441,-0.0006039193831384182
1772618244226427600,8.706427734375,-0.0008683996275067329,0.0010448717512190342,0.0007212695199996233
1772618244236458500,8.71645849609375,-0.0011850278824567795,0.0007351124659180641,-0.0002757153706625104
1772618244246489600,8.726489501953125,-0.0017693256959319115,-0.0006795586086809635,-0.0003907639184035361
1772618244256521500,8.736521484375,-0.0009126025252044201,0.0007171761244535446,0.00023347593378275633
1772618244266552600,8.746552490234375,-0.002034858800470829,-0.0011467700824141502,-0.0026462001260370016
1772618244276584400,8.75658447265625,-0.000772460363805294,0.001432033721357584,-0.000054089236073195934
1772618244286615600,8.766615478515625,0.0005873497575521469,0.00047942157834768295,0.0024578040465712547
1772618244296647400,8.7766474609375,-0.002159725409001112,0.002697158604860306,-0.0014153943629935384
1772618244306678500,8.786678466796875,0.000828075222671032,-0.001861373893916607,0.0018483095336705446
1772618244316710400,8.79671044921875,0.000264093279838562,-0.0012417850084602833,-0.00001318473368883133
1772618244326741500,8.806741455078125,-0.0036608735099434853,0.0006828815676271915,-0.001451824326068163
1772618244336773400,8.8167734375,0.00018892018124461174,0.001019719522446394,-0.0035936152562499046
1772618244346804700,8.8268046875,0.000881608109921217,-0.0006538107991218567,-0.0014090243494138122
1772618244356836600,8.836836669921874,0.000971207395195961,0.00031101563945412636,0.003023712430149317
1772618244366867500,8.846867431640625,0.0005213995464146137,-0.00010337214916944504,0.00010009424295276403
1772618244376899600,8.856899658203124,-0.0029029622673988342,-0.0020854566246271133,0.0016393150435760617
1772618244386930400,8.866930419921875,-0.0006999955512583256,-0.00030033988878130913,-0.003705915529280901
1772618244396962300,8.87696240234375,0.0019081581849604845,0.0004838230088353157,0.003130356315523386
1772618244406993400,8.886993408203125,0.0016831210814416409,-0.0007284479215741158,-0.0025506988167762756
1772618244417025500,8.897025634765624,-0.00008694827556610107,0.00023275800049304962,-0.0002909399918280542
1772618244427056600,8.907056640625,0.0016257304232567549,0.00006604427471756935,0.004761609248816967
1772618244437088500,8.917088623046874,0.00013614166527986526,0.00017048092558979988,0.000375034986063838
1772618244447119400,8.927119384765625,0.00035904860123991966,0.0018773004412651062,0.0010988821741193533
1772618244457151500,8.9371513671875,0.001510439906269312,0.002920533064752817,-0.0012227291008457541
1772618244467182300,8.947182373046875,-0.0006168931722640991,0.0017745750956237316,0.000009249197319149971
1772618244477214500,8.95721435546875,-0.0017266804352402687,0.00046938564628362656,-0.0032194890081882477
1772618244487245600,8.96724560546875,-0.0017706225626170635,0.0023240107111632824,-0.0008729778928682208
1772618244497277400,8.97727734375,-0.0007130810990929604,0.0002185334451496601,0.0023966324515640736
1772618244507308500,8.98730859375,-0.000006810761988162994,0.0006896466948091984,-0.00010194501373916864
1772618244517340400,8.99734033203125,-0.0017932341434061527,0.0021539204753935337,0.001917864428833127
1772618244527371500,9.00737158203125,-0.0019623450934886932,0.0009176810272037983,-0.000994568457826972
1772618244537403600,9.017403564453126,0.00035324133932590485,0.0026758117601275444,0.0016594466287642717
1772618244547434500,9.0274345703125,0.0014512625057250261,-0.000025698449462652206,-0.000013551092706620693
1772618244557466600,9.037466552734376,0.0007493067532777786,0.0008427882567048073,0.0005997006082907319
1772618244567497500,9.04749755859375,-0.0004389956593513489,0.0015061814337968826,0.0001807853113859892
1772618244577529300,9.057529296875,-0.00018727965652942657,-0.00018028868362307549,0.0003269950393587351
1772618244587560400,9.067560546875,-0.0010605300776660442,-0.0005206405185163021,0.0015778818633407354
1772618244597592600,9.077592529296876,-0.002324488013982773,0.0010078158229589462,0.0004977923817932606
1772618244607623700,9.087623779296875,-0.0010994337499141693,-0.00020392285659909248,-0.0005762604996562004
1772618244617655600,9.097655517578126,0.002145378617569804,0.0007186010479927063,0.0003618848277255893
1772618244627686400,9.107686279296875,0.0018297939095646143,0.002461906522512436,0.0006178145995363593
1772618244637717500,9.117717529296876,-0.0019734534434974194,0.00029194820672273636,-0.000027834903448820114
1772618244647749400,9.127749267578125,-0.0008357511833310127,-0.001230048481374979,-0.001491241855546832
1772618244657781500,9.137781494140626,-0.00007496122270822525,0.0015290244482457638,0.0008135184179991484
1772618244667812600,9.1478125,0.0017242704052478075,-0.0015844772569835186,0.0028819956351071596
1772618244677843500,9.157843505859375,0.0006806030869483948,0.0017567090690135956,0.000583393732085824
1772618244687875600,9.16787548828125,0.001677690539509058,-0.0003844723105430603,1.6135163605213165e-7
1772618244697906400,9.177906494140625,-0.0010117515921592712,0.00047079334035515785,0.0008241189643740654
1772618244707938600,9.1879384765625,0.000466036144644022,0.001186384353786707,0.00047604378778487444
1772618244717969400,9.197969482421875,-0.001067337580025196,-0.0005427454598248005,0.0010862649651244283
1772618244728001500,9.20800146484375,0.0005241674371063709,-0.0024445089511573315,-0.0003768757451325655
1772618244738032600,9.21803271484375,0.00022957753390073776,-0.0006233537569642067,-0.00002382253296673298
1772618244748064500,9.228064453125,-0.001928914338350296,-0.000756777822971344,0.0005548823392018676
1772618244758095600,9.238095703125,-0.001588079147040844,-0.00014606863260269165,0.0027004829607903957
1772618244768127500,9.24812744140625,-0.0018573245033621788,0.0002992120571434498,0.0008567766053602099
1772618244778158300,9.258158447265625,0.0019260025583207607,-0.00007579708471894264,0.0005960473790764809
1772618244788190700,9.268190673828125,-0.0006271698512136936,0.0015143761411309242,-0.002182162366807461
1772618244798221600,9.2782216796875,-0.0015197438187897205,-0.0016283094882965088,-0.0014776233583688736
1772618244808254200,9.288254150390625,0.0004038573242723942,-0.001255200244486332,0.0005980443675071001
1772618244818285300,9.298285400390625,0.000603522639721632,0.0004807538352906704,0.001090737641789019
1772618244828317200,9.308317138671875,-0.00016400031745433807,0.0017351023852825165,0.0002808703575283289
1772618244838348000,9.31834814453125,0.0016882885247468948,0.0013640932738780975,0.0005331541178748012
1772618244848380400,9.32838037109375,-0.0006342544220387936,-0.000503314658999443,0.0008788324194028974
1772618244858411300,9.338411376953125,-0.0024740099906921387,0.0013848068192601204,0.0007428966928273439
1772618244868443100,9.348443115234375,-0.002024734392762184,0.0002830568701028824,0.001400164794176817
1772618244878474200,9.35847412109375,-0.00042129959911108017,-0.000171000137925148,0.0018437878461554646
1772618244888506000,9.368506103515625,0.001417346764355898,0.002030902076512575,-0.0008334879530593753
1772618244898537200,9.378537109375,-0.0013107326813042164,0.0013350998051464558,-0.0018313799519091845
1772618244908569300,9.3885693359375,0.001965754432603717,0.0014576050452888012,0.003551933914422989
1772618244918600400,9.398600341796875,0.0010305449832230806,-0.00043612997978925705,0.0011545878369361162
1772618244928632300,9.40863232421875,0.0009019142016768456,0.0014427294954657555,0.0003846680046990514
1772618244938663200,9.4186630859375,-0.002088343258947134,0.0008770194835960865,-0.0015113221015781164
1772618244948695300,9.4286953125,0.0002312697470188141,-0.00023618200793862343,0.0018445271998643875
1772618244958726100,9.43872607421875,0.0016813618130981922,-0.00119718536734581,-0.002628594171255827
1772618244968758300,9.44875830078125,-0.00006141094490885735,-0.0015284824185073376,0.0003386997850611806
1772618244978789400,9.458789306640625,0.001988018397241831,0.001356874592602253,0.002323199063539505
1772618244988821200,9.4688212890625,-0.0024163173511624336,0.000013842247426509857,-0.003545608837157488
1772618244998852400,9.478852294921875,0.0006805295124650002,-0.001024481374770403,-0.0007147957803681493
1772618245008883200,9.48888330078125,0.00042060529813170433,-0.0010809404775500298,-0.0034405412152409554
1772618245018915000,9.4989150390625,0.0005240608006715775,-0.0008621537126600742,0.0033251969143748283
1772618245028946200,9.5089462890625,-0.0039729527197778225,0.004962445702403784,-0.0024040616117417812
1772618245038978300,9.518978271484375,0.00030131032690405846,-0.000983650330454111,0.00015140732284635305
1772618245049009400,9.529009521484374,-0.002075028605759144,0.0008459407836198807,-0.0002962700673379004
1772618245059041300,9.539041259765625,-0.0011541279964148998,-0.0008167941123247147,0.0019357467535883188
1772618245069072100,9.549072021484376,-0.00024732155725359917,0.0017616781406104565,-0.0013862804044038057
1772618245079104300,9.559104248046875,0.0019088464323431253,-0.0005797883495688438,-0.00030146667268127203
1772618245089135000,9.569135009765626,0.0008891220204532146,-0.0006458349525928497,0.0028764833696186543
1772618245099167200,9.579167236328125,-0.000673509668558836,0.0007141521200537682,0.0006263572722673416
1772618245109198300,9.5891982421875,-0.0008391584269702435,0.0006196103058755398,-0.002305516740307212
1772618245119230200,9.599230224609375,0.0000710589811205864,0.0005351207219064236,-0.0005489464965648949
1772618245129261300,9.60926123046875,0.00030568335205316544,0.001093318685889244,0.0018590837717056274
1772618245139293200,9.619293212890625,0.0006501190364360809,-0.0008884547278285027,0.0013977194903418422
1772618245149324300,9.62932421875,0.0007664989680051804,-0.0014421259984374046,0.001822493621148169
1772618245159356400,9.6393564453125,-0.0011356612667441368,-0.00022944947704672813,0.0004503170493990183
1772618245169387300,9.64938720703125,0.0010728982742875814,0.0006142402999103069,0.0013677760725840926
1772618245179419400,9.65941943359375,0.0009253639727830887,-0.00025896215811371803,0.001391565310768783
1772618245189450200,9.6694501953125,0.00239356467500329,-0.002157263457775116,0.0015241907676681876
1772618245199482000,9.679482177734375,-0.001957905013114214,0.002208119723945856,0.0014475069474428892
1772618245209513200,9.68951318359375,-0.0022726906463503838,-0.00017008325085043907,0.0014669480733573437
1772618245219545300,9.69954541015625,-0.0017725746147334576,0.0010989601723849773,0.0007050590356811881
1772618245229576400,9.709576416015626,-0.0010599126107990742,0.0007399660535156727,-0.0012190749403089285
1772618245239608300,9.7196083984375,0.0008825426921248436,-0.0019091134890913963,-0.0012717468198388815
1772618245249639200,9.72963916015625,0.0035832540597766638,-0.001467294991016388,-0.0004781248280778527
1772618245259670300,9.739670166015625,-0.0020716264843940735,-0.0009300983510911465,0.004613790661096573
1772618245269702100,9.7497021484375,0.002814741339534521,-0.001299478579312563,0.0028310706838965416
1772618245279733200,9.759733154296875,-0.0033268514089286327,0.00222025066614151,-0.002146132756024599
1772618245289765400,9.769765380859376,-0.0020666439086198807,0.0007152985781431198,0.0005777482874691486
1772618245299796200,9.779796142578125,-0.0008598626591265202,0.0005999482236802578,-0.0002920789993368089
1772618245309828400,9.789828369140626,0.001997709274291992,-0.0009817029349505901,0.0008189918007701635
1772618245319859200,9.799859130859375,-0.0005168486386537552,0.00007036468014121056,0.000667950720526278
1772618245329891300,9.809891357421876,-0.0007264390587806702,0.00032789260149002075,0.0013222894631326199
1772618245339922200,9.819922119140625,0.00001864321529865265,0.0009278138168156147,0.0022485831286758184
1772618245349954300,9.829954345703126,0.0007496806792914867,0.0007235496304929256,-0.0018665333045646548
1772618245359985400,9.8399853515625,-0.001957457512617111,-0.0010862434282898903,-0.0012772652553394437
1772618245370017300,9.850017333984376,-0.0020999363623559475,-0.00031286152079701424,-0.0004663326544687152
1772618245380048400,9.86004833984375,-0.0023344955407083035,-0.00004157470539212227,0.0013258864637464285
1772618245390080300,9.870080322265625,0.0031018152367323637,-0.0006988430395722389,0.002645749133080244
1772618245400111000,9.880111083984374,0.001044106436893344,0.00045020459219813347,-0.0018752312753349543
1772618245410143200,9.890143310546875,-0.0004320838488638401,0.0014704614877700806,-0.00028212834149599075
1772618245420174300,9.90017431640625,0.001461321720853448,0.00014703674241900444,-0.002495710039511323
1772618245430206200,9.910206298828125,0.0004605059511959553,-0.0003983783535659313,0.0025491160340607166
1772618245440237300,9.9202373046875,-0.0009238561615347862,0.002843114547431469,-0.00003508268855512142
1772618245450269200,9.930269287109375,-0.0018620877526700497,-0.001170801930129528,0.0010059470077976584
1772618245460300300,9.94030029296875,-0.0011817114427685738,-0.0010514776222407818,0.0007043983787298203
1772618245470332200,9.950332275390625,0.0009884987957775593,0.0003381599672138691,-0.0026301455218344927
1772618245480363300,9.96036328125,0.0026734552811831236,-0.0002993340604007244,0.00005340075585991144
1772618245490395400,9.9703955078125,-0.0019575157202780247,-0.002281525172293186,0.00040680228266865015
1772618245500426200,9.98042626953125,-0.000816643238067627,-0.0009142905473709106,0.001291399821639061
1772618245510458000,9.9904580078125,-0.0016944208182394505,0.0003049047663807869,-0.0025912225246429443
1772618245520489200,10.0004892578125,-0.0017953459173440933,0.0017829430289566517,-0.0004781143506988883
1772618245530521000,10.01052099609375,-0.0020563360303640366,0.00036321161314845085,0.0026220716536045074
1772618245540552200,10.02055224609375,0.000771000050008297,-0.0018067271448671818,0.0010076557518914342
1772618245550584300,10.030584228515625,-0.0008684420026838779,0.000899843405932188,-0.0021180964540690184
1772618245560615400,10.040615478515624,-0.0025455551221966743,0.004472658969461918,-0.000219019188079983
1772618245570646300,10.050646240234375,0.001190593233332038,0.0005788509733974934,0.00001906743273139
1772618245580678100,10.06067822265625,-0.002016488928347826,0.00025289133191108704,-0.00018697645282372832
1772618245590709200,10.070709228515625,0.0021170033141970634,-0.0015660477802157402,0.0008556511020287871
1772618245600741000,10.0807412109375,-0.002603944856673479,0.0005619400180876255,-0.0001571252360008657
1772618245610772500,10.0907724609375,0.0008363262750208378,-0.0010154498741030693,0.0021193446591496468
1772618245620804400,10.100804443359374,-0.0008134408853948116,0.0018288805149495602,0.0011893993942067027
1772618245630835200,10.110835205078125,-0.0009652408771216869,0.0022603129036724567,-0.003702827263623476
1772618245640867300,10.120867431640624,-0.0029964433051645756,-0.0008540302515029907,0.0005423279944807291
1772618245650898200,10.130898193359375,0.001464351313188672,0.004647527821362019,-0.001394855324178934
1772618245660930000,10.140929931640626,0.0008160253055393696,0.003117453306913376,0.002267183270305395
1772618245670961200,10.150961181640625,0.0018988668452948332,0.0005935756489634514,-0.0020039943046867847
1772618245680993300,10.1609931640625,-0.0007225042209029198,0.0015856465324759483,0.00028481113258749247
1772618245691024400,10.1710244140625,-0.0005424744449555874,0.0001973411999642849,-0.0025176331400871277
1772618245701056300,10.18105615234375,-0.0005288207903504372,0.0018310882151126862,-0.003033241257071495
1772618245711087000,10.191087158203125,0.0012224740348756313,0.0003325273282825947,0.0004917188780382276
1772618245721119200,10.201119140625,-0.001959926914423704,0.0010521947406232357,-0.0035035766195505857
1772618245731150000,10.211150146484375,-0.001657657790929079,-0.001196045894175768,-0.00008327874820679426
1772618245741182200,10.22118212890625,-0.00025929883122444153,0.0018177679739892483,-0.0007316665723919868
1772618245751213300,10.23121337890625,-0.0005053747445344925,-0.00009970832616090775,0.000004697474651038647
1772618245761245200,10.2412451171875,0.0006965603679418564,-0.0004741968587040901,0.002514198888093233
1772618245771276300,10.2512763671875,0.0006382367573678493,-0.001890732441097498,0.0006531818071380258
1772618245781308200,10.26130810546875,0.0025719143450260162,0.00021308334544301033,-0.0032016411423683167
1772618245791339300,10.27133935546875,0.002074968535453081,0.00030922330915927887,0.0003305093850940466
1772618245801370600,10.28137060546875,-0.000564520712941885,0.0008572540245950222,-0.0019640205428004265
1772618245811401700,10.291401611328125,-0.0005301656201481819,0.0013611246831715107,-0.0035443403758108616
1772618245821433600,10.30143359375,-0.0028515178710222244,0.0011932142078876495,-0.0022554961033165455
1772618245831464400,10.31146435546875,-0.001899171620607376,0.0010925466194748878,-0.0023697458673268557
1772618245841495600,10.32149560546875,-0.0017691445536911488,0.002082427032291889,0.0001720305299386382
1772618245851527400,10.33152734375,0.002424801466986537,-0.0006848638877272606,0.00213478016667068
1772618245861558500,10.34155859375,0.0013726549223065376,-0.001826117280870676,-0.0026185656897723675
1772618245871590700,10.351590576171875,0.0002930094487965107,0.0003789798356592655,0.00029866083059459925
1772618245881621500,10.36162158203125,-0.0009088786318898201,-0.00020101899281144142,-0.00016870565013960004
1772618245891653600,10.371653564453124,0.00022083427757024765,0.0012528011575341225,0.0019895201548933983
1772618245901684500,10.3816845703125,0.0009659950155764818,-0.0001925579272210598,-0.003041425719857216
1772618245911716400,10.39171630859375,0.0007516108453273773,-0.0006514205597341061,-0.00013112335000187159
1772618245921747500,10.40174755859375,-0.001366843469440937,0.0004576300270855427,0.00023783440701663494
1772618245931779600,10.411779541015624,-0.000502381008118391,0.0003673485480248928,0.003772381693124771
1772618245941810700,10.421810791015625,-0.0003528711386024952,0.002063496969640255,0.0011001620441675186
1772618245951842600,10.431842529296874,-0.0019531650468707085,-0.0009655822068452835,0.0004245180170983076
1772618245961873400,10.441873291015625,-0.0017796470783650875,-0.0013353810645639896,0.0004248634213581681
1772618245971905500,10.451905517578124,0.0007223929278552532,0.000831366516649723,0.0005500318948179483
1772618245981936400,10.461936279296875,-0.0004695979878306389,-0.0003760559484362602,-0.00028451596153900027
1772618245991968500,10.471968505859374,0.001693954225629568,-0.0013310653157532215,0.0011543900473043323
1772618246001999600,10.48199951171875,0.0008310857228934765,0.001627642661333084,-0.00038268056232482195
1772618246012031500,10.492031494140624,-0.00015694741159677505,-0.00038197916001081467,0.001931872800923884
1772618246022062600,10.5020625,0.0007499069906771183,-0.0012374073266983032,-0.0005693992134183645
1772618246032094500,10.512094482421874,0.0018836148083209991,0.0014404011890292168,-0.003519382793456316
1772618246042125600,10.52212548828125,0.0006239903159439564,0.00024820491671562195,0.0014087283052504063
1772618246052157400,10.532157470703124,0.0018288041464984417,-0.0010343734174966812,-0.001483730971813202
1772618246062188300,10.542188232421875,-0.0015998873859643936,0.000056366901844739914,-0.0015128592494875193
1772618246072220700,10.552220703125,-0.00036524608731269836,0.0006276150234043598,0.0010384491179138422
1772618246082251500,10.56225146484375,-0.003168581984937191,0.0007538013160228729,0.0002248104428872466
1772618246092282600,10.57228271484375,-0.00004602549597620964,-0.004402611404657364,0.0009324122220277786
1772618246102314500,10.582314453125,0.0002738703042268753,-0.0006080600433051586,-0.0007859838660806417
1772618246112345300,10.592345458984376,0.0000895792618393898,-0.002920749131590128,-0.0013300676364451647
1772618246122377500,10.60237744140625,-0.0019766464829444885,-0.00017684092745184898,0.0008339105406776071
1772618246132408600,10.61240869140625,-0.0013699783012270927,-0.0001536714844405651,0.0016653495840728283
1772618246142440400,10.6224404296875,-0.0028256899677217007,0.0024056066758930683,-0.0015351246111094952
1772618246152471600,10.632471435546876,0.0016923625953495502,-0.0019124429672956467,0.0006563906790688634
1772618246162503400,10.64250341796875,-0.004566487856209278,0.21730418503284454,0.04444313421845436
1772618246172534500,10.652534423828126,-0.008697050623595715,0.3071403205394745,0.04949568212032318
1772618246182566400,10.66256640625,0.002451848704367876,-0.1181405633687973,-0.011487207375466824
1772618246192597500,10.672597412109376,-0.0016667298041284084,0.013876587152481079,-0.0005730403936468065
1772618246202629600,10.682629638671875,0.0005652653053402901,-0.06320035457611084,-0.012077364139258862
1772618246212660500,10.692660400390626,0.0012283925898373127,-0.11341771483421326,-0.02407783456146717
1772618246222692600,10.702692626953125,0.0010036821477115154,-0.09114675968885422,-0.017938850447535515
1772618246232723500,10.712723388671876,0.005952368024736643,-0.2384198158979416,-0.04837718605995178
1772618246242755300,10.72275537109375,0.0035429352428764105,-0.13410480320453644,-0.035607390105724335
1772618246252786400,10.732786376953126,-0.0064047700725495815,0.19695568084716797,0.04936422407627106
1772618246262818600,10.742818603515625,0.000018815044313669205,0.05892662703990936,0.012397417798638344
