time,seconds_elapsed,z,y,x
1772619586339761700,0.07476171875,0.636384763392806,-0.1426367850869894,-0.4341677351552993
1772619586349792800,0.084792724609375,0.7195172201097011,-0.2207818087801337,-0.535722422138974
1772619586359823600,0.09482373046875,0.873535230910778,-0.19844342798292636,-0.6131603935413062
1772619586369855000,0.10485498046875,1.0419885942995548,-0.09781389302015304,-0.6338609440036118
1772619586379885800,0.1148857421875,1.1327098987102509,-0.02285655945241451,-0.5615465261600912
1772619586389917000,0.1249169921875,1.0670762738049029,0.061333589623868465,-0.4223745676394552
1772619586399947800,0.13494775390625,0.9227560656756162,0.07966536512821912,-0.2678120746981352
1772619586409980000,0.14497998046875,0.8576806591749191,0.15513766248077154,-0.23146544415149836
1772619586420010800,0.1550107421875,0.7477133870244026,0.23957681788206098,-0.23179328786637632
1772619586430041900,0.165041748046875,0.6374298885315657,0.366149187874794,-0.17026680601891128
1772619586440072700,0.17507275390625,0.4448842864155769,0.43621874940097327,-0.10642313327025621
1772619586450103800,0.185103759765625,0.279801276242733,0.36882425230294463,-0.2537525696855038
1772619586460134700,0.195134765625,0.22398294290900228,0.3311816271290183,-0.4689284847499802
1772619586470165800,0.205165771484375,0.33289749113619327,0.23675386941581963,-0.7000773372329772
1772619586480196600,0.215196533203125,0.591777559903264,0.1771291295364499,-0.8793282812289893
1772619586490227700,0.225227783203125,0.8906886102855205,0.14363631751835346,-0.9381653047967702
1772619586500258800,0.2352587890625,1.1939409047424792,0.09390519514381886,-0.7906091104209423
1772619586510290000,0.2452900390625,1.4079577494323252,0.08198124085515737,-0.5422914983309806
1772619586520320800,0.25532080078125,1.515360139530897,0.11390344255566597,-0.27449907818138597
1772619586530351900,0.265351806640625,1.5307400794923305,0.22023265046477317,-0.1051491312790662
1772619586540383000,0.275383056640625,1.4713509019345044,0.4054427951261401,0.025022651445120572
1772619586550413800,0.285413818359375,1.3209095805764197,0.5714285993576049,0.13918204152323305
1772619586560445000,0.29544482421875,1.005583401966095,0.6076216102451085,0.16189941170066594
1772619586570475800,0.305475830078125,0.5843430259883403,0.37611382478922606,-0.025751111850142477
1772619586580507000,0.3155068359375,0.20956804858744144,0.13362082719951868,-0.2275001572497189
1772619586590537700,0.325537841796875,-0.0862473738670349,-0.07108692187517882,-0.23851664130464195
1772619586600568800,0.33556884765625,-0.2448614802867174,-0.4017027318149805,-0.034486426165327426
1772619586610600700,0.3456005859375,-0.12110650580227374,-0.6569312923371792,0.31445538712516424
1772619586620631800,0.3556318359375,0.2514770990341902,-0.691521836464107,0.5129803559117019
1772619586630663000,0.365662841796875,0.7051976028561592,-0.5494511608272791,0.404922570644319
1772619586640694000,0.375694091796875,1.1154103888630866,-0.3521776534065604,0.11104118499234318
1772619586650724900,0.385724853515625,1.3193582594811915,-0.25997312470078465,-0.3006438655242324
1772619586660756000,0.395755859375,1.357453889119625,-0.1571884575307369,-0.7202385201215744
1772619586670786800,0.405786865234375,1.2742828539580107,0.10113514639735222,-0.8264985352519899
1772619586680818000,0.41581787109375,0.940787396928668,0.5268339630886912,-0.6337744347639381
1772619586690848800,0.425848876953125,0.6243681623846292,0.9363593513533472,-0.27666195530369875
1772619586700880000,0.4358798828125,0.5754571242213249,1.031594333796203,0.07449592660106719
1772619586710910700,0.44591064453125,0.4507014482617378,0.8609624573245644,0.26602058817148205
1772619586720941800,0.45594189453125,0.40463410909175873,0.6276996448948979,0.4090664655160159
1772619586730972700,0.46597265625,0.506561867171526,0.33822599268257614,0.5563596250414848
1772619586741003800,0.476003662109375,0.6334463718533515,0.09977174908965826,0.6973514194004238
1772619586751034600,0.48603466796875,0.9481886130958795,-0.1164925822660327,0.8431778673741966
1772619586761065700,0.496065673828125,1.40809803468585,-0.3703247199937701,1.017457671894133
1772619586771096800,0.506096923828125,1.9095827447235583,-0.7129734975546598,1.1047854614090173
1772619586781128000,0.5161279296875,2.311726790565252,-0.9732187171950936,1.0319028882887213
1772619586791159000,0.526158935546875,2.4135259538292884,-1.093522089920938,0.8667897021733224
1772619586801190000,0.53618994140625,2.230990873596072,-1.0421268337264658,0.7038843283005058
1772619586811221000,0.546220947265625,1.8432161293685436,-0.8125318961545824,0.5723319048728793
1772619586821252900,0.5562529296875,1.4326327564835548,-0.40984424495548005,0.43866015120372176
1772619586831283700,0.56628369140625,1.1614672066390515,0.06066577336490154,0.24856712987162172
1772619586841314800,0.576314697265625,1.0308025988966225,0.4664917225897312,0.037733591393008824
1772619586851345700,0.586345703125,0.9536386951953172,0.7550865461409092,-0.0647841684691608
1772619586861376800,0.596376708984375,0.9784761993318796,0.9259183290988207,-0.22475911491326986
1772619586871407900,0.606407958984375,1.209836977532506,1.0545105144813656,-0.5571661191187799
1772619586881438700,0.616438720703125,1.5825532688379287,1.1322595245942473,-0.9087635614845901
1772619586891469800,0.6264697265625,1.9053578205049038,1.0816975043535233,-1.1203403195459396
1772619586901500700,0.636500732421875,2.0630326002478596,1.0245245415404438,-1.2155148039732129
1772619586911532000,0.646531982421875,1.846704556006193,0.9423366721972822,-1.127100680526346
1772619586921563000,0.65656298828125,1.3246306469261646,0.9668836689546704,-0.752934994130209
1772619586931594000,0.666593994140625,0.6369505805820226,1.0330670366972685,-0.24413353133834897
1772619586941624800,0.676624755859375,-0.18566051877737044,0.9433063940122723,0.18638766400814055
1772619586951656000,0.686656005859375,-1.3961656048297881,0.5858829489067197,0.6155849172744899
1772619586961686800,0.696686767578125,-3.3273569547712802,-0.014006898042559623,0.943020343612507
1772619586971718000,0.7067177734375,-5.974716798916459,-0.7864937840566039,1.4009452403217553
1772619586981748700,0.716748779296875,-8.466751056793331,-1.5965610436633229,2.028876940406859
1772619586991779800,0.72677978515625,-10.207416912269592,-2.243689903910458,2.483952365969121
1772619587001810700,0.736810791015625,-10.913598849987983,-2.8287632899999617,2.6561995686829087
1772619587011841800,0.746841796875,-10.653873562568425,-3.4448794646069407,2.405229688518494
1772619587021873700,0.756873779296875,-9.46402840270698,-3.896887319292128,1.4380502514876425
1772619587031904800,0.76690478515625,-7.831991848775744,-4.316786802054941,-0.0457541815675795
1772619587041936000,0.776935791015625,-6.5131356935977935,-5.083201090157032,-0.8216594977229833
1772619587051967000,0.786967041015625,-6.147371705648303,-5.72715248941183,-0.4621423682738095
1772619587061997800,0.796997802734375,-6.783576436299085,-5.394349690821767,0.08281754554882645
1772619587072029000,0.80702880859375,-7.789960048732161,-4.107145980492234,0.22421580181680617
1772619587082059800,0.817059814453125,-8.27247702344954,-2.664113995069265,0.3260381267607212
1772619587092091000,0.8270908203125,-7.493020006161927,-1.6077943853393195,0.9768453101944178
1772619587102121700,0.837121826171875,-5.488773941403627,-0.8267259873323142,1.631695485408604
1772619587112152800,0.84715283203125,-2.938230795934796,-0.18529329290017485,1.8890224795147776
1772619587122183700,0.85718359375,-0.6369792221546172,0.23424860859662294,1.8407187595948575
1772619587132214800,0.86721484375,1.1522200703442096,0.4560932243026793,1.4753697821870446
1772619587142246000,0.877245849609375,2.297025480517745,0.636781946016848,1.113698105052486
1772619587152276700,0.88727685546875,2.909985529181361,0.8346342762388288,0.8804612307816744
1772619587162307800,0.897307861328125,3.4151065498948094,0.9990443555861711,0.7091016245573759
1772619587172338700,0.907338623046875,4.041577237516641,1.0980527190878986,0.7894628629952669
1772619587182369800,0.917369873046875,4.884407533562183,1.1566304341323672,1.0777551964685321
1772619587192401000,0.92740087890625,5.91367283988893,1.1602898334227503,1.2761404645234347
1772619587202432000,0.937431884765625,7.0224816385298965,1.1597126180566846,1.2498346413999795
1772619587212462800,0.947462890625,8.013975724866986,1.2031475628964603,0.9876565540008246
1772619587222494000,0.957493896484375,8.422132747387886,1.0510051367089153,0.7415666278976947
1772619587232525800,0.96752587890625,8.286262972217799,0.7594795204028487,0.47274596067890523
1772619587242557000,0.977556884765625,7.889415863740444,0.6718380618289113,0.13395334708951412
1772619587252587800,0.987587890625,7.4561758378893135,0.7795227760002017,-0.1692251880114898
1772619587262619000,0.997618896484375,7.091634669733047,0.8914291995197534,-0.3377568773334846
1772619587272649700,1.007649658203125,6.69844783732891,0.9814159060455858,-0.2725321802888997
1772619587282680800,1.017680908203125,6.3237926869153975,1.1217279014468193,-0.08097131489394233
1772619587292711700,1.027711669921875,6.005067513516545,1.3699172109819948,0.061190253896731876
1772619587302742800,1.03774267578125,5.8311313348025084,1.6577197151117027,0.28268026574514804
1772619587312773600,1.047773681640625,5.740428735092282,1.9400068168208002,0.5548856069661676
1772619587322805000,1.057804931640625,5.768426749086379,2.1901465297713876,0.6719777625605463
1772619587332835800,1.0678359375,5.978267769396305,2.344289482126385,0.6783356802199035
1772619587342867000,1.077866943359375,6.288699161702394,2.4032415834411975,0.5113319311175495
1772619587352897800,1.087897705078125,6.72280427995026,2.294034043616801,0.1942792209755629
1772619587362929000,1.097928955078125,7.0573302490711205,2.0334145838364956,-0.10588338210405782
1772619587372959700,1.107959716796875,6.8325044255971905,1.621859735570848,-0.40013164657335726
1772619587382990800,1.117990966796875,5.846773725092411,1.0380288968883453,-0.47229949555303896
1772619587393021700,1.128021728515625,4.0302573866009705,0.43336964358016844,-0.44328371935114264
1772619587403052800,1.138052734375,1.6423475200653075,-0.022091858690232037,-0.08251739355847239
1772619587413084000,1.148083984375,-1.1458528733998536,-0.44616643518060445,0.7189202771298587
1772619587423114800,1.15811474609375,-3.69019424161911,-0.3784372993007302,1.276063307633996
1772619587433146600,1.168146728515625,-5.300569583362341,-0.05899433302134275,1.4298789277307689
1772619587443177700,1.178177734375,-5.734107130855322,-0.19037293425202367,1.549458954618126
1772619587453208800,1.188208740234375,-4.995256264722347,-0.29507687904685737,1.4604920926593243
1772619587463240000,1.198239990234375,-3.8349423197716472,0.21294746189266442,0.661884092438966
1772619587473270800,1.208270751953125,-3.344619639739394,0.17834741928502917,-0.522688899173215
1772619587483302000,1.218302001953125,-3.563244855007529,-1.0292536158889531,-1.1552675482813268
1772619587493332700,1.228332763671875,-4.8220934084683655,-2.205876598344743,-1.1317363044377415
1772619587503363800,1.23836376953125,-6.798489343270659,-1.9928001032449303,-1.1998818390987813
1772619587513395000,1.24839501953125,-9.37555458496213,-0.6874744607694446,-0.725454647334665
1772619587523425800,1.25842578125,-12.0986281340003,0.9057770199544727,0.46543618565481154
1772619587533457000,1.268456787109375,-13.909706080830096,2.281838140518963,1.8336176954180001
1772619587543487700,1.27848779296875,-14.123888929736614,3.1246544080391523,2.713207404062152
1772619587553518800,1.288518798828125,-12.555415624177455,3.2630694837778806,2.672516204972565
1772619587563549700,1.2985498046875,-9.615200960949062,2.620221954111755,1.7883643029794096
1772619587573580800,1.308580810546875,-5.935308917635679,1.4953469868108629,0.643764644511044
1772619587583611600,1.318611572265625,-2.092840294012427,0.27071020729243755,-0.3787153855897486
1772619587593642800,1.328642822265625,1.3320681034505366,-0.7479484378892928,-1.136894417853281
1772619587603673900,1.338673828125,3.9208594387710094,-1.4953329582855104,-1.703095711016655
1772619587613705000,1.348705078125,5.510622200596332,-1.925900257796049,-2.039458540175855
1772619587623735800,1.35873583984375,6.2918731155633925,-2.096963365291804,-2.173632617343962
1772619587633767000,1.368766845703125,6.40014001353681,-2.1331936394497752,-2.084101107239723
1772619587643797800,1.3787978515625,6.034191316670179,-2.1380187215186655,-1.7186089219689369
1772619587653830000,1.388829833984375,5.386897621250152,-2.0683409357890485,-1.2086887573454528
1772619587663860700,1.39886083984375,4.655772965455055,-1.8169786953061817,-0.744754171892628
1772619587673891800,1.408891845703125,4.056017850801348,-1.4793155972033738,-0.3783313547082245
1772619587683922700,1.418922607421875,3.5760458843916654,-1.1384827099580317,-0.05612886058762669
1772619587693953800,1.428953857421875,3.266117765432596,-0.8318065785322338,0.11216343048792332
1772619587703984600,1.438984619140625,3.1104765373438594,-0.6469495581574738,0.08797744906265288
1772619587714015700,1.449015625,3.101569008266926,-0.5948793253108858,-0.12752134128063916
1772619587724046600,1.459046630859375,3.129289374363422,-0.6919615430556237,-0.36053200558014215
1772619587734077700,1.46907763671875,3.0259996802806852,-0.8859774369198828,-0.5709809651879594
1772619587744108800,1.47910888671875,2.614189395949244,-0.9820981161560862,-0.61119523094818
1772619587754139600,1.4891396484375,1.70842012090981,-0.9710814859706908,-0.552032774818316
1772619587764170800,1.499170654296875,0.47880175358653065,-0.8457600658871233,-0.40305465788058936
1772619587774201600,1.50920166015625,-1.137810436719656,-0.6689115068577229,-0.1337107705052942
1772619587784232700,1.519232666015625,-2.9573703806906937,-0.46629313127771016,0.15476707560271025
1772619587794263600,1.529263671875,-4.662465156570077,-0.2590796829923987,0.3190057439059019
1772619587804294700,1.539294677734375,-6.018910160908103,-0.2500056382421404,0.37820045833755284
1772619587814325800,1.54932568359375,-7.0518608777493235,-0.4883882048383355,0.47214182077329603
1772619587824356900,1.55935693359375,-7.910380910357833,-0.8725194779969752,0.4789491992332041
1772619587834387700,1.5693876953125,-8.76028684387803,-1.2860581935562192,0.24613160982038823
1772619587844418800,1.579418701171875,-9.31841055598259,-1.5775662742055951,-0.17152951943110673
1772619587854449700,1.58944970703125,-9.306762203764915,-1.7104152402497828,-0.5755548124421388
1772619587864481800,1.599481689453125,-8.699846111440658,-1.7598353969790042,-0.9485108307875693
1772619587874512600,1.6095126953125,-7.695235353899002,-1.854563745073974,-1.2856480053201318
1772619587884543700,1.619543701171875,-6.727495068114996,-2.1503005493342875,-1.5072180418685077
1772619587894574600,1.62957470703125,-6.18557196470499,-2.563126440449059,-1.7484370739996433
1772619587904605700,1.639605712890625,-6.259104233905672,-3.0588714377909896,-1.6125921410098671
1772619587914636500,1.649636474609375,-6.459193675529956,-3.1219740829139946,-1.379839616189897
1772619587924667600,1.659667724609375,-5.924018292814493,-2.3688467080168425,-1.1475136462189257
1772619587934698500,1.669698486328125,-4.46271649120748,-1.3109804533667861,-0.686370737311244
1772619587944729900,1.679729736328125,-2.6445190677613017,-0.43377442498877644,-0.1449953126455657
1772619587954760700,1.6897607421875,-1.2345172452807425,0.0943834801800549,0.2298226453805342
1772619587964791800,1.699791748046875,-0.323058234167099,0.42165801686793564,0.4387343489510938
1772619587974822700,1.70982275390625,0.3352238882571459,0.677545625820756,0.6544401331085712
1772619587984853800,1.719853759765625,0.8395517127662897,0.9190789845980704,0.891024271980673
1772619587994884600,1.729884521484375,1.4678922859132288,1.2618509501472115,1.2434770890668034
1772619588004915700,1.739915771484375,2.253708901360631,1.6515743442244826,1.6051250199995934
1772619588014946800,1.74994677734375,3.179848179733753,1.9371103647269308,1.8101456344157456
1772619588024977700,1.759977783203125,4.186449818831682,2.0542517662905158,1.8947059319786725
1772619588035008800,1.7700087890625,5.253384638339281,2.1252099472194907,1.6878654086589813
1772619588045039600,1.78003955078125,6.337446533736586,2.206932537138462,1.3502321211725472
1772619588055070700,1.79007080078125,7.306028531041741,2.1974179820790884,1.1179651879124344
1772619588065101600,1.8001015625,8.124976431718467,1.9384407365478573,0.9689675625566393
1772619588075133700,1.8101337890625,8.849104360494017,1.3847092680528759,0.8794467930421233
1772619588085164800,1.820164794921875,9.131789083218575,0.82360054878816,0.8416009734462946
1772619588095195600,1.830195556640625,8.676054316964745,0.4379315446682274,0.6962658161208033
1772619588105226800,1.840226806640625,8.022122206443548,0.38300840660855173,0.4539640302542597
1772619588115257900,1.8502578125,7.45219115216732,0.45850993005558843,0.22058825896941123
1772619588125288700,1.860288818359375,6.931859118318557,0.5143738560967147,0.023328487813100218
1772619588135319800,1.87031982421875,6.512398611494898,0.6910822760030627,-0.061593811462633305
1772619588145350700,1.8803505859375,6.180421157813072,0.9927660059690475,0.02843852430321276
1772619588155381800,1.8903818359375,5.8889995864033695,1.2663095369912682,0.10915277742985635
1772619588165412600,1.90041259765625,5.751015011036396,1.6070583261497318,0.2612682060126215
1772619588175443700,1.910443603515625,5.74578412464559,1.8698852328464388,0.32213563942946494
1772619588185474600,1.920474609375,5.842666289773583,1.9397621944099663,0.29335005525425073
1772619588195505700,1.930505615234375,6.15291648029387,1.9524062796667216,0.21735073835290966
1772619588205536500,1.94053662109375,6.3284969190835945,1.9159882278516887,0.05215108866360969
1772619588215567600,1.950567626953125,6.1831976367890835,1.7656662950895725,-0.24769177180919794
1772619588225598500,1.960598388671875,5.57017562880516,1.5413981054984032,-0.5712057503871619
1772619588235629800,1.9706298828125,4.210335721331835,1.2180322666868566,-0.7810862259246408
1772619588245660700,1.98066064453125,2.1098019502073524,0.9073997988507151,-1.17891934976466
1772619588255691800,1.99069189453125,-0.15101707541942597,0.6495205776892602,-1.434603764295578
1772619588265722600,2.00072265625,-2.308402030056715,0.4735397414050996,-1.5472083992123602
1772619588275753700,2.010753662109375,-4.414014711880684,0.20706848685666918,-1.671560170546174
1772619588285785600,2.02078564453125,-6.286863762968778,-0.08173223453015088,-1.2573049772806464
1772619588295816700,2.030816650390625,-7.338035196155309,0.0519913223914802,-0.09334652921459637
1772619588305847600,2.04084765625,-7.006330129674077,0.878544583505392,1.1921980796631424
1772619588315878700,2.050878662109375,-5.650480168619752,1.9584516973108053,2.099276756800711
1772619588325909500,2.060909423828125,-3.7093262275904415,2.464210139144957,2.249033749156445
1772619588335940600,2.070940673828125,-1.6989929518729447,1.5134782713070511,1.8184752174742518
1772619588345971700,2.0809716796875,-0.08811141417324543,-0.2677934430629015,1.0340369777079672
1772619588356002800,2.0910029296875,0.5869026473432779,-1.955565035958588,0.13293964000232517
1772619588366034000,2.101033935546875,-0.2910691047102213,-3.206804575720429,-0.5250113507714123
1772619588376064800,2.111064697265625,-2.5490298182964324,-3.6891415176957842,-0.6539159631039947
1772619588386095900,2.121095947265625,-5.654789263990521,-3.2476158940583466,-0.25914412653073665
1772619588396126700,2.131126708984375,-8.595202080139517,-2.020077547879517,0.5050027646286412
1772619588406157800,2.14115771484375,-10.842747782695293,-0.553811694124341,1.4225195048786698
1772619588416188700,2.151188720703125,-11.820568732988834,0.788459238910675,2.3029743059195575
1772619588426219800,2.1612197265625,-11.447440353751182,1.5726200499750673,2.745423035751283
1772619588436250600,2.171250732421875,-9.697542559549213,1.862056585047394,2.4653733377054334
1772619588446281700,2.18128173828125,-6.849649621665478,1.625380603173375,1.8668724608965217
1772619588456312600,2.1913125,-3.5259126109570262,1.0944517719864844,1.315800859260559
1772619588466343700,2.20134375,-0.3734621412366628,0.5166124288037419,0.5410716376798227
1772619588476374500,2.21137451171875,2.2316712570756674,-0.01812032471075654,-0.17464724959284067
1772619588486405600,2.221405517578125,4.030647847223282,-0.5191803795956075,-0.5686937310336158
1772619588496437800,2.231437744140625,5.230574840638041,-0.8494532213166356,-0.719416317018494
1772619588506468900,2.24146875,5.971876022532582,-1.016709045483917,-0.6739630180936307
1772619588516499700,2.251499755859375,6.282957987701892,-1.0344779264084993,-0.5457907751562073
1772619588526530800,2.26153076171875,6.313832433915138,-0.9894956059962511,-0.5067328032916412
1772619588536561700,2.271561767578125,6.26338118057251,-0.9774550395905971,-0.5239440138008445
1772619588546592800,2.2815927734375,6.1393614176720375,-1.008686336417496,-0.5909796509912237
1772619588556623600,2.29162353515625,5.779024130946397,-1.1509995155733077,-0.7158314442690461
1772619588566654700,2.30165478515625,5.1238417281031605,-1.2528411297395825,-0.6815165752783418
1772619588576685600,2.311685546875,4.217592560592293,-1.11525008373484,-0.48458647446781394
1772619588586716700,2.321716552734375,3.072449881288409,-0.7953359928123652,-0.3574062017098069
1772619588596747500,2.33174755859375,1.7458832978636025,-0.4657715185564011,-0.26203327210098504
1772619588606778600,2.341778564453125,0.5892974335253238,-0.14644947524294255,-0.15541856178138405
1772619588616809700,2.351809814453125,-0.34995617796480655,0.1729739826183766,-0.05497344347480684
1772619588626840600,2.361840576171875,-1.023300844964385,0.5113197292231023,0.02810954807717353
1772619588636871700,2.37187158203125,-1.5341303064525127,0.8267648580379784,0.15384345795176924
1772619588646902800,2.38190283203125,-2.343143673092127,0.913512582642585,0.4129943430168554
1772619588656934000,2.391933837890625,-3.462517120367288,0.9616688569158315,0.5622884305685758
1772619588666964700,2.40196484375,-4.741587793123721,1.0261043580777942,0.5937517825856804
1772619588676995800,2.411995849609375,-5.9355801357924936,0.8918642299361527,0.66523822517246
1772619588687026200,2.422026123046875,-6.796881323552131,0.5870626602105796,0.6961965502768754
1772619588697058300,2.432058349609375,-7.489287833896279,-0.05262275216281414,0.9442738508049399
1772619588707089200,2.442089111328125,-8.130036637717485,-0.7437425836972892,1.342093530641496
1772619588717120300,2.452120361328125,-8.473903266635537,-1.180884731553495,1.507725845260173
1772619588727151000,2.462151123046875,-8.353464869353175,-1.2873467720620333,1.1927221035372466
1772619588737182200,2.47218212890625,-7.837307490840554,-1.2356065018221736,0.6962059756923467
1772619588747213000,2.482213134765625,-6.86853610844314,-1.4192872449591756,0.36548933572657405
1772619588757244200,2.492244140625,-5.410892244821786,-1.9185490182504057,-0.010488222397118807
1772619588767275000,2.50227490234375,-4.123799009129405,-2.5056749529555438,-0.6372923066917806
1772619588777306000,2.51230615234375,-3.274011149030924,-3.2850632889211178,-1.3913396459780634
1772619588787337200,2.522337158203125,-3.128096365186572,-3.917017960911989,-1.6673463522434233
1772619588797368300,2.532368408203125,-4.025729680043459,-3.6092408825069664,-1.4783295087754726
1772619588807399200,2.542399169921875,-4.932106273326277,-2.2328243726335466,-0.9780313051085918
1772619588817430300,2.55243017578125,-4.542141910099983,-0.655083326382935,-0.28653202753616497
1772619588827461000,2.562461181640625,-2.9501778388381004,0.4378574565187096,0.5043858017740771
1772619588837492200,2.5724921875,-0.8045902895003557,1.0228893415540457,0.9673824122570455
1772619588847523300,2.5825234375,1.111564234828949,1.1571036046020686,1.1385413082774727
1772619588857554200,2.59255419921875,2.538875504028797,0.9753833478830755,0.975108038073033
1772619588867585300,2.602585205078125,3.6223552156239744,0.9540132275961339,0.5628142080083489
1772619588877616000,2.6126162109375,4.241076896554231,0.9909563261985779,0.23047464301586149
1772619588887647200,2.622647216796875,4.480179667183757,1.0268895171061159,0.09347644833773373
1772619588897679000,2.63267919921875,4.6873728033334014,1.1472016576603055,0.12862141147702932
1772619588907710000,2.6427099609375,4.9183057115107776,1.2211711492344737,0.3402978305205703
1772619588917741300,2.6527412109375,5.264281879928708,1.3352157538264988,0.7143570608675479
1772619588927772200,2.662772216796875,5.780410032346844,1.4533178171157837,1.0835803954906762
1772619588937803300,2.67280322265625,6.436528839257359,1.5705635558366775,1.3118793019026518
1772619588947834400,2.68283447265625,7.098151504281163,1.5206908330343663,1.412424227321893
1772619588957865200,2.692865234375,7.538015332186221,1.2961274598889052,1.3554308588594197
1772619588967896300,2.702896240234375,7.782553571867942,1.0244609747849405,1.1618488994330167
1772619588977927200,2.71292724609375,7.77474377489984,0.7716498506680131,0.8826753266345709
1772619588987958300,2.722958251953125,7.542377619048953,0.5167195424400269,0.520875639206171
1772619588997989000,2.732989013671875,7.204637948578596,0.2542809044085443,0.16470971988104283
1772619589008020200,2.743020263671875,6.905860753709077,0.0012153671391308307,-0.21175845303749663
1772619589018051000,2.753051025390625,6.7225517664939165,-0.2096238704279065,-0.4740379732508212
1772619589028082200,2.763082275390625,6.440217172381281,-0.3398775592818856,-0.5048956144597381
1772619589038113000,2.773113037109375,5.947825284859538,-0.3260639918543398,-0.45749381181560456
1772619589048144100,2.78314404296875,5.2903077170670025,-0.12634133771583436,-0.4409230911670252
1772619589058175000,2.793175048828125,4.541640974840521,0.1318880120575428,-0.4620071610542014
1772619589068206000,2.8032060546875,3.8505689279705284,0.42167993643879886,-0.5035958935054019
1772619589078237200,2.8132373046875,3.2253982170313593,0.6917379634328186,-0.5296412025291473
1772619589088268300,2.823268310546875,2.4438152936309576,0.8689724530398845,-0.5891668659482151
1772619589098300200,2.833300048828125,1.3105278872936963,0.8824658486023544,-0.531825232037343
1772619589108331300,2.843331298828125,-0.1221452012002468,0.8966159545078873,-0.19933058608099818
1772619589118362000,2.853362060546875,-1.5373141971856354,1.2899373730771242,0.22320501733906567
1772619589128393200,2.863393310546875,-2.6651778249084948,1.8586710342623292,0.7284859778545797
1772619589138424000,2.873424072265625,-3.505082588896155,2.129217867686599,1.2466320459663867
1772619589148455200,2.883455078125,-3.9337072299063203,2.042873901577294,1.324727823690325
1772619589158486000,2.893486083984375,-3.999928883832693,1.3346060974955558,1.105316937937215
1772619589168517000,2.90351708984375,-3.918461729979515,0.308380597256124,0.6908645415991544
1772619589178548200,2.91354833984375,-3.4521710829198358,-0.4048854535043239,0.027108371677994725
1772619589188579000,2.9235791015625,-2.761795201620459,-0.6798866359889507,-0.5545335786581039
1772619589198610400,2.9336103515625,-1.874381082960963,-0.8761974358573555,-0.9952418945632875
1772619589208641300,2.943641357421875,-0.4702905303508043,-1.3982000332668423,-1.3699322624206542
1772619589218672400,2.95367236328125,0.8353221123725175,-2.6891791704818604,-1.7127547891132533
1772619589228703200,2.963703125,0.7780594254493713,-4.331113141310214,-1.325234165777266
1772619589238734300,2.973734375,-1.4184423185676336,-4.671820137153565,-0.4154578470535576
1772619589248765200,2.98376513671875,-5.327769140455127,-2.8269258454397317,0.3402995110210031
1772619589258796300,2.99379638671875,-10.074382068264484,0.005775514661520719,1.4400854105770586
1772619589268827100,3.0038271484375,-13.890968647134303,2.340587412738055,3.056279959993064
1772619589278858200,3.013858154296875,-15.308468131893873,3.2817022880554196,4.183537438516319
1772619589288889000,3.02388916015625,-14.07279470231533,3.892931275142729,3.687653909486532
1772619589298920200,3.033920166015625,-11.154926895451545,3.5387507574811576,2.5213532913416623
1772619589308952000,3.0439521484375,-7.131270514550804,2.370453850952536,1.2662066611386835
1772619589318983200,3.053983154296875,-2.546922616884112,0.9801907481648028,0.3054499140990898
1772619589329014300,3.06401416015625,1.676245113492012,-0.16275193687677383,-0.5525313719902187
1772619589339045400,3.07404541015625,4.76645218526721,-1.0057067360848189,-1.591472780613601
1772619589349076200,3.084076171875,6.778260794234275,-1.8106831022933125,-2.2196961571216582
1772619589359107300,3.094107421875,7.581597868803143,-2.6092113152757284,-2.2292224026188254
1772619589369138200,3.10413818359375,7.439516379511356,-2.983342149554193,-2.16964077122882
1772619589379169300,3.114169189453125,6.675460344973206,-2.943106585277617,-1.9984791717946528
1772619589389200100,3.1242001953125,5.884782260969281,-2.6101123557686803,-1.6177873715654014
1772619589399231200,3.134231201171875,5.14935552406609,-2.142328839802742,-1.133995043149963
1772619589409262000,3.144261962890625,4.612074693503976,-1.6201199061661957,-0.6280374985471368
1772619589419293200,3.154293212890625,4.255125880172849,-1.0603411203309894,-0.27624256084784865
1772619589429324000,3.164323974609375,4.100051053795219,-0.5722546749182045,-0.04086867454834282
1772619589439355100,3.174355224609375,4.049494001990556,-0.2198399978853762,0.0727219757311046
1772619589449386200,3.18438623046875,4.080695780462026,-0.053840749650448556,0.054710591287538406
1772619589459417000,3.1944169921875,4.173503243497014,0.012762597069889307,-0.0701275753237307
1772619589469448200,3.2044482421875,4.217787206381559,-0.02353095158264041,-0.20619813376292584
1772619589479479000,3.21447900390625,4.117118508452177,-0.12511471853032707,-0.3709977969497442
1772619589489510400,3.224510498046875,3.7760260204225777,-0.24702260384336114,-0.5343113862972706
1772619589499541200,3.234541259765625,3.0586873133957386,-0.3780639359436929,-0.7048106493651867
1772619589509573000,3.244572998046875,2.0861960336923597,-0.4773427869498729,-0.7952465609632432
1772619589519604200,3.254604248046875,0.726908499404788,-0.6276207344397902,-0.5829740757226943
1772619589529635000,3.264635009765625,-1.1414350569576024,-0.7824044689163565,-0.06091302612423896
1772619589539666200,3.274666259765625,-3.490520979580283,-0.6197407948449254,0.5481747842159121
1772619589549697300,3.284697265625,-6.026409576752782,-0.2882340274147689,1.2004086394518614
1772619589559728000,3.29472802734375,-8.448415189635753,-0.32398426297083494,1.9921926388710736
1772619589569759200,3.30475927734375,-10.276785632050037,-0.7107546524614096,2.3181031937293706
1772619589579790000,3.3147900390625,-11.182207701086996,-1.0485384543344378,1.7665579832322895
1772619589589821200,3.3248212890625,-11.178438703942298,-0.9992902931712567,0.7636026647474616
1772619589599852000,3.33485205078125,-10.341896694386005,-0.7380106159165502,-0.5628439455594867
1772619589609883400,3.34488330078125,-9.035024406990408,-0.9985441509790718,-1.8005527534231542
1772619589619914200,3.354914306640625,-7.950324798211454,-2.297005752903968,-2.7075910254850983
1772619589629945300,3.3649453125,-7.69967713573873,-3.820369604539871,-2.959357755115628
1772619589639976200,3.37497607421875,-8.409504151961206,-4.335839585310221,-2.918303275671601
1772619589650007300,3.38500732421875,-9.272000686985253,-3.530931315901875,-2.8972277544170617
1772619589660038100,3.3950380859375,-9.089446902051568,-2.0077051191709936,-2.457842649939656
1772619589670069200,3.4050693359375,-7.573166140544414,-0.6730709646247327,-1.5575591128349304
1772619589680100000,3.41510009765625,-5.512500269427895,0.2617589852042496,-0.5981949161322787
1772619589690132700,3.4251328125,-3.574272444978356,0.8300438797086477,0.10273414255920797
1772619589700163600,3.43516357421875,-1.743903522223234,1.0074170471340418,0.5646086536770686
1772619589710194700,3.445194580078125,-0.04390402365624904,0.9552385316073894,0.8575575442519039
1772619589720225500,3.4552255859375,1.2157663675814867,0.8309118947148323,1.0554252912387252
1772619589730256600,3.465256591796875,2.2175205666482447,0.8309455047234893,1.1295493888527155
1772619589740287500,3.47528759765625,2.870286555999517,0.9698805126830935,1.3856727062575518
1772619589750318600,3.485318603515625,3.4186610275059937,1.1947205108128487,1.6307047208055854
1772619589760349400,3.495349365234375,4.168294568938017,1.5045453155279158,1.8273798239417374
1772619589770380500,3.505380615234375,5.223106404453516,1.7665883783705532,1.8468404573455452
1772619589780411400,3.515411376953125,6.53809594733119,1.850697717295587,1.8171512753941117
1772619589790442500,3.5254423828125,8.078264364904165,1.7238545675374566,1.667328232064843
1772619589800473300,3.535473388671875,9.675696053922175,1.4395789223596454,1.381991825787723
1772619589810504700,3.545504638671875,10.81789391194582,1.0595403253421187,1.1026784791924058
1772619589820535600,3.55553564453125,11.019776082205771,0.6728329180851579,0.9400882356833666
1772619589830566700,3.565566650390625,10.306280606603622,0.5215833490841091,0.7308289607841522
1772619589840597500,3.575597412109375,9.07396350171566,0.6444628559082746,0.6554944644670934
1772619589850628600,3.585628662109375,8.250961941733955,0.6066410747751593,-0.05919752744324505
1772619589860659700,3.59565966796875,7.289239308804273,0.6745660254880785,-0.11767170904800295
1772619589870690600,3.605690673828125,6.315907486623526,1.0014245287209749,-0.08504786188416183
1772619589880721700,3.6157216796875,5.366882422703505,1.2927113678351043,0.18115597389973698
1772619589890753500,3.62575341796875,4.541545113250613,1.6821318334430455,0.471537388606742
1772619589900784400,3.635784423828125,4.04616690339446,2.125814635114372,0.6420063296016305
1772619589910815500,3.6458154296875,3.898990721312165,2.418482114931941,0.8137456558585167
1772619589920846300,3.655846435546875,4.048028605613112,2.6061829073652625,0.8884255607243626
1772619589930877400,3.66587744140625,4.389686910831928,2.69631413692832,0.7321615245621651
1772619589940908500,3.675908447265625,4.742607199299335,2.557885617186129,0.4112453439250588
1772619589950939600,3.685939697265625,4.63097754689455,2.323400277224183,0.5409477921044453
1772619589960970800,3.695970703125,4.0982384514153,2.052135066397488,0.35565146699696776
1772619589971001600,3.706001708984375,3.229543646273017,1.9316385091871022,0.11856032845079899
1772619589981032700,3.71603271484375,2.2690824115812775,1.9302946933627128,-0.030927199313789604
1772619589991063600,3.7260634765625,1.3835183047026396,1.9691200985804198,0.1899038554355502
1772619590001094700,3.7360947265625,0.4390753078758716,1.9293197108507156,0.660050739531964
1772619590011125500,3.74612548828125,-0.8768103070586919,1.5987655679702757,0.9203482008162885
1772619590021156600,3.756156494140625,-2.3281384116619823,0.9923279068127274,1.1533869221664965
1772619590031187500,3.7661875,-3.605362579768896,0.47020694372057914,1.7317292464353142
1772619590041218600,3.776218505859375,-4.248393357047439,0.4748924711883068,2.259963285580277
1772619590051249400,3.78624951171875,-3.9551679510861635,0.9338461994886398,2.2619062363415954
1772619590061280500,3.796280517578125,-2.7096920894175764,1.168437630173564,1.7091962198488413
1772619590071311400,3.806311279296875,-0.8200175757348537,0.5295584196165204,0.6878060308113694
1772619590081343700,3.81634375,0.7059533896595239,-1.0962819100230932,-0.24366876337081192
1772619590091374600,3.82637451171875,0.6944558440893888,-2.886803098775446,-0.4088976117551327
1772619590101405700,3.83640576171875,-1.4521668935149907,-3.3868329338297247,-0.21408055757582187
1772619590111436500,3.8464365234375,-5.543422061914205,-2.2116350157409905,0.1954308021634817
1772619590121467600,3.856467529296875,-10.43163015680313,-0.18471008618474005,1.146083101959154
1772619590131498500,3.86649853515625,-14.266061019921302,1.9803914341792463,2.595432088509202
1772619590141529600,3.876529541015625,-15.527062952023744,3.5757229360476135,3.9527281567186114
1772619590151560400,3.886560546875,-14.16798175396323,4.0152193919450045,4.385395351117849
1772619590161591600,3.896591552734375,-10.772447335022687,3.365721756739914,3.7530943499073386
1772619590171622400,3.906622314453125,-6.406416025066376,2.1515565407447514,2.4945503323510287
1772619590181653500,3.916653564453125,-2.3104858505934476,0.8400389117613434,1.1340392476178704
1772619590191684600,3.9266845703125,0.82099431181252,-0.2535784552276134,-0.325229513791576
1772619590201715500,3.936715576171875,2.8170675915092227,-1.1548048261404036,-1.4786787606045604
1772619590211746600,3.94674658203125,3.7335119898200033,-1.8673701812855898,-1.94365335662961
1772619590221777700,3.956777587890625,3.8201223517805336,-2.1401102869704363,-1.9164989538528023
1772619590231808800,3.966808837890625,3.555640809744596,-1.9064941310584544,-1.6741956336162984
1772619590241839600,3.976839599609375,3.4181168376266955,-1.4444681557059287,-1.2918211409971116
1772619590251870700,3.98687060546875,3.5594378639400004,-1.0167527384951711,-0.8006342453509568
1772619590261902600,3.996902587890625,3.9389012914180754,-0.6459950339116156,-0.27553455870896576
1772619590271933400,4.006933349609375,4.440650789871811,-0.38856859801895915,0.07273352003842591
1772619590281964500,4.016964599609375,4.837149523302912,-0.38457375622913237,0.208448469972983
1772619590291995600,4.02699560546875,5.130934901234507,-0.4902719727583229,0.12057269118651746
1772619590302026500,4.037026611328125,5.279409306433797,-0.6509330748356879,-0.1525727804288268
1772619590312057600,4.0470576171875,5.297458757865429,-0.8138003086552024,-0.5966128711052239
1772619590322088400,4.05708837890625,5.220970561468601,-0.9856914644729345,-0.9726648827046155
1772619590332119600,4.06711962890625,4.985709853219985,-1.1739589508783073,-1.288422000078112
1772619590342150400,4.077150390625,4.443555863663554,-1.3559203959420323,-1.5910072089284657
1772619590352181800,4.087181640625,3.6753959009379145,-1.4078797157600522,-1.7881167579591273
1772619590362212600,4.097212646484375,2.8051620496600864,-1.317675128699839,-1.8054725280381738
1772619590372243700,4.10724365234375,1.7498153766155242,-1.1534645905125887,-1.6986996680147946
1772619590382274600,4.117274658203125,0.6484194845795631,-0.9802009042326361,-1.527353944185376
1772619590392305700,4.1273056640625,-0.5116062910795212,-0.8000682089660316,-1.3103133677601813
1772619590402336500,4.13733642578125,-1.5075538496941328,-0.6580467062331735,-1.0713898992203175
1772619590412367600,4.14736767578125,-2.3593144711703062,-0.621554274007678,-0.7348146694194525
1772619590422398500,4.1573984375,-3.351730933049321,-0.7109568970352411,-0.5023103472068906
1772619590432429600,4.1674296875,-4.339517981562018,-0.7181601064123213,-0.2828125868879258
1772619590442460400,4.17746044921875,-5.280179706284404,-0.9926651759430766,-0.1382751558113843
1772619590452492500,4.187492431640625,-6.485131249862909,-1.5807729612924157,-0.06514547606222332
1772619590462523400,4.1975234375,-7.884633890160917,-2.1405529161714014,-0.20848390661254523
1772619590472554800,4.2075546875,-9.16462343132794,-2.277006482578814,-0.589237520031631
1772619590482585600,4.217585693359375,-9.83589246109724,-1.9216379241764545,-1.0097210862927137
1772619590492616700,4.22761669921875,-9.522054475218058,-1.3875295861706136,-1.1048595495585352
1772619590502647600,4.2376474609375,-8.289493624702095,-1.058899981611967,-0.9332313555259257
1772619590512678700,4.2476787109375,-6.654023589190841,-1.2197237269051373,-0.8715763519279658
1772619590522709500,4.25770947265625,-5.259904395496845,-1.761786531046778,-1.107584590608254
1772619590532740600,4.26774072265625,-5.218982602521777,-2.559148476728797,-1.2690741793990135
1772619590542771500,4.277771484375,-6.815548030099272,-2.937854948359728,-0.9767210262276231
1772619590552802600,4.287802490234375,-8.496935767176748,-2.042562643671036,-0.3865817715832963
1772619590562833700,4.297833740234375,-8.388841303160786,-0.5688961582705379,0.22492446154281495
1772619590572864500,4.307864501953125,-6.650230042126775,0.1506096636623144,0.9253308845996856
1772619590582895600,4.3178955078125,-4.3997009398460385,0.166039580245316,1.4492108201883733
1772619590592926500,4.327926513671875,-2.5698715307950972,-0.12558562397770584,1.5230312586806714
1772619590602957600,4.33795751953125,-1.249082361727953,-0.444729753440991,1.5362515363901852
1772619590612988400,4.347988525390625,-0.44698271999955175,-0.6792472421068698,1.6927229316927492
1772619590623019500,4.35801953125,-0.15913842255473135,-0.7460211230885238,1.9408944133102892
1772619590633051600,4.3680517578125,0.10435820009708403,-0.42539924922287464,2.5249223820000886
1772619590643082500,4.37808251953125,0.4087006278783083,0.12632716306000946,3.3563714523315427
1772619590653113600,4.388113525390625,0.9675678518265485,0.693747841950506,4.138727990452945
1772619590663144700,4.398144775390625,1.8860557386636734,1.1384329525321721,4.779039864161611
1772619590673175600,4.408175537109375,3.1836189304441214,1.4146778514675795,5.2407689023941755
1772619590683206700,4.41820654296875,4.783011690402031,1.5589011750936508,5.467113898259401
1772619590693237500,4.428237548828125,6.428118738308549,1.640856404724717,5.318341971418262
1772619590703268600,4.4382685546875,7.815686610662937,1.586414182049781,4.883502693676948
1772619590713299500,4.448299560546875,8.843394166153669,1.4346825286202132,4.245634705989063
1772619590723330600,4.45833056640625,9.360869641527533,1.1652991860173643,3.3928663687750693
1772619590733361400,4.468361328125,9.442876893606782,0.8781703433655201,2.429723639914393
1772619590743392500,4.478392578125,9.217472393462062,0.6538035157054662,1.4593845698088406
1772619590753423400,4.48842333984375,8.628491770800947,0.43255730428397654,0.6548946719430386
1772619590763454700,4.498454833984375,7.7603920089423655,0.2641481453631073,0.020925280862580983
1772619590773485600,4.508485595703125,6.6710074572175735,0.1462674697395414,-0.48232152521051463
1772619590783516700,4.5185166015625,5.573032771801948,0.1702730530966073,-0.7909924106501043
1772619590793547500,4.528547607421875,4.542821124535799,0.23523045924082397,-1.0549411609835921
1772619590803578600,4.53857861328125,3.745480075511336,0.3642043374173343,-1.4541652277253567
1772619590813610500,4.548610595703125,3.016923808899522,0.5165357103057205,-1.842307197830081
1772619590823641600,4.5586416015625,2.447511225539446,0.6826913181461394,-2.2135075316146016
1772619590833672400,4.56867236328125,1.862915101572871,0.6847041192732751,-2.301458494529128
1772619590843703600,4.57870361328125,0.8000508925050497,0.3719434803020209,-2.196758056865632
1772619590853734400,4.588734375,-0.3908353008419275,0.26911643529497087,-2.1064250211201605
1772619590863765500,4.598765625,-1.5307079307883977,0.3269922126151621,-1.9928516873016953
1772619590873796400,4.60879638671875,-2.4800568198353052,0.21970453493744133,-1.624146092942357
1772619590883827500,4.618827392578125,-2.9861762039363384,0.07373670573160052,-1.3483086057640612
1772619590893858600,4.628858642578125,-3.1714620441824195,-0.37211131114959717,-1.325159639236331
1772619590903889700,4.6388896484375,-3.0516677900224924,-1.2184104523494839,-1.3223529112525283
1772619590913920800,4.648920654296875,-3.0374340974867344,-2.1946797892868517,-1.1540718356907367
1772619590923951600,4.65895166015625,-2.816655503576994,-2.8577558679893613,-0.5800742626279592
1772619590933982700,4.668982666015625,-2.2710744621813297,-2.8886922735229135,-0.1117602930471301
1772619590944013600,4.679013671875,-1.189566342920065,-2.4911492917358875,-0.6251064135313034
1772619590954044700,4.689044677734375,0.7265607088804245,-2.3171759958818554,-1.8690204327106474
1772619590964075500,4.699075439453125,2.2447458427041767,-3.0543714960232373,-2.1644752051591873
1772619590974106600,4.709106689453125,1.5369728364020585,-3.756951902118325,-1.5311974678710103
1772619590984137500,4.719137451171875,-1.9846072983086107,-2.8748721302241087,-0.7573360786333679
1772619590994169600,4.729169677734375,-6.971352924317121,-0.4881609719537198,-0.09270692526996135
1772619591004200400,4.739200439453125,-11.629390327572821,1.7165424909584224,1.3511808001995085
1772619591014231800,4.749231689453125,-14.316224688494204,3.1737972091317177,3.3390924007505176
1772619591024262700,4.7592626953125,-14.220631978654861,3.9041286687225103,4.418502670949697
1772619591034293800,4.769293701171875,-11.77691663826704,4.1768101760879155,4.122843900361657
1772619591044324600,4.77932470703125,-8.151842226812242,3.412226026022434,3.366027753949165
1772619591054355700,4.789355712890625,-4.468141438865661,2.154234966173768,2.464327628044784
1772619591064386600,4.799386474609375,-1.5844266614943743,1.1883302252538501,1.0856345515415071
1772619591074417700,4.809417724609375,0.3767407245159149,0.5738065805353224,-0.21885800111070275
1772619591084448500,4.819448486328125,1.5939865170001983,0.24285496276989577,-0.8740792746596038
1772619591094479600,4.829479736328125,2.3044991773992773,0.22280016286522147,-1.092659189481288
1772619591104510500,4.839510498046875,2.702733356320858,0.2336328147858381,-1.0917813837334513
1772619591114541600,4.84954150390625,3.0677608466893433,0.42242227923870085,-0.9536158988416195
1772619591124572400,4.859572509765625,3.531671905136108,0.7739896917924285,-0.7385420193795115
1772619591134603500,4.869603515625,4.114804386290908,1.1542273185133933,-0.6178364955935627
1772619591144634400,4.87963427734375,4.644864033427834,1.447218331196904,-0.5329949699364602
1772619591154665500,4.88966552734375,5.049251474282145,1.605163744574785,-0.48543030488081274
1772619591164696600,4.899696533203125,5.362048426675797,1.6889590491145847,-0.46139125764556227
1772619591174728700,4.909728759765625,5.627289847168326,1.7488582220211624,-0.4640500285260379
1772619591184759600,4.919759521484375,5.920259817063808,1.8166019709482788,-0.5255109708566218
1772619591194790700,4.929790771484375,6.220048234802484,1.9206831076696513,-0.5281638234529644
1772619591204821500,4.939821533203125,6.340211906796694,1.9295494279533623,-0.4986790049672126
1772619591214852600,4.9498525390625,6.309536198025942,1.9697361846521495,-0.47312531538531183
1772619591224883500,4.959883544921875,5.969701601102948,1.9879107237681746,-0.46808293730393047
1772619591234914600,4.96991455078125,5.369640196979046,1.7792577441990374,-0.5506785106651485
1772619591244945400,4.9799453125,4.534857598310709,1.4906895163938403,-0.6877165989622473
1772619591254976500,4.9899765625,3.4876322724014517,1.1926815523311496,-0.8410928047284484
1772619591265007600,5.000007568359375,2.3590058436125516,0.7876780254051089,-0.8992121815461664
1772619591275038500,5.01003857421875,1.0004664973437785,0.31453444371074435,-0.623055253155157
1772619591285069600,5.020069580078125,-0.7285960141003132,-0.22224223672151563,-0.19047734447456896
1772619591295100400,5.030100341796875,-2.607626968693733,-0.7311860305935144,0.21349121338054536
1772619591305131800,5.0401318359375,-4.311366238310933,-1.3217591831430793,0.47024172277301546
1772619591315162600,5.05016259765625,-5.159667074722051,-1.9855872492566704,0.7865859193194658
1772619591325193700,5.06019384765625,-5.4507198128193615,-2.7908555841490625,1.1811764079764484
1772619591335224600,5.070224609375,-5.82793984528482,-3.6462931405723094,1.406193954630196
1772619591345256400,5.08025634765625,-6.388305198836326,-4.321271546253562,1.3181436229944228
1772619591355287600,5.09028759765625,-6.494720915985107,-4.508426687502861,0.8610575882621109
1772619591365318700,5.100318603515625,-6.033512686756253,-4.368968532451987,0.06761734606847167
1772619591375349500,5.110349609375,-5.4180310106605285,-4.307582335858047,-0.9008852293249219
1772619591385380600,5.120380615234375,-5.761145359906554,-4.4649435196071865,-1.3735130435168743
1772619591395411500,5.130411376953125,-7.182413841810822,-4.107509260846674,-1.3635748562179506
1772619591405442600,5.140442626953125,-8.381599661469458,-3.081510262839496,-1.1801301137939095
1772619591415473400,5.150473388671875,-8.433730246201158,-2.0213561895132064,-0.7414593681309372
1772619591425504800,5.1605048828125,-7.245161097624898,-1.1582333392843602,-0.14563641442754305
1772619591435535600,5.17053564453125,-5.273312158602476,-0.36313334718495605,0.2450606561206281
1772619591445566700,5.180566650390625,-3.1141461657673117,0.28754560675919055,0.5809327060882001
1772619591455597600,5.19059765625,-1.0449170489668846,0.7489414675146341,0.8902107636407017
1772619591465628700,5.200628662109375,0.5191232425808906,1.0130841329850255,1.0896857266284525
1772619591475659500,5.210659423828125,1.2709089936107396,1.112239065350592,1.2049627956248818
1772619591485690600,5.220690673828125,1.4687603009194135,1.1851138935558496,1.1553686705682427
1772619591495721500,5.230721435546875,1.4911872367829084,1.2505289072744548,1.0694228369310497
1772619591505752600,5.240752685546875,1.5462608892291783,1.3063472406081855,1.0375482737645507
1772619591515784400,5.250784423828125,1.6255302407771348,1.2513513295732437,1.0027417487993835
1772619591525815600,5.260815673828125,1.9611539420068262,1.1150075071506202,0.962011752069369
1772619591535846400,5.270846435546875,2.7476322362333536,1.1271882126793265,0.9607656975310295
1772619591545877500,5.28087744140625,3.865964065501094,1.1730666051484644,1.0305870564498008
1772619591555908600,5.29090869140625,5.031090379169583,1.1414128451257943,1.1163036113757638
1772619591565939700,5.300939697265625,6.240374398994446,1.0840415832616388,0.9655456252839416
1772619591575970600,5.310970458984375,7.3812705267697565,0.9567020282886922,0.766946860608831
1772619591586001700,5.321001708984375,8.288336271360516,0.7270891166687011,0.571377307561785
1772619591596032500,5.331032470703125,8.968379559215903,0.6213868084862828,0.3089571915676817
1772619591606063600,5.341063720703125,9.269614084109664,0.6081846509553491,0.08590372979482636
1772619591616094500,5.351094482421875,8.88760973997712,0.48534196901023385,-0.22179014557246118
1772619591626125600,5.36112548828125,8.008449654921888,0.41378479927480216,-0.5977867371901869
1772619591636156700,5.37115673828125,6.946037865796685,0.5250567242830991,-0.8074673793066293
1772619591646187500,5.3811875,5.889264959341287,0.7226987727552652,-0.950255409432575
1772619591656218600,5.391218505859375,4.997260590282083,0.9241381676837801,-0.9979263113416731
1772619591666249500,5.40124951171875,4.509070830625295,1.19168289668262,-1.0285730862788856
1772619591676281300,5.41128125,4.486184460556506,1.5681030109420417,-0.9866828866630792
1772619591686312200,5.421312255859375,4.8225060809224845,1.9811299775868654,-0.9915858562737703
1772619591696343300,5.43134326171875,5.272271125116944,2.3163754931539295,-0.9967797716550528
1772619591706374400,5.44137451171875,5.508063163763285,2.4739517809584735,-0.9572126081593334
1772619591716405500,5.451405517578125,5.221744468450546,2.416074469268322,-0.8227651939425616
1772619591726436400,5.461436279296875,4.504789792305231,2.151168564340472,-0.45783743762150403
1772619591736467500,5.471467529296875,3.6762908039510247,1.807237638014555,-0.02894727754294872
1772619591746498300,5.481498291015625,3.1039585337519644,1.345377959139645,0.3493498095694929
1772619591756529400,5.491529296875,2.768915262758732,0.39393443590104577,0.9686020171798765
1772619591766560300,5.501560302734375,2.6732424734205007,-0.7300523503884673,0.9332543710753322
1772619591776591400,5.51159130859375,2.439737084406614,-1.8875339945226908,0.15951361254267393
1772619591786622200,5.521622314453125,1.3710557134926318,-3.1636911179199814,0.03125128016900271
1772619591796653300,5.5316533203125,0.09448913251161575,-3.6213448695376513,-0.3062068699462339
1772619591806684200,5.54168408203125,-1.0020423683583737,-2.83683290694803,-1.5818828222304582
1772619591816715300,5.55171533203125,-2.2714923953324555,-1.9261244219407438,-2.432879181335866
1772619591826746000,5.56174609375,-4.0633103458970785,-1.2395122770890592,-2.0130295290641484
1772619591836778500,5.571778564453125,-6.074482995048165,-0.27117870158702134,-0.8239677746653556
1772619591846809300,5.581809326171875,-8.290780741903186,1.0652934820413589,0.4606225017627701
1772619591856840400,5.59184033203125,-10.862795714467763,2.4073947575978933,1.8350648254863917
1772619591866871300,5.601871337890625,-13.243964874571562,3.119025169980526,3.2290722293689846
1772619591876902400,5.61190234375,-14.521359138548373,3.090025869989395,4.07421635531485
1772619591886933200,5.621933349609375,-13.726196602606773,2.572874804264307,3.951019306974113
1772619591896964400,5.63196435546875,-10.8779430147171,2.0744616106264293,3.0394770014911887
1772619591906995200,5.6419951171875,-6.86473145546317,1.6502721755847334,1.9836298315785823
1772619591917026300,5.6520263671875,-2.5479718336760997,1.2000500352725385,1.3694089691989122
1772619591927057200,5.66205712890625,0.8357774549245834,0.6770780083090067,1.0699368508677929
1772619591937088300,5.672088134765625,2.804499201837182,0.23647476021349428,0.6202247059043496
1772619591947119400,5.682119384765625,3.8348762687981126,-0.0353868090711534,0.23213366226926443
1772619591957150200,5.692150146484375,4.219959289723635,-0.1967500680685043,0.03902344854045659
1772619591967181300,5.702181396484375,4.18925143224895,-0.2921073617167771,-0.1390210422752425
1772619591977212400,5.71221240234375,4.108567537727952,-0.44550285670533774,-0.2252986651500687
1772619591987243500,5.722243408203125,4.131915680089593,-0.648662061163783,-0.13892054104283452
1772619591997274400,5.7322744140625,4.294900841200351,-0.8584636262461542,-0.04794570026248693
1772619592007306200,5.74230615234375,4.5961534862726925,-0.9898912542503326,-0.11761961353458464
1772619592017337300,5.75233740234375,4.954505736660957,-1.0999411631830036,-0.17265220331810413
1772619592027368200,5.7623681640625,5.269715010893345,-1.242428602927178,-0.20097082756869494
1772619592037399300,5.7723994140625,5.5268795079141855,-1.3942816907793283,-0.3521395864184946
1772619592047430400,5.782430419921875,5.6572413333177565,-1.603607601173967,-0.605850435854122
1772619592057461200,5.792461181640625,5.477417265608906,-1.7659417510300874,-0.9724437872998416
1772619592067492400,5.802492431640625,4.7558881211549044,-1.9184796062760054,-1.4313354101493954
1772619592077523200,5.812523193359375,3.2729519953668116,-2.0312519989751276,-1.7820923831030726
1772619592087554300,5.82255419921875,1.1614601923763752,-1.9584512589193879,-1.7499843034416436
1772619592097585200,5.832585205078125,-0.9980717111617327,-1.5930919062480329,-1.6853474344886838
1772619592107616500,5.842616455078125,-2.817498384141922,-1.0860806878738105,-1.3003868708990514
1772619592117647400,5.8526474609375,-4.272750968712568,-0.4346124832481146,-0.5571638175638393
1772619592127678500,5.862678466796875,-5.299162054651975,0.27474720772355793,0.3955511869153008
1772619592137709300,5.872709228515625,-5.906601294067502,0.858478093162924,1.195719750983268
1772619592147740400,5.882740478515625,-6.252209798216819,1.0771852876260877,1.3239905954569577
1772619592157771300,5.892771240234375,-6.341874287050962,0.7952902539744973,1.0536061860527843
1772619592167803400,5.902803466796875,-6.428669357928634,-0.14626388954296707,0.8397429975546896
1772619592177834200,5.912834228515625,-6.791070591446757,-1.4185358420699834,0.6666187197454273
1772619592187865300,5.922865234375,-7.524693493798375,-2.656401228734851,0.8704453020714222
1772619592197896200,5.932896240234375,-8.45994722199738,-3.4498055228322744,1.1805296345055103
1772619592207927300,5.94292724609375,-9.232862854817508,-3.7362773628801107,1.0047628793634473
1772619592217958100,5.952958251953125,-9.54683411168754,-3.6744393308654426,0.5341558304093778
1772619592227989500,5.962989501953125,-9.548936052402853,-3.6438422402888535,0.1701899779230356
1772619592238020400,5.973020263671875,-9.378658396196364,-3.6857410616025326,-0.029281477933377025
1772619592248051500,5.983051513671875,-8.898422810414433,-3.529171028231084,-0.039341172720119354
1772619592258082300,5.993082275390625,-8.396378712928295,-3.2978798081353307,0.04228716304413974
1772619592268113400,6.003113525390625,-7.759238747254013,-2.858077062767744,0.031905433228798206
1772619592278144300,6.013144287109375,-6.886127879235148,-2.1682366035193206,0.12137341311015187
1772619592288175400,6.02317529296875,-5.557593210607767,-1.3574179410234093,0.18110559541936963
1772619592298206200,6.033206298828125,-3.614385259658098,-0.5283204022541642,0.14995277978931554
1772619592308237300,6.0432373046875,-1.1494856769442559,0.054850657345354555,0.30237198622478173
1772619592318268400,6.053268310546875,1.4831997451603411,0.42768940598666666,0.639472354144603
1772619592328299300,6.06329931640625,3.7322821557641026,0.6460296668335795,0.8320685174040496
1772619592338331100,6.0733310546875,4.992386846765876,0.5789424821190535,0.6087254798337817
1772619592348362200,6.0833623046875,5.252776735574007,0.4948651457674801,0.11515325995367019
1772619592358393300,6.093393310546875,4.836003860399127,0.7356178755611181,-0.017542670953273772
1772619592368424400,6.103424560546875,4.125854772615432,1.1152471611253916,0.19281250942386685
1772619592378455300,6.113455322265625,3.6197236980766054,1.3578057712972162,0.289709068403393
1772619592388486400,6.123486328125,3.642716451129317,1.582907927494496,0.590263063687086
1772619592398517200,6.133517333984375,4.237158261805773,1.6380203045159578,1.2302217400439084
1772619592408548400,6.14354833984375,5.132932797053456,1.388578072310239,1.6967402045100926
1772619592418579500,6.153579345703125,6.09640548852086,1.1084145386263728,1.636290265852958
1772619592428610300,6.1636103515625,6.990588370662927,0.9266054345801472,1.1394440292708574
1772619592438641400,6.173641357421875,7.669827940919995,0.7771404109083115,0.3844387682052329
1772619592448672300,6.18367236328125,8.26964267680645,0.6398514165900647,-0.3986647158259526
1772619592458703400,6.193703369140625,8.711686186838149,0.4777380698777735,-1.1772460827901958
1772619592468734200,6.203734130859375,8.880269314086437,0.27283421370908617,-1.7670739699304103
1772619592478765300,6.213765380859375,8.82079128920138,0.22543664884865283,-2.117696795110404
1772619592488796200,6.223796142578125,8.658235167157649,0.2985638443797827,-2.2342130505129694
1772619592498828300,6.233828369140625,8.330051845061778,0.4004356344886124,-2.0971888446107507
1772619592508859400,6.243859375,7.915397277215122,0.5572609577953815,-1.8641519498914478
1772619592518890500,6.253890380859375,7.475744461712241,0.7604531877405941,-1.5221725960247219
1772619592528921300,6.26392138671875,6.845442817625403,1.02189273173213,-1.2226309926539658
1772619592538952400,6.273952392578125,6.159653095072508,1.3027967085197567,-1.0204989392861723
1772619592548983300,6.2839833984375,5.637061884120106,1.5935536785408853,-0.9073665541682392
1772619592559014400,6.294014404296875,5.4330561458349225,1.8430489561080932,-0.7684948937684297
1772619592569045200,6.304045166015625,5.195859501087665,1.8207886089831589,-0.2828229621514678
1772619592579076400,6.314076416015625,4.480634425213933,1.457270646394789,0.662219242677465
1772619592589107200,6.324107177734375,3.1750843263328075,1.2735191761091351,1.5720532098725437
1772619592599138300,6.33413818359375,1.551024742630124,1.5154507404237985,2.3779626191474494
1772619592609169200,6.344169189453125,-0.1640992598325014,1.788937718953192,3.125688427262008
1772619592619200300,6.3542001953125,-1.7762106315881012,1.778768207116425,3.587963701200485
1772619592629231000,6.364231201171875,-3.113097533497214,1.6685303013309836,3.3841400414839384
1772619592639262200,6.37426220703125,-4.321719874542952,1.6081065200284121,3.1769018971487877
1772619592649293300,6.384293212890625,-5.900868303373455,1.6575290148451924,3.2792581097736955
1772619592659325400,6.394325439453125,-8.030276286804675,2.029196966141462,3.334121042078733
1772619592669356300,6.404356201171875,-9.444036585035919,2.837211677132547,3.444841470684111
1772619592679387400,6.414387451171875,-9.156803697487712,3.4034733952462672,3.6180557648643847
1772619592689418800,6.424418701171875,-7.74624599469006,3.0716482095167037,3.506927339980006
1772619592699449900,6.434449951171875,-6.767376996648311,2.211018637408316,2.7067268098711965
1772619592709480700,6.444480712890625,-7.117619590339064,1.4072949016094207,1.421963332300633
1772619592719511800,6.45451171875,-8.488086105766891,0.865802883093059,0.43435324779003853
1772619592729542700,6.464542724609375,-9.543258006766438,0.5337229919500649,-0.08110590105904265
1772619592739573800,6.47457373046875,-9.228828484734892,0.2589773916617036,-0.48454373130463063
1772619592749604600,6.4846044921875,-7.268650694283843,0.047279491438716646,-0.9425119556989521
1772619592759636000,6.494635986328125,-4.234516807386279,-0.11490341337844728,-1.3839756930813192
1772619592769666800,6.504666748046875,-1.1115449456065893,-0.3430243328750133,-1.754051114489138
1772619592779698000,6.514697998046875,1.40750123783648,-0.7263285075597464,-2.193928240267187
1772619592789728800,6.524728759765625,3.080278967478871,-1.1600737064540385,-2.5817507691591977
1772619592799760000,6.534759765625,3.876164556998014,-1.498652604227513,-2.818471905349195
1772619592809791000,6.544791015625,4.10396384332478,-1.6747442074097691,-2.9086592490136622
1772619592819822800,6.55482275390625,4.080269079482555,-1.6278800187736748,-2.7428227901250124
1772619592829853700,6.564853759765625,3.915380715098977,-1.4101961760088801,-2.2861380296699703
1772619592839884800,6.574884765625,3.754720197543502,-1.1522115947768092,-1.8803838305070995
1772619592849915600,6.58491552734375,3.725961720570922,-0.9939916022412478,-1.5702891228094695
1772619592859946800,6.59494677734375,3.754591018205881,-1.027739338868484,-1.3918942111209034
1772619592869977600,6.6049775390625,3.758337218996882,-1.1997639848727732,-1.420875829324871
1772619592880008700,6.6150087890625,3.726181500801444,-1.4644908069066702,-1.5954392000265418
1772619592890039800,6.625039794921875,3.756470256081223,-1.6752806523740291,-1.9142067512623964
1772619592900071000,6.63507080078125,3.899603884774446,-1.8238569105125964,-2.2346479347988963
1772619592910102000,6.64510205078125,4.029937653127313,-1.9885235949695108,-2.4787486598461865
1772619592920132900,6.6551328125,4.123357110580802,-2.042603267942369,-2.6929481676265596
1772619592930164000,6.6651640625,4.2672073631107805,-2.0288532672703266,-2.795261417892575
1772619592940194800,6.67519482421875,4.399060303854942,-1.9654504701569675,-2.7741712835907935
1772619592950226000,6.685225830078125,4.483368234091997,-1.8081306413315235,-2.6293893031686544
1772619592960256800,6.6952568359375,4.040845416110754,-1.5975452323950827,-2.3871675237357617
1772619592970287900,6.705287841796875,2.9015602306634185,-1.4098594914004206,-2.021001969248056
1772619592980319700,6.71531982421875,1.2017828504145145,-1.135926814930141,-1.638520509123057
1772619592990350800,6.725350830078125,-1.1294856759667395,-0.7509143750227988,-1.1627497937954963
1772619593000381700,6.735381591796875,-3.7088042495429514,-0.26425774321742357,-0.5768813118055462
1772619593010413000,6.7454130859375,-6.274460792991519,0.21030936847403645,0.1388799167715013
1772619593020444000,6.75544384765625,-8.776237277203798,0.5152532692797481,0.8489007020004093
1772619593030475000,6.76547509765625,-10.968854873263835,0.6143259301893412,1.4239355091564356
1772619593040505900,6.775505859375,-12.518819877707957,0.4252353638980537,1.882857088752836
1772619593050537000,6.785536865234375,-13.07706633940935,0.3415861898306757,2.1376620170354843
1772619593060567800,6.79556787109375,-12.254066532993315,0.6553984567467123,1.919833212842047
1772619593070599000,6.805598876953125,-10.71759229376316,0.7227521834429353,1.2400262179605661
1772619593080629800,6.815629638671875,-9.269418853798507,0.23583748522326348,0.5916648933090269
1772619593090660900,6.825660888671875,-8.764403047025203,-0.6946755512546747,0.5185606402620673
1772619593100691700,6.835691650390625,-9.582709142667055,-1.426360252085328,0.14460238607153295
1772619593110722800,6.845722900390625,-10.379427675879,-1.304681791613996,-1.189104716757685
1772619593120753700,6.855753662109375,-9.10042656122744,-0.951243470621854,-2.0537512694224715
1772619593130784800,6.86578466796875,-6.058417995432019,-0.5942424887120723,-2.310531004909426
1772619593140817000,6.87581689453125,-2.9406378570765255,-0.3172400494076311,-2.2281838533513247
1772619593150848000,6.885847900390625,-0.5158826532244682,-0.2908510780453682,-2.1898373176917434
1772619593160878800,6.89587890625,1.2768009742587805,0.08975611264035105,-2.3371549540713428
1772619593170910000,6.905909912109375,2.4190964474380015,0.3334999505413696,-1.9751053104698657
1772619593180940800,6.91594091796875,2.872885340321064,0.2588630628333427,-1.3269091132521629
1772619593190972000,6.925971923828125,2.3559657452642915,0.2873960787532851,-0.3880389481216669
1772619593201002800,6.936002685546875,0.8992617928415536,0.7208807635478675,0.8447986735090612
1772619593211033900,6.946033935546875,-0.7877046211510896,1.5254505947820842,1.8233803790420293
1772619593221064700,6.956064697265625,-1.785737753868103,2.2807541446745394,2.446727381685376
1772619593231095800,6.966095703125,-2.0440093353480098,2.5097359187841413,2.7638541799768803
1772619593241126700,6.976126708984375,-1.659998912090063,2.2029437597632406,2.538776427568495
1772619593251157800,6.98615771484375,-0.6582248392790555,1.714313562862575,1.5958713078334927
1772619593261188900,6.99618896484375,0.9124071056187152,1.0884917676035315,0.3921460911795497
1772619593271219700,7.0062197265625,2.7499446048289538,0.2929738058203831,-0.574733193860948
1772619593281250800,7.016250732421875,4.8205730670332905,-0.40366709069050843,-1.2498565609708427
1772619593291283000,7.026282958984375,7.351226686161756,-0.96808266948089,-1.3934344263002276
1772619593301313800,7.036313720703125,9.476983161348103,-1.5333981927856801,-0.9628484220892191
1772619593311345000,7.046344970703125,10.008417603969573,-1.8132210963383315,-1.2153802908733486
1772619593321375700,7.056375732421875,10.133442159998417,-1.4875965188145637,-1.5764701495319604
1772619593331406800,7.06640673828125,9.85224855261445,-1.299334877628088,-1.1123369727671146
1772619593341437700,7.076437744140625,9.052997286054492,-1.140798220358789,-0.5514034639388322
1772619593351468800,7.08646875,8.08925512999594,-0.7724969690166413,-0.3882373933032155
1772619593361500000,7.0965,6.8147834754675625,-0.49113691902458667,-0.16212883654236793
1772619593371530800,7.10653076171875,5.3239872838288544,0.0628946649281308,0.45020811178684234
1772619593381561900,7.116561767578125,4.044318060657382,0.5860660138560458,0.8428387716129422
1772619593391592700,7.1265927734375,3.016574264809489,0.7371588213928043,0.8317093287028372
1772619593401623800,7.136623779296875,2.3587726193785667,0.8948219106979668,0.7119536529876291
1772619593411654700,7.146654541015625,2.1993021883904933,1.2449223194390535,0.2996079466052353
1772619593421686000,7.15668603515625,2.5919658737033604,1.4024670430615545,-0.050188364622741934
1772619593431716900,7.166716796875,3.4923026023000476,1.3339134390562772,0.005385054039210081
1772619593441748700,7.176748779296875,4.222531186038255,1.1557505825579166,0.12558306669443844
1772619593451779800,7.18677978515625,4.318656979840994,1.0872894791416823,-0.2195570892907679
1772619593461811000,7.19681103515625,3.876535728397965,1.0833394263416527,-0.5850549736499786
1772619593471841800,7.206841796875,3.188490335872769,0.8865646622233092,-0.5309023815713823
1772619593481873000,7.216872802734375,2.4773405466139313,0.6964591467358171,-0.2836879084177315
1772619593491903700,7.22690380859375,1.5893255394518375,0.450483859988302,-0.04311623427942395
1772619593501934800,7.236934814453125,0.7928273709923028,0.18948197676166892,-0.024563801761716603
1772619593511965700,7.246965576171875,0.42861236605048175,-0.09857026434540749,-0.19828122315853833
1772619593521996800,7.256996826171875,0.31036417228877544,-0.37319764508157965,-0.2979077185586095
1772619593532027600,7.267027587890625,0.25384499720931053,-0.5254761187389493,-0.04474237417653203
1772619593542058800,7.277058837890625,0.01680208171904087,-0.4182511310338974,0.5350415272027254
1772619593552089900,7.28708984375,-0.7589917368859053,-0.06515431695580481,1.0428652310036122
1772619593562121000,7.297120849609375,-1.8352748149752616,0.3396373207852244,1.4406763622075318
1772619593572151800,7.30715185546875,-2.3739035530149937,0.5390338117092848,1.7779082292862236
1772619593582183000,7.317182861328125,-2.4541028788894415,0.2738943902865052,1.9572392527811229
1772619593592213800,7.3272138671875,-2.6209260107278824,-0.6175187348812818,1.7918018762126564
1772619593602246000,7.337245849609375,-3.6989211534321305,-1.5579332068443297,1.5607997021913527
1772619593612276700,7.34727685546875,-5.902772091168165,-1.6294187726482747,1.3332000300899147
1772619593622307800,7.357307861328125,-8.721361193156241,-0.7645119616121053,0.9918816243499516
1772619593632338700,7.367338623046875,-11.655790843242405,0.3403521910563111,0.9713753543507307
1772619593642369800,7.377369873046875,-13.970187729799747,1.4323951483353972,1.2686281891971827
1772619593652400600,7.387400634765625,-15.019287617409228,2.290909627985954,1.3957359812408685
1772619593662431700,7.397431640625,-14.414603229659795,2.557631934686005,1.140994035191834
1772619593672462600,7.407462646484375,-12.449840449506043,1.9812375296145677,0.45640966984070835
1772619593682494000,7.417493896484375,-9.719296710717677,0.8738390361629426,-0.45934970534797753
1772619593692524500,7.427524658203125,-6.745405403336882,-0.23268413575887678,-1.4171234910540282
1772619593702555400,7.437555419921875,-3.805594644734263,-1.2727823862671852,-2.2003375227876005
1772619593712586500,7.44758642578125,-1.34239368263185,-1.998298262269795,-2.4614640553072094
1772619593722617300,7.457617431640625,0.05688040960729122,-2.241539740139246,-2.283006307515502
1772619593732648400,7.4676484375,0.6449398257702589,-2.071169437213242,-1.9814898969404398
1772619593742679300,7.47767919921875,0.927737945741415,-1.6342312874965368,-1.396872876316309
1772619593752710400,7.48771044921875,1.1600906575888394,-0.964123410461098,-0.6221820505172014
1772619593762742300,7.4977421875,1.3475743001401423,-0.3166368228174746,0.005646116128191351
1772619593772773400,7.5077734375,1.4704478156149388,0.06814794581383467,0.35563853445015847
1772619593782804200,7.51780419921875,1.580180109965801,0.2675013282485306,0.38061888112351294
1772619593792835300,7.52783544921875,1.8088678695648908,0.2843744293771684,0.17699103624001145
1772619593802866200,7.5378662109375,2.2357366068184374,0.20510785430818795,-0.17127930752970277
1772619593812897300,7.547897216796875,2.855829576101899,0.13497180341705678,-0.5102308380078524
1772619593822928400,7.557928466796875,3.3877094244033095,0.03164572284668684,-0.826046992092207
1772619593832959500,7.56795947265625,3.6879029158115384,-0.0671200640708208,-1.1251561953950673
1772619593842990300,7.577990234375,3.5865275309175253,-0.15611381403654812,-1.2838538153797387
1772619593853021400,7.588021484375,3.002866641974449,-0.29102175843715666,-1.2884914120525122
1772619593863052300,7.59805224609375,2.357884146106243,-0.252557295486331,-1.1973920681096613
1772619593873083400,7.60808349609375,1.94756965329051,-0.11293956595957279,-0.9015902357891201
1772619593883114200,7.6181142578125,1.9153864625662564,-0.07881605482250452,-0.25824283030945805
1772619593893145300,7.628145263671875,2.2092975127041337,-0.13835896163731812,0.49415250398609784
1772619593903177200,7.63817724609375,2.730360783436894,-0.24000264207869768,0.9183804809398949
1772619593913208300,7.648208251953125,3.1833494658529755,-0.3612219606056809,0.9001739392504096
1772619593923239200,7.6582392578125,3.500032319769263,-0.5221379142269492,0.46628429038412866
1772619593933270300,7.668270263671875,3.419980877932906,-0.5337120321646333,-0.19661577416434883
1772619593943301000,7.678301025390625,2.728328400826454,-0.32495763804763556,-0.9386515539437532
1772619593953332500,7.68833251953125,1.608975996339321,0.004512801249325275,-1.3475365984782577
1772619593963363300,7.69836328125,0.437110729804635,0.306067936399579,-1.4261509932488203
1772619593973394400,7.70839453125,-0.5957236671805382,0.5972893090620637,-1.309204529735446
1772619593983425300,7.71842529296875,-1.3052537462830542,0.9902066768750548,-0.8967300093416124
1772619593993456400,7.728456298828125,-1.5835364346563816,1.3825617346301673,-0.3228429839812219
1772619594003487200,7.7384873046875,-1.5368606081992386,1.6481322409465908,0.26587394624240696
1772619594013518300,7.748518310546875,-1.1941349660098552,1.6746525836035608,0.6581734013527631
1772619594023549400,7.758549560546875,-0.5775596494585276,1.5109431998714804,0.8676990721032023
1772619594033580300,7.768580322265625,0.0649064796745777,1.1559560420021413,0.773146665097028
1772619594043611400,7.778611328125,0.6981868473112582,0.6151508367061614,0.4684137036282569
1772619594053642200,7.788642333984375,1.300231534206867,0.0535568181425333,0.055865533476322886
1772619594063674000,7.798674072265625,1.7089999666243791,-0.5163578695207834,-0.3265538942631334
1772619594073705500,7.80870556640625,1.8869003727942704,-0.9520487956553697,-0.614849880998209
1772619594083736300,7.818736328125,1.9478525618851183,-1.0904977736636996,-0.7768010228861123
1772619594093767400,7.828767333984375,1.7632932823479175,-0.9946332611456513,-0.6773118901301175
1772619594103798300,7.83879833984375,1.4292857841432094,-0.7476210325658321,-0.3630632045581937
1772619594113829400,7.848829345703125,0.9588637363672255,-0.3660197162762284,-0.01901164752729237
1772619594123860500,7.858860595703125,0.4227905280292034,0.03772971893548965,0.23917883154042063
1772619594133891300,7.868891357421875,-0.056952890321612354,0.3192310770943761,0.4324404729712754
1772619594143922400,7.87892236328125,-0.5566869572997093,0.5767305051580071,0.4940069215029478
1772619594153953300,7.888953369140625,-0.4753530744373798,0.6740142368242145,0.7570533892344683
1772619594163984400,7.898984375,-0.24805881502330301,0.6171843883603811,0.9583307254690676
1772619594174015200,7.90901513671875,0.270030408334732,0.45896980265229936,0.7515515769477933
1772619594184046300,7.91904638671875,0.8072814282804727,0.06463292343020438,0.640764001390338
1772619594194077200,7.9290771484375,1.0647276648521422,-0.39369653549194333,0.40676366846635936
1772619594204108300,7.9391083984375,0.9298544995039701,-0.5164437942385673,0.07771532703898847
1772619594214140400,7.949140380859375,0.4603086500406265,-0.3731467916771769,-0.10432451702319084
