time,seconds_elapsed,z,y,x
1772619586339761700,0.07476171875,0.11483531445264816,-0.10379880666732788,0.5740976929664612
1772619586349792800,0.084792724609375,0.13089711964130402,0.12077464163303375,0.46634915471076965
1772619586359823600,0.09482373046875,0.15162886679172516,0.3132287561893463,0.3459712266921997
1772619586369855000,0.10485498046875,0.1688975989818573,0.42258134484291077,0.22912131249904633
1772619586379885800,0.1148857421875,0.1805829256772995,0.4479161202907562,0.13034820556640625
1772619586389917000,0.1249169921875,0.19314293563365936,0.4265218675136566,0.0928620770573616
1772619586399947800,0.13494775390625,0.19598345458507538,0.3883078992366791,0.11269570887088776
1772619586409980000,0.14497998046875,0.21017038822174072,0.3401459753513336,0.15305112302303314
1772619586420010800,0.1550107421875,0.2454025000333786,0.2916896343231201,0.206919863820076
1772619586430041900,0.165041748046875,0.29015052318573,0.24305683374404907,0.2895931601524353
1772619586440072700,0.17507275390625,0.32183903455734253,0.2396436184644699,0.37915095686912537
1772619586450103800,0.185103759765625,0.3176133930683136,0.30579042434692383,0.45711657404899597
1772619586460134700,0.195134765625,0.2930150330066681,0.41367384791374207,0.5094626545906067
1772619586470165800,0.205165771484375,0.24386824667453766,0.5621464252471924,0.5288744568824768
1772619586480196600,0.215196533203125,0.1842653900384903,0.6989871263504028,0.4979865849018097
1772619586490227700,0.225227783203125,0.12911878526210785,0.7474132776260376,0.42573100328445435
1772619586500258800,0.2352587890625,0.09808816760778427,0.7278875112533569,0.32607579231262207
1772619586510290000,0.2452900390625,0.08819638192653656,0.7063907384872437,0.2113417536020279
1772619586520320800,0.25532080078125,0.09866881370544434,0.6882739663124084,0.11243852227926254
1772619586530351900,0.265351806640625,0.14884117245674133,0.6349721550941467,0.04564005881547928
1772619586540383000,0.275383056640625,0.25148651003837585,0.5410230755805969,0.01142304390668869
1772619586550413800,0.285413818359375,0.3881852328777313,0.4230663478374481,0.0006705319974571466
1772619586560445000,0.29544482421875,0.48881658911705017,0.32409870624542236,0.01910562627017498
1772619586570475800,0.305475830078125,0.514476478099823,0.2559521496295929,0.04953623563051224
1772619586580507000,0.3155068359375,0.4673732817173004,0.23397178947925568,0.09292642027139664
1772619586590537700,0.325537841796875,0.4129454493522644,0.305875301361084,0.148382768034935
1772619586600568800,0.33556884765625,0.3952389657497406,0.4751659035682678,0.20357725024223328
1772619586610600700,0.3456005859375,0.4144592583179474,0.6126224994659424,0.23855175077915192
1772619586620631800,0.3556318359375,0.44386136531829834,0.6188562512397766,0.2432902753353119
1772619586630663000,0.365662841796875,0.4509802758693695,0.4793151319026947,0.20599058270454407
1772619586640694000,0.375694091796875,0.3711687922477722,0.23337647318840027,0.10798411816358566
1772619586650724900,0.385724853515625,0.2101876139640808,-0.07306655496358871,-0.0540148988366127
1772619586660756000,0.395755859375,0.06807007640600204,-0.33521604537963867,-0.22927051782608032
1772619586670786800,0.405786865234375,0.024918612092733383,-0.41444268822669983,-0.35411950945854187
1772619586680818000,0.41581787109375,0.06494730710983276,-0.2598745822906494,-0.45401498675346375
1772619586690848800,0.425848876953125,0.16808141767978668,-0.14450272917747498,-0.4751812815666199
1772619586700880000,0.4358798828125,0.2535044550895691,-0.041530776768922806,-0.401496946811676
1772619586710910700,0.44591064453125,0.3000783622264862,0.0403776690363884,-0.29324451088905334
1772619586720941800,0.45594189453125,0.32752928137779236,0.1040029525756836,-0.17886663973331451
1772619586730972700,0.46597265625,0.3451423645019531,0.21794869005680084,-0.0693737044930458
1772619586741003800,0.476003662109375,0.368243008852005,0.3655956983566284,-0.00015190779231488705
1772619586751034600,0.48603466796875,0.3910956084728241,0.4744396209716797,-0.003495772834867239
1772619586761065700,0.496065673828125,0.3933948278427124,0.4783155918121338,-0.07931795716285706
1772619586771096800,0.506096923828125,0.3604440689086914,0.34502702951431274,-0.22688159346580505
1772619586781128000,0.5161279296875,0.28367775678634644,0.138745978474617,-0.4274272918701172
1772619586791159000,0.526158935546875,0.19202373921871185,-0.08512040227651596,-0.6239827275276184
1772619586801190000,0.53618994140625,0.11000116169452667,-0.26896563172340393,-0.786262571811676
1772619586811221000,0.546220947265625,0.05612780526280403,-0.38506001234054565,-0.8790883421897888
1772619586821252900,0.5562529296875,0.02307914011180401,-0.4293593764305115,-0.904829204082489
1772619586831283700,0.56628369140625,-0.009480400010943413,-0.455209881067276,-0.8667443990707397
1772619586841314800,0.576314697265625,-0.03920644149184227,-0.46759432554244995,-0.7528385519981384
1772619586851345700,0.586345703125,-0.07316361367702484,-0.42305004596710205,-0.580652117729187
1772619586861376800,0.596376708984375,-0.12461230158805847,-0.29622846841812134,-0.3993133306503296
1772619586871407900,0.606407958984375,-0.20070068538188934,-0.1380516141653061,-0.2816689908504486
1772619586881438700,0.616438720703125,-0.2937372922897339,-0.027740884572267532,-0.24216270446777344
1772619586891469800,0.6264697265625,-0.3995894193649292,-0.011001316830515862,-0.2940613031387329
1772619586901500700,0.636500732421875,-0.5184505581855774,-0.03409598395228386,-0.3887484073638916
1772619586911532000,0.646531982421875,-0.5945988893508911,0.030735209584236145,-0.46395179629325867
1772619586921563000,0.65656298828125,-0.6066160202026367,0.1813066005706787,-0.5098499655723572
1772619586931594000,0.666593994140625,-0.5608266592025757,0.3466801345348358,-0.5487661957740784
1772619586941624800,0.676624755859375,-0.4755728542804718,0.4774531126022339,-0.5999796986579895
1772619586951656000,0.686656005859375,-0.38304558396339417,0.5106185078620911,-0.6415865421295166
1772619586961686800,0.696686767578125,-0.28054291009902954,0.4982026517391205,-0.5981903672218323
1772619586971718000,0.7067177734375,-0.13879108428955078,0.5189254879951477,-0.40988463163375854
1772619586981748700,0.716748779296875,0.04168308153748512,0.5909189581871033,-0.09782794117927551
1772619586991779800,0.72677978515625,0.24469691514968872,0.733576238155365,0.2607017159461975
1772619587001810700,0.736810791015625,0.432079553604126,0.8672072291374207,0.5722130537033081
1772619587011841800,0.746841796875,0.5529220700263977,0.802996039390564,0.7172024846076965
1772619587021873700,0.756873779296875,0.5334892868995667,0.4124048054218292,0.569163978099823
1772619587031904800,0.76690478515625,0.3194510042667389,-0.25455617904663086,0.09379666298627853
1772619587041936000,0.776935791015625,0.013598211109638214,-0.9601892828941345,-0.5806678533554077
1772619587051967000,0.786967041015625,-0.22005316615104675,-1.4577845335006714,-1.2092673778533936
1772619587061997800,0.796997802734375,-0.32187554240226746,-1.6253650188446045,-1.5777029991149902
1772619587072029000,0.80702880859375,-0.32615604996681213,-1.5162997245788574,-1.6149628162384033
1772619587082059800,0.817059814453125,-0.24147701263427734,-1.3132084608078003,-1.3900333642959595
1772619587092091000,0.8270908203125,-0.08286819607019424,-1.2205538749694824,-1.044569969177246
1772619587102121700,0.837121826171875,0.09589944034814835,-1.3185983896255493,-0.7189474105834961
1772619587112152800,0.84715283203125,0.25835493206977844,-1.5390607118606567,-0.4804706573486328
1772619587122183700,0.85718359375,0.3562556207180023,-1.710176944732666,-0.3542468845844269
1772619587132214800,0.86721484375,0.4112541675567627,-1.7289775609970093,-0.3020595908164978
1772619587142246000,0.877245849609375,0.4557579457759857,-1.549013614654541,-0.2476879358291626
1772619587152276700,0.88727685546875,0.48533767461776733,-1.2048602104187012,-0.1594238430261612
1772619587162307800,0.897307861328125,0.5096920728683472,-0.7498276233673096,-0.06420737504959106
1772619587172338700,0.907338623046875,0.5487058162689209,-0.22063972055912018,0.051927756518125534
1772619587182369800,0.917369873046875,0.6086893677711487,0.2697620093822479,0.17976492643356323
1772619587192401000,0.92740087890625,0.6641563177108765,0.6407312750816345,0.2902775704860687
1772619587202432000,0.937431884765625,0.687987744808197,0.8127914071083069,0.3393526077270508
1772619587212462800,0.947462890625,0.67745041847229,0.7795730233192444,0.3174355924129486
1772619587222494000,0.957493896484375,0.6354201436042786,0.5974656939506531,0.25845539569854736
1772619587232525800,0.96752587890625,0.5386397838592529,0.3845440745353699,0.21066072583198547
1772619587242557000,0.977556884765625,0.3915068507194519,0.19767819344997406,0.18711937963962555
1772619587252587800,0.987587890625,0.20581713318824768,0.023484554141759872,0.1807222068309784
1772619587262619000,0.997618896484375,0.02012205310165882,-0.1093553677201271,0.17809772491455078
1772619587272649700,1.007649658203125,-0.13881461322307587,-0.15482458472251892,0.1794724464416504
1772619587282680800,1.017680908203125,-0.27408847212791443,-0.08048689365386963,0.19108298420906067
1772619587292711700,1.027711669921875,-0.36747807264328003,0.07944471389055252,0.2242337465286255
1772619587302742800,1.03774267578125,-0.40607914328575134,0.2761721909046173,0.2858394384384155
1772619587312773600,1.047773681640625,-0.3984297513961792,0.4863467216491699,0.36519819498062134
1772619587322805000,1.057804931640625,-0.3502345085144043,0.7097622752189636,0.43821221590042114
1772619587332835800,1.0678359375,-0.2756790518760681,0.9059967398643494,0.4740578234195709
1772619587342867000,1.077866943359375,-0.21375960111618042,1.0263946056365967,0.43096211552619934
1772619587352897800,1.087897705078125,-0.17703062295913696,1.0178272724151611,0.28431010246276855
1772619587362929000,1.097928955078125,-0.16972526907920837,0.8515604734420776,0.05485531687736511
1772619587372959700,1.107959716796875,-0.20297271013259888,0.6172020435333252,-0.19247697293758392
1772619587382990800,1.117990966796875,-0.269664466381073,0.3575347065925598,-0.3744121193885803
1772619587393021700,1.128021728515625,-0.33573001623153687,0.06842031329870224,-0.41439732909202576
1772619587403052800,1.138052734375,-0.35119250416755676,-0.14722870290279388,-0.2560378909111023
1772619587413084000,1.148083984375,-0.2737259268760681,-0.07922035455703735,0.10220999270677567
1772619587423114800,1.15811474609375,-0.1424991637468338,0.3110252320766449,0.5451074838638306
1772619587433146600,1.168146728515625,0.01955658197402954,0.858355700969696,0.8780590891838074
1772619587443177700,1.178177734375,0.23251910507678986,1.0828368663787842,0.878879725933075
1772619587453208800,1.188208740234375,0.43512973189353943,0.8478965163230896,0.46269527077674866
1772619587463240000,1.198239990234375,0.48867323994636536,0.641515851020813,-0.2020719200372696
1772619587473270800,1.208270751953125,0.3155302107334137,0.3573259711265564,-1.0652602910995483
1772619587483302000,1.218302001953125,-0.022968193516135216,-0.07641452550888062,-1.9242281913757324
1772619587493332700,1.228332763671875,-0.46520259976387024,-0.578198254108429,-2.6238365173339844
1772619587503363800,1.23836376953125,-0.8384110927581787,-1.034397840499878,-3.0362167358398438
1772619587513395000,1.24839501953125,-0.9571326971054077,-1.263327717781067,-3.064354181289673
1772619587523425800,1.25842578125,-0.7627158761024475,-1.1924957036972046,-2.7153990268707275
1772619587533457000,1.268456787109375,-0.3152129352092743,-0.7154956459999084,-2.075315237045288
1772619587543487700,1.27848779296875,0.21702879667282104,-0.005031747277826071,-1.3255113363265991
1772619587553518800,1.288518798828125,0.6567079424858093,0.6792078614234924,-0.6461973190307617
1772619587563549700,1.2985498046875,0.9210900068283081,1.1333067417144775,-0.1549428403377533
1772619587573580800,1.308580810546875,1.0159575939178467,1.269478678703308,0.08759389817714691
1772619587583611600,1.318611572265625,0.9900928139686584,1.1375573873519897,0.1012209802865982
1772619587593642800,1.328642822265625,0.8798709511756897,0.8569828867912292,-0.03186677023768425
1772619587603673900,1.338673828125,0.704018235206604,0.5407523512840271,-0.20965442061424255
1772619587613705000,1.348705078125,0.5094665884971619,0.24154622852802277,-0.3684629797935486
1772619587623735800,1.35873583984375,0.30505529046058655,-0.050566524267196655,-0.4825175404548645
1772619587633767000,1.368766845703125,0.13270297646522522,-0.29730385541915894,-0.5342590808868408
1772619587643797800,1.3787978515625,-0.001385935116559267,-0.470367968082428,-0.513355016708374
1772619587653830000,1.388829833984375,-0.08785264939069748,-0.57034832239151,-0.42969709634780884
1772619587663860700,1.39886083984375,-0.12582027912139893,-0.5997978448867798,-0.29930660128593445
1772619587673891800,1.408891845703125,-0.11418280750513077,-0.5396426320075989,-0.13460581004619598
1772619587683922700,1.418922607421875,-0.06729887425899506,-0.4081343412399292,0.05072486028075218
1772619587693953800,1.428953857421875,-0.010364490561187267,-0.25513336062431335,0.23434369266033173
1772619587703984600,1.438984619140625,0.03696470335125923,-0.11042963713407516,0.38138851523399353
1772619587714015700,1.449015625,0.05863697826862335,-0.02801359072327614,0.4723631739616394
1772619587724046600,1.459046630859375,0.03922921419143677,-0.010601796209812164,0.49872174859046936
1772619587734077700,1.46907763671875,-0.005730535369366407,-0.048452772200107574,0.4941227436065674
1772619587744108800,1.47910888671875,-0.0585709810256958,-0.10590462386608124,0.5062648057937622
1772619587754139600,1.4891396484375,-0.10325989127159119,-0.15914706885814667,0.5540221929550171
1772619587764170800,1.499170654296875,-0.11923029273748398,-0.23100119829177856,0.6579440236091614
1772619587774201600,1.50920166015625,-0.07063505798578262,-0.2535605728626251,0.8621687889099121
1772619587784232700,1.519232666015625,0.03056693822145462,-0.19062338769435883,1.1466649770736694
1772619587794263600,1.529263671875,0.14159731566905975,-0.12811553478240967,1.4169760942459106
1772619587804294700,1.539294677734375,0.25131118297576904,-0.12407097220420837,1.5917974710464478
1772619587814325800,1.54932568359375,0.35086309909820557,-0.18291138112545013,1.653652310371399
1772619587824356900,1.55935693359375,0.41676825284957886,-0.22566239535808563,1.6348977088928223
1772619587834387700,1.5693876953125,0.44875815510749817,-0.23608866333961487,1.5493590831756592
1772619587844418800,1.579418701171875,0.4501075744628906,-0.17852500081062317,1.360578179359436
1772619587854449700,1.58944970703125,0.43874841928482056,-0.030364563688635826,1.050856590270996
1772619587864481800,1.599481689453125,0.41438737511634827,0.13837003707885742,0.6281586289405823
1772619587874512600,1.6095126953125,0.38691285252571106,0.1964826136827469,0.1422520875930786
1772619587884543700,1.619543701171875,0.32742124795913696,0.034225936979055405,-0.33186107873916626
1772619587894574600,1.62957470703125,0.20332032442092896,-0.3288936913013458,-0.7071918249130249
1772619587904605700,1.639605712890625,0.03334224969148636,-0.6414645314216614,-0.9245010614395142
1772619587914636500,1.649636474609375,-0.11696629226207733,-0.7075519561767578,-1.0135648250579834
1772619587924667600,1.659667724609375,-0.17929507791996002,-0.6266753077507019,-1.0502218008041382
1772619587934698500,1.669698486328125,-0.1520157903432846,-0.627410352230072,-1.0717216730117798
1772619587944729900,1.679729736328125,-0.08362982422113419,-0.7564477324485779,-1.0556421279907227
1772619587954760700,1.6897607421875,-0.030761554837226868,-0.9367501139640808,-0.9466687440872192
1772619587964791800,1.699791748046875,0.025441499426960945,-1.0808801651000977,-0.7685509324073792
1772619587974822700,1.70982275390625,0.08268401771783829,-1.1348464488983154,-0.5112925171852112
1772619587984853800,1.719853759765625,0.16910512745380402,-1.1147911548614502,-0.20322299003601074
1772619587994884600,1.729884521484375,0.30120646953582764,-1.0455915927886963,0.14900775253772736
1772619588004915700,1.739915771484375,0.4577327370643616,-0.9336442947387695,0.5282309055328369
1772619588014946800,1.74994677734375,0.603096604347229,-0.7452169060707092,0.9196934700012207
1772619588024977700,1.759977783203125,0.6951468586921692,-0.41649630665779114,1.2821651697158813
1772619588035008800,1.7700087890625,0.7413705587387085,0.020478110760450363,1.5539628267288208
1772619588045039600,1.78003955078125,0.7698611617088318,0.417834997177124,1.6650394201278687
1772619588055070700,1.79007080078125,0.7941414713859558,0.6291983127593994,1.6027199029922485
1772619588065101600,1.8001015625,0.8027429580688477,0.5551958680152893,1.3398040533065796
1772619588075133700,1.8101337890625,0.7647708058357239,0.30626562237739563,0.9675983190536499
1772619588085164800,1.820164794921875,0.6583808660507202,0.14813506603240967,0.6660082340240479
1772619588095195600,1.830195556640625,0.49138522148132324,0.07840632647275925,0.4561522305011749
1772619588105226800,1.840226806640625,0.28988754749298096,0.060760047286748886,0.2831667959690094
1772619588115257900,1.8502578125,0.06490477919578552,0.11714449524879456,0.1578456312417984
1772619588125288700,1.860288818359375,-0.17510274052619934,0.25071489810943604,0.07839179784059525
1772619588135319800,1.87031982421875,-0.38752683997154236,0.41857898235321045,0.03740255534648895
1772619588145350700,1.8803505859375,-0.5448790192604065,0.6218682527542114,0.03024515137076378
1772619588155381800,1.8903818359375,-0.6487671136856079,0.8317798972129822,0.06240149214863777
1772619588165412600,1.90041259765625,-0.7007984519004822,0.9892515540122986,0.08550562709569931
1772619588175443700,1.910443603515625,-0.7302240133285522,1.0813313722610474,0.08661457151174545
1772619588185474600,1.920474609375,-0.7363645434379578,1.089709758758545,0.02066788636147976
1772619588195505700,1.930505615234375,-0.7175053954124451,0.9930484294891357,-0.11339324712753296
1772619588205536500,1.94053662109375,-0.6876946091651917,0.7903484106063843,-0.291093111038208
1772619588215567600,1.950567626953125,-0.6642246842384338,0.4955085217952728,-0.47791197896003723
1772619588225598500,1.960598388671875,-0.6561556458473206,0.09228634834289551,-0.6363236904144287
1772619588235629800,1.9706298828125,-0.6811360716819763,-0.39772915840148926,-0.6807544827461243
1772619588245660700,1.98066064453125,-0.7223650813102722,-0.7593375444412231,-0.5464917421340942
1772619588255691800,1.99069189453125,-0.788659393787384,-0.9000600576400757,-0.2798326015472412
1772619588265722600,2.00072265625,-0.8863886594772339,-0.8727824687957764,0.04808672517538071
1772619588275753700,2.010753662109375,-0.9836539626121521,-0.6971043944358826,0.4416539967060089
1772619588285785600,2.02078564453125,-0.9621308445930481,-0.3193826377391815,0.8745311498641968
1772619588295816700,2.030816650390625,-0.7273883819580078,0.19487081468105316,1.2003276348114014
1772619588305847600,2.04084765625,-0.28907474875450134,0.7392833828926086,1.2997554540634155
1772619588315878700,2.050878662109375,0.23920638859272003,1.308060646057129,1.105828881263733
1772619588325909500,2.060909423828125,0.6259139776229858,1.8209037780761719,0.6536253690719604
1772619588335940600,2.070940673828125,0.7602400779724121,1.9719936847686768,0.000631295726634562
1772619588345971700,2.0809716796875,0.6340274214744568,1.5984752178192139,-0.7881688475608826
1772619588356002800,2.0910029296875,0.30123960971832275,0.8370108604431152,-1.5694215297698975
1772619588366034000,2.101033935546875,-0.12863072752952576,-0.05292442813515663,-2.1732897758483887
1772619588376064800,2.111064697265625,-0.5195335149765015,-0.8687005043029785,-2.438354253768921
1772619588386095900,2.121095947265625,-0.7527889013290405,-1.551125168800354,-2.337277412414551
1772619588396126700,2.131126708984375,-0.7744048237800598,-2.0174460411071777,-1.8813433647155762
1772619588406157800,2.14115771484375,-0.5474973320960999,-2.166666269302368,-1.1799758672714233
1772619588416188700,2.151188720703125,-0.14199884235858917,-1.9610790014266968,-0.3767054080963135
1772619588426219800,2.1612197265625,0.26559868454933167,-1.506970763206482,0.3633093535900116
1772619588436250600,2.171250732421875,0.586670994758606,-1.0015771389007568,0.8634698987007141
1772619588446281700,2.18128173828125,0.8017553687095642,-0.5308403968811035,1.0363044738769531
1772619588456312600,2.1913125,0.8720987439155579,-0.04201824218034744,0.9273886680603027
1772619588466343700,2.20134375,0.7923595309257507,0.4403717815876007,0.6027127504348755
1772619588476374500,2.21137451171875,0.637658953666687,0.8965536952018738,0.17007209360599518
1772619588486405600,2.221405517578125,0.4499299228191376,1.2913150787353516,-0.2573022246360779
1772619588496437800,2.231437744140625,0.2706637680530548,1.553556203842163,-0.6161711812019348
1772619588506468900,2.24146875,0.12532131373882294,1.655031681060791,-0.8581184148788452
1772619588516499700,2.251499755859375,0.010571299120783806,1.60847008228302,-0.9769608974456787
1772619588526530800,2.26153076171875,-0.08632154017686844,1.4380009174346924,-0.983252227306366
1772619588536561700,2.271561767578125,-0.18339669704437256,1.155835509300232,-0.9222397208213806
1772619588546592800,2.2815927734375,-0.30721724033355713,0.8100859522819519,-0.8125941157341003
1772619588556623600,2.29162353515625,-0.44128742814064026,0.40818196535110474,-0.6766341328620911
1772619588566654700,2.30165478515625,-0.5607146620750427,0.011715712957084179,-0.4872637987136841
1772619588576685600,2.311685546875,-0.6524251699447632,-0.30638235807418823,-0.2546289563179016
1772619588586716700,2.321716552734375,-0.7009288668632507,-0.5321381688117981,0.028780492022633553
1772619588596747500,2.33174755859375,-0.7373313903808594,-0.6402521729469299,0.3352440297603607
1772619588606778600,2.341778564453125,-0.742371141910553,-0.615414023399353,0.6261123418807983
1772619588616809700,2.351809814453125,-0.715763509273529,-0.4802497625350952,0.8651331663131714
1772619588626840600,2.361840576171875,-0.6638664603233337,-0.3150046169757843,0.9738678932189941
1772619588636871700,2.37187158203125,-0.5733101963996887,-0.12074138969182968,0.9715283513069153
1772619588646902800,2.38190283203125,-0.4622405767440796,0.1713324934244156,0.9231830835342407
1772619588656934000,2.391933837890625,-0.32997363805770874,0.5289441347122192,0.8752648234367371
1772619588666964700,2.40196484375,-0.1654861569404602,0.8960015177726746,0.8619458079338074
1772619588676995800,2.411995849609375,0.0034237666986882687,1.1765320301055908,0.8541100025177002
1772619588687026200,2.422026123046875,0.1594168245792389,1.3098722696304321,0.8476355671882629
1772619588697058300,2.432058349609375,0.3251695930957794,1.3240679502487183,0.8673115372657776
1772619588707089200,2.442089111328125,0.5095232129096985,1.226300597190857,0.9324146509170532
1772619588717120300,2.452120361328125,0.669537365436554,0.9561392068862915,0.9938327074050903
1772619588727151000,2.462151123046875,0.7823664546012878,0.5783104300498962,1.0172983407974243
1772619588737182200,2.47218212890625,0.8631901741027832,0.17721572518348694,0.9664540886878967
1772619588747213000,2.482213134765625,0.9120210409164429,-0.25563275814056396,0.786729633808136
1772619588757244200,2.492244140625,0.9004623889923096,-0.7779582142829895,0.5182004570960999
1772619588767275000,2.50227490234375,0.7485390901565552,-1.3984843492507935,0.14134463667869568
1772619588777306000,2.51230615234375,0.4514229893684387,-2.0506815910339355,-0.3005281388759613
1772619588787337200,2.522337158203125,0.13876840472221375,-2.4991562366485596,-0.6218667030334473
1772619588797368300,2.532368408203125,-0.038143787533044815,-2.4999399185180664,-0.6845460534095764
1772619588807399200,2.542399169921875,-0.046949394047260284,-2.1367249488830566,-0.5665761828422546
1772619588817430300,2.55243017578125,0.07454828172922134,-1.6658201217651367,-0.4017273187637329
1772619588827461000,2.562461181640625,0.24106374382972717,-1.3227286338806152,-0.2848270535469055
1772619588837492200,2.5724921875,0.37981951236724854,-1.15403413772583,-0.2441405951976776
1772619588847523300,2.5825234375,0.4408569633960724,-1.0255811214447021,-0.29283058643341064
1772619588857554200,2.59255419921875,0.42822080850601196,-0.8553668260574341,-0.4147069752216339
1772619588867585300,2.602585205078125,0.3877815902233124,-0.6299585103988647,-0.5497828722000122
1772619588877616000,2.6126162109375,0.33509361743927,-0.37064093351364136,-0.6229154467582703
1772619588887647200,2.622647216796875,0.2913280725479126,-0.10840658843517303,-0.6319310665130615
1772619588897679000,2.63267919921875,0.2513068914413452,0.12633535265922546,-0.5726892948150635
1772619588907710000,2.6427099609375,0.23876743018627167,0.3416919708251953,-0.4660755395889282
1772619588917741300,2.6527412109375,0.2727714776992798,0.5340126752853394,-0.32888492941856384
1772619588927772200,2.662772216796875,0.3463955819606781,0.7020339965820312,-0.185044065117836
1772619588937803300,2.67280322265625,0.43925175070762634,0.8332620859146118,-0.050566665828228
1772619588947834400,2.68283447265625,0.5136407017707825,0.8751140832901001,0.05182314291596413
1772619588957865200,2.692865234375,0.5609650611877441,0.8201461434364319,0.12734639644622803
1772619588967896300,2.702896240234375,0.5740405917167664,0.6952407956123352,0.17258882522583008
1772619588977927200,2.71292724609375,0.5428123474121094,0.5375363826751709,0.1975112110376358
1772619588987958300,2.722958251953125,0.4643843173980713,0.3796151280403137,0.22066661715507507
1772619588997989000,2.732989013671875,0.3242626488208771,0.23984871804714203,0.22355934977531433
1772619589008020200,2.743020263671875,0.12938711047172546,0.11778553575277328,0.17141497135162354
1772619589018051000,2.753051025390625,-0.08468177169561386,0.04918037727475166,0.0757872462272644
1772619589028082200,2.763082275390625,-0.28857535123825073,0.08223477005958557,-0.03817036747932434
1772619589038113000,2.773113037109375,-0.46919679641723633,0.23410525918006897,-0.14103470742702484
1772619589048144100,2.78314404296875,-0.6190557479858398,0.47228431701660156,-0.21033895015716553
1772619589058175000,2.793175048828125,-0.731574296951294,0.7544493675231934,-0.24201379716396332
1772619589068206000,2.8032060546875,-0.8029462099075317,0.9827131032943726,-0.2540542781352997
1772619589078237200,2.8132373046875,-0.8375632762908936,1.0642225742340088,-0.24186204373836517
1772619589088268300,2.823268310546875,-0.8472835421562195,1.0387362241744995,-0.17650039494037628
1772619589098300200,2.833300048828125,-0.8181560039520264,1.0132218599319458,-0.02351483516395092
1772619589108331300,2.843331298828125,-0.7057660818099976,1.0091639757156372,0.19935952126979828
1772619589118362000,2.853362060546875,-0.4804786443710327,1.0623947381973267,0.47086775302886963
1772619589128393200,2.863393310546875,-0.13787664473056793,1.209708333015442,0.745267927646637
1772619589138424000,2.873424072265625,0.2502362132072449,1.4104124307632446,0.9882376790046692
1772619589148455200,2.883455078125,0.564150869846344,1.5615653991699219,1.1580016613006592
1772619589158486000,2.893486083984375,0.7888939380645752,1.5729434490203857,1.2627078294754028
1772619589168517000,2.90351708984375,0.9002757668495178,1.4242396354675293,1.2748851776123047
1772619589178548200,2.91354833984375,0.9136440753936768,1.1557247638702393,1.1938291788101196
1772619589188579000,2.9235791015625,0.8255426287651062,0.899721086025238,1.0164235830307007
1772619589198610400,2.9336103515625,0.6187545657157898,0.6552671790122986,0.6232978105545044
1772619589208641300,2.943641357421875,0.23465967178344727,0.18414686620235443,-0.11928791552782059
1772619589218672400,2.95367236328125,-0.33577263355255127,-0.6353898048400879,-1.1711667776107788
1772619589228703200,2.963703125,-0.9550252556800842,-1.6055914163589478,-2.22489333152771
1772619589238734300,2.973734375,-1.462445616722107,-2.4286811351776123,-2.9438440799713135
1772619589248765200,2.98376513671875,-1.657085657119751,-2.8372976779937744,-3.122734308242798
1772619589258796300,2.99379638671875,-1.3583498001098633,-2.6870474815368652,-2.6679983139038086
1772619589268827100,3.0038271484375,-0.6450947523117065,-2.021360397338867,-1.754589557647705
1772619589278858200,3.013858154296875,0.16055753827095032,-1.187359094619751,-0.7101419568061829
1772619589288889000,3.02388916015625,0.853626012802124,-0.16777920722961426,0.24407032132148743
1772619589298920200,3.033920166015625,1.3341175317764282,0.7635314464569092,0.9598249793052673
1772619589308952000,3.0439521484375,1.59892737865448,1.1818262338638306,1.259688377380371
1772619589318983200,3.053983154296875,1.7149099111557007,1.2385510206222534,1.1701624393463135
1772619589329014300,3.06401416015625,1.6404283046722412,1.1966906785964966,0.8795129060745239
1772619589339045400,3.07404541015625,1.4174647331237793,1.04356849193573,0.4575270116329193
1772619589349076200,3.084076171875,1.1351526975631714,0.7768299579620361,0.021413281559944153
1772619589359107300,3.094107421875,0.825693666934967,0.4770170748233795,-0.34587523341178894
1772619589369138200,3.10413818359375,0.501240074634552,0.22965700924396515,-0.5774675607681274
1772619589379169300,3.114169189453125,0.21482934057712555,0.0998590737581253,-0.6753304600715637
1772619589389200100,3.1242001953125,0.000372251495718956,0.05470985919237137,-0.6741979122161865
1772619589399231200,3.134231201171875,-0.14287491142749786,0.06406234204769135,-0.6060788035392761
1772619589409262000,3.144261962890625,-0.21443720161914825,0.12975016236305237,-0.48802649974823
1772619589419293200,3.154293212890625,-0.22965103387832642,0.24217364192008972,-0.34190046787261963
1772619589429324000,3.164323974609375,-0.204140305519104,0.3737969696521759,-0.18540728092193604
1772619589439355100,3.174355224609375,-0.1573014259338379,0.4845796823501587,-0.045084528625011444
1772619589449386200,3.18438623046875,-0.11237306147813797,0.5563804507255554,0.07754921168088913
1772619589459417000,3.1944169921875,-0.08546741306781769,0.5644255876541138,0.17297106981277466
1772619589469448200,3.2044482421875,-0.0810629203915596,0.5256692171096802,0.2326994687318802
1772619589479479000,3.21447900390625,-0.09761499613523483,0.4510785937309265,0.25833988189697266
1772619589489510400,3.224510498046875,-0.13640815019607544,0.3636111319065094,0.2677575647830963
1772619589499541200,3.234541259765625,-0.20077621936798096,0.2594943046569824,0.2751515805721283
1772619589509573000,3.244572998046875,-0.2688264548778534,0.10571104288101196,0.28108036518096924
1772619589519604200,3.254604248046875,-0.319667249917984,-0.10238436609506607,0.2967855632305145
1772619589529635000,3.264635009765625,-0.31057849526405334,-0.2947670817375183,0.3603273332118988
1772619589539666200,3.274666259765625,-0.22126488387584686,-0.3937796950340271,0.4707116186618805
1772619589549697300,3.284697265625,-0.008798995986580849,-0.34438556432724,0.6362777352333069
1772619589559728000,3.29472802734375,0.2853522002696991,-0.19671007990837097,0.8329550623893738
1772619589569759200,3.30475927734375,0.5365025997161865,-0.06517410278320312,0.975684642791748
1772619589579790000,3.3147900390625,0.6960552334785461,0.015049096196889877,1.0223957300186157
1772619589589821200,3.3248212890625,0.7722472548484802,0.04375765100121498,0.9495483040809631
1772619589599852000,3.33485205078125,0.7760462760925293,-0.05387037247419357,0.7206277251243591
1772619589609883400,3.34488330078125,0.653904378414154,-0.3998664617538452,0.3311580419540405
1772619589619914200,3.354914306640625,0.3646661937236786,-1.0965211391448975,-0.11666792631149292
1772619589629945300,3.3649453125,-0.01566646620631218,-1.8052353858947754,-0.4808003902435303
1772619589639976200,3.37497607421875,-0.3676695227622986,-2.1048905849456787,-0.692058801651001
1772619589650007300,3.38500732421875,-0.5732821822166443,-1.889146089553833,-0.7798919081687927
1772619589660038100,3.3950380859375,-0.623897135257721,-1.4314358234405518,-0.8008408546447754
1772619589670069200,3.4050693359375,-0.5743426084518433,-1.0365386009216309,-0.8018696904182434
1772619589680100000,3.41510009765625,-0.4748128056526184,-0.8066893815994263,-0.7601177096366882
1772619589690132700,3.4251328125,-0.35950496792793274,-0.7124302387237549,-0.6624560356140137
1772619589700163600,3.43516357421875,-0.25775572657585144,-0.7888003587722778,-0.5059931874275208
1772619589710194700,3.445194580078125,-0.16933372616767883,-0.9911522269248962,-0.30158567428588867
1772619589720225500,3.4552255859375,-0.10954231023788452,-1.2129677534103394,-0.04844103008508682
1772619589730256600,3.465256591796875,-0.05251365900039673,-1.359308123588562,0.246206596493721
1772619589740287500,3.47528759765625,0.023080965504050255,-1.373059630393982,0.561789870262146
1772619589750318600,3.485318603515625,0.11628185212612152,-1.2040376663208008,0.8686873912811279
1772619589760349400,3.495349365234375,0.21374423801898956,-0.8865954875946045,1.146268606185913
1772619589770380500,3.505380615234375,0.3083633780479431,-0.5313555002212524,1.333423376083374
1772619589780411400,3.515411376953125,0.3770521581172943,-0.21910275518894196,1.3892171382904053
1772619589790442500,3.5254423828125,0.38792961835861206,-0.01668727956712246,1.2839871644973755
1772619589800473300,3.535473388671875,0.34699735045433044,0.02734862081706524,1.024253249168396
1772619589810504700,3.545504638671875,0.28237491846084595,-0.02001013606786728,0.711469292640686
1772619589820535600,3.55553564453125,0.18590697646141052,-0.08379071205854416,0.4318733215332031
1772619589830566700,3.565566650390625,0.08767792582511902,-0.16763384640216827,0.2651210427284241
1772619589840597500,3.575597412109375,-0.061929408460855484,-0.0679197758436203,0.1474495381116867
1772619589850628600,3.585628662109375,-0.24274949729442596,0.0529254674911499,0.07457023859024048
1772619589860659700,3.59565966796875,-0.4477231502532959,0.1301075965166092,0.027098065242171288
1772619589870690600,3.605690673828125,-0.6113986372947693,0.2549211382865906,0.029659250751137733
1772619589880721700,3.6157216796875,-0.723422110080719,0.4660078287124634,0.10411777347326279
1772619589890753500,3.62575341796875,-0.7942720055580139,0.7576722502708435,0.21314725279808044
1772619589900784400,3.635784423828125,-0.8240315318107605,1.067808747291565,0.3079744279384613
1772619589910815500,3.6458154296875,-0.8032210469245911,1.357466697692871,0.35460108518600464
1772619589920846300,3.655846435546875,-0.7661956548690796,1.5724456310272217,0.3482432961463928
1772619589930877400,3.66587744140625,-0.7438914179801941,1.6681363582611084,0.26246264576911926
1772619589940908500,3.675908447265625,-0.7047408223152161,1.6633833646774292,0.14147230982780457
1772619589950939600,3.685939697265625,-0.6528989672660828,1.6538077592849731,0.03995073586702347
1772619589960970800,3.695970703125,-0.608363151550293,1.6253271102905273,-0.016186567023396492
1772619589971001600,3.706001708984375,-0.58160001039505,1.5864806175231934,-0.014384639449417591
1772619589981032700,3.71603271484375,-0.5316055417060852,1.5720652341842651,0.007006402593106031
1772619589991063600,3.7260634765625,-0.4143202304840088,1.5522091388702393,0.020239930599927902
1772619590001094700,3.7360947265625,-0.2754310369491577,1.4825115203857422,0.0720546618103981
1772619590011125500,3.74612548828125,-0.18516574800014496,1.3471976518630981,0.20393750071525574
1772619590021156600,3.756156494140625,-0.11624980717897415,1.1143124103546143,0.4102246165275574
1772619590031187500,3.7661875,-0.004306879360228777,0.8748160004615784,0.6448079347610474
1772619590041218600,3.776218505859375,0.1503567397594452,0.6865673065185547,0.7957780361175537
1772619590051249400,3.78624951171875,0.2806357145309448,0.6413933038711548,0.7654831409454346
1772619590061280500,3.796280517578125,0.2912982106208801,0.6475779414176941,0.4469078481197357
1772619590071311400,3.806311279296875,0.09046365320682526,0.39712443947792053,-0.25469771027565
1772619590081343700,3.81634375,-0.3534860908985138,-0.2572680413722992,-1.2275784015655518
1772619590091374600,3.82637451171875,-0.9563525319099426,-1.1184123754501343,-2.1889984607696533
1772619590101405700,3.83640576171875,-1.5218944549560547,-1.8404099941253662,-2.8315210342407227
1772619590111436500,3.8464365234375,-1.8241149187088013,-2.235496997833252,-2.950191020965576
1772619590121467600,3.856467529296875,-1.7323644161224365,-2.182769775390625,-2.4861700534820557
1772619590131498500,3.86649853515625,-1.1905337572097778,-1.6728038787841797,-1.639542579650879
1772619590141529600,3.876529541015625,-0.4108693599700928,-0.9140392541885376,-0.6947540640830994
1772619590151560400,3.886560546875,0.3207055628299713,-0.24419072270393372,0.055479153990745544
1772619590161591600,3.896591552734375,0.8170104026794434,0.0993269607424736,0.4417099356651306
1772619590171622400,3.906622314453125,1.0479552745819092,0.16246210038661957,0.4819752871990204
1772619590181653500,3.916653564453125,1.07253897190094,0.12585535645484924,0.2964267432689667
1772619590191684600,3.9266845703125,0.9260851144790649,0.04457464814186096,0.006474649999290705
1772619590201715500,3.936715576171875,0.6787807941436768,-0.04959925264120102,-0.2912102937698364
1772619590211746600,3.94674658203125,0.405623197555542,-0.10638236254453659,-0.5149756073951721
1772619590221777700,3.956777587890625,0.15211956202983856,-0.07232426106929779,-0.6417964100837708
1772619590231808800,3.966808837890625,-0.037191059440374374,0.08957712352275848,-0.6944071054458618
1772619590241839600,3.976839599609375,-0.14368048310279846,0.3430357575416565,-0.7196894884109497
1772619590251870700,3.98687060546875,-0.16281232237815857,0.6285237669944763,-0.7496517300605774
1772619590261902600,3.996902587890625,-0.10638926923274994,0.8745402097702026,-0.7805712819099426
1772619590271933400,4.006933349609375,-0.008325263857841492,1.0469305515289307,-0.793678879737854
1772619590281964500,4.016964599609375,0.09154700487852097,1.118778944015503,-0.783156156539917
1772619590291995600,4.02699560546875,0.17650356888771057,1.0821751356124878,-0.7230061888694763
1772619590302026500,4.037026611328125,0.2310035526752472,0.9635790586471558,-0.6174166202545166
1772619590312057600,4.0470576171875,0.26047131419181824,0.7719627022743225,-0.48301073908805847
1772619590322088400,4.05708837890625,0.26504501700401306,0.5285820364952087,-0.3311871290206909
1772619590332119600,4.06711962890625,0.24425478279590607,0.2538817524909973,-0.15207302570343018
1772619590342150400,4.077150390625,0.196275532245636,-0.006263021379709244,0.054573364555835724
1772619590352181800,4.087181640625,0.13715007901191711,-0.24690085649490356,0.2803810238838196
1772619590362212600,4.097212646484375,0.08530765026807785,-0.4558412730693817,0.5353110432624817
1772619590372243700,4.10724365234375,0.036082133650779724,-0.6109368801116943,0.794948160648346
1772619590382274600,4.117274658203125,0.004671748261898756,-0.6866012811660767,1.0400282144546509
1772619590392305700,4.1273056640625,-0.01311006210744381,-0.6868700981140137,1.2172640562057495
1772619590402336500,4.13733642578125,-0.013992367312312126,-0.6244091391563416,1.2753331661224365
1772619590412367600,4.14736767578125,0.00722106359899044,-0.4394586682319641,1.2186756134033203
1772619590422398500,4.1573984375,0.05068305507302284,-0.16966712474822998,1.086169958114624
1772619590432429600,4.1674296875,0.12589424848556519,0.08311707526445389,0.9083806872367859
1772619590442460400,4.17746044921875,0.17298266291618347,0.1578376442193985,0.7366936206817627
1772619590452492500,4.187492431640625,0.16685722768306732,0.04790307581424713,0.6416067481040955
1772619590462523400,4.1975234375,0.1025296300649643,-0.1619287133216858,0.6327211260795593
1772619590472554800,4.2075546875,0.016978828236460686,-0.32571887969970703,0.6558391451835632
1772619590482585600,4.217585693359375,-0.029337536543607712,-0.3154827356338501,0.6158893704414368
1772619590492616700,4.22761669921875,-0.01369478739798069,-0.1934891939163208,0.4353359341621399
1772619590502647600,4.2376474609375,0.00922331027686596,-0.15546618402004242,0.08241196721792221
1772619590512678700,4.2476787109375,-0.019151832908391953,-0.36359748244285583,-0.4304004907608032
1772619590522709500,4.25770947265625,-0.14962781965732574,-0.8848760724067688,-1.0080537796020508
1772619590532740600,4.26774072265625,-0.3395194709300995,-1.5692658424377441,-1.418165922164917
1772619590542771500,4.277771484375,-0.41895729303359985,-2.0482394695281982,-1.497290849685669
1772619590552802600,4.287802490234375,-0.30898407101631165,-2.1744890213012695,-1.34430992603302
1772619590562833700,4.297833740234375,-0.0744626596570015,-2.1567342281341553,-1.135339379310608
1772619590572864500,4.307864501953125,0.14597994089126587,-2.2002415657043457,-0.9702669978141785
1772619590582895600,4.3178955078125,0.24726873636245728,-2.336961030960083,-0.8292611837387085
1772619590592926500,4.327926513671875,0.19457614421844482,-2.5207672119140625,-0.6776462197303772
1772619590602957600,4.33795751953125,0.02481720596551895,-2.6758499145507812,-0.5002530813217163
1772619590612988400,4.347988525390625,-0.20874406397342682,-2.7336103916168213,-0.2722404897212982
1772619590623019500,4.35801953125,-0.44315579533576965,-2.61757230758667,-0.02861851640045643
1772619590633051600,4.3680517578125,-0.5895109176635742,-2.3057610988616943,0.1960657387971878
1772619590643082500,4.37808251953125,-0.6084507703781128,-1.733218789100647,0.37593749165534973
1772619590653113600,4.388113525390625,-0.5330377817153931,-0.9967253804206848,0.49856337904930115
1772619590663144700,4.398144775390625,-0.3891964554786682,-0.21729272603988647,0.5652132034301758
1772619590673175600,4.408175537109375,-0.18920870125293732,0.5208336710929871,0.5620623230934143
1772619590683206700,4.41820654296875,0.024183472618460655,1.1392875909805298,0.48102235794067383
1772619590693237500,4.428237548828125,0.23568904399871826,1.5935474634170532,0.33263131976127625
1772619590703268600,4.4382685546875,0.42346426844596863,1.8830440044403076,0.13291391730308533
1772619590713299500,4.448299560546875,0.5583228468894958,2.0430638790130615,-0.08176065981388092
1772619590723330600,4.45833056640625,0.6210520267486572,2.0903663635253906,-0.27697116136550903
1772619590733361400,4.468361328125,0.6260803937911987,2.0417981147766113,-0.442114919424057
1772619590743392500,4.478392578125,0.5888435244560242,1.965100646018982,-0.5797721147537231
1772619590753423400,4.48842333984375,0.5370925664901733,1.9015580415725708,-0.6638240218162537
1772619590763454700,4.498454833984375,0.4714656472206116,1.828384280204773,-0.6819881200790405
1772619590773485600,4.508485595703125,0.410666286945343,1.7576067447662354,-0.6322834491729736
1772619590783516700,4.5185166015625,0.38429275155067444,1.7502902746200562,-0.5024077892303467
1772619590793547500,4.528547607421875,0.37519586086273193,1.8310186862945557,-0.3131469786167145
1772619590803578600,4.53857861328125,0.36644789576530457,1.9682186841964722,-0.07688862085342407
1772619590813610500,4.548610595703125,0.3449860215187073,2.071424722671509,0.1557358205318451
1772619590823641600,4.5586416015625,0.3395475745201111,2.0660781860351562,0.33359262347221375
1772619590833672400,4.56867236328125,0.351540207862854,1.9418236017227173,0.5046164393424988
1772619590843703600,4.57870361328125,0.3782610297203064,1.7862862348556519,0.7256268262863159
1772619590853734400,4.588734375,0.41100141406059265,1.6557585000991821,0.9960471391677856
1772619590863765500,4.598765625,0.47462406754493713,1.6205992698669434,1.30766761302948
1772619590873796400,4.60879638671875,0.5692548751831055,1.6005616188049316,1.601577639579773
1772619590883827500,4.618827392578125,0.6302157044410706,1.5628196001052856,1.7985270023345947
1772619590893858600,4.628858642578125,0.6286070346832275,1.480574369430542,1.855285406112671
1772619590903889700,4.6388896484375,0.5545589327812195,1.4313032627105713,1.785402774810791
1772619590913920800,4.648920654296875,0.477220356464386,1.5336828231811523,1.645603060722351
1772619590923951600,4.65895166015625,0.42494702339172363,1.7008968591690063,1.4559353590011597
1772619590933982700,4.668982666015625,0.34725677967071533,1.7795281410217285,1.2042897939682007
1772619590944013600,4.679013671875,0.10848628729581833,1.5519951581954956,0.6812697649002075
1772619590954044700,4.689044677734375,-0.3871231973171234,0.8826397061347961,-0.2487417608499527
1772619590964075500,4.699075439453125,-1.0324558019638062,-0.0773191750049591,-1.362397313117981
1772619590974106600,4.709106689453125,-1.5836961269378662,-0.9632405042648315,-2.263051986694336
1772619590984137500,4.719137451171875,-1.9067882299423218,-1.4838093519210815,-2.6387994289398193
1772619590994169600,4.729169677734375,-1.9064637422561646,-1.6018720865249634,-2.365588665008545
1772619591004200400,4.739200439453125,-1.4663563966751099,-1.3416340351104736,-1.5139036178588867
1772619591014231800,4.749231689453125,-0.7648730874061584,-0.9751238226890564,-0.36096397042274475
1772619591024262700,4.7592626953125,-0.09909984469413757,-0.6960013508796692,0.7174425721168518
1772619591034293800,4.769293701171875,0.44381842017173767,-0.598813533782959,1.456497073173523
1772619591044324600,4.77932470703125,0.8513350486755371,-0.804873526096344,1.7588995695114136
1772619591054355700,4.789355712890625,1.0450772047042847,-1.094670057296753,1.7814972400665283
1772619591064386600,4.799386474609375,1.0353760719299316,-1.3353521823883057,1.6932393312454224
1772619591074417700,4.809417724609375,0.9393335580825806,-1.487873911857605,1.5982731580734253
1772619591084448500,4.819448486328125,0.8160204291343689,-1.5376920700073242,1.5417068004608154
1772619591094479600,4.829479736328125,0.677437961101532,-1.4964823722839355,1.5133675336837769
1772619591104510500,4.839510498046875,0.5239578485488892,-1.3586314916610718,1.4766381978988647
1772619591114541600,4.84954150390625,0.39427316188812256,-1.1265201568603516,1.3980305194854736
1772619591124572400,4.859572509765625,0.29662302136421204,-0.8296874165534973,1.2690988779067993
1772619591134603500,4.869603515625,0.2329949587583542,-0.5008831024169922,1.1077126264572144
1772619591144634400,4.87963427734375,0.18088141083717346,-0.19249306619167328,0.9286009669303894
1772619591154665500,4.88966552734375,0.12347855418920517,0.06000864878296852,0.7353087663650513
1772619591164696600,4.899696533203125,0.06516358256340027,0.27040261030197144,0.5541488528251648
1772619591174728700,4.909728759765625,0.00698715727776289,0.4313810169696808,0.38149499893188477
1772619591184759600,4.919759521484375,-0.03607242926955223,0.5373300313949585,0.2312934845685959
1772619591194790700,4.929790771484375,-0.05956224352121353,0.5699546933174133,0.12643519043922424
1772619591204821500,4.939821533203125,-0.06345924735069275,0.5175237059593201,0.06692074239253998
1772619591214852600,4.9498525390625,-0.05289887264370918,0.3932923674583435,0.04071081429719925
1772619591224883500,4.959883544921875,-0.0463152714073658,0.2119622528553009,0.054038602858781815
1772619591234914600,4.96991455078125,-0.06802546977996826,-0.006452878937125206,0.06984724849462509
1772619591244945400,4.9799453125,-0.11002139002084732,-0.16986097395420074,0.08746432512998581
1772619591254976500,4.9899765625,-0.1630183756351471,-0.20172050595283508,0.09118988364934921
1772619591265007600,5.000007568359375,-0.20045523345470428,-0.18986225128173828,0.10111867636442184
1772619591275038500,5.01003857421875,-0.19943352043628693,-0.2270655781030655,0.16745337843894958
1772619591285069600,5.020069580078125,-0.161023810505867,-0.3115549087524414,0.3375715911388397
1772619591295100400,5.030100341796875,-0.11118828505277634,-0.3768981099128723,0.5954821705818176
1772619591305131800,5.0401318359375,-0.05406294763088226,-0.4806104004383087,0.8017450571060181
1772619591315162600,5.05016259765625,-0.006041642744094133,-0.6515968441963196,0.827888548374176
1772619591325193700,5.06019384765625,0.017717216163873672,-0.7833335995674133,0.7169322371482849
1772619591335224600,5.070224609375,0.0034871473908424377,-0.8612384796142578,0.5762664675712585
1772619591345256400,5.08025634765625,-0.051565982401371,-0.9734465479850769,0.408061683177948
1772619591355287600,5.09028759765625,-0.12640614807605743,-1.1513108015060425,0.1544123888015747
1772619591365318700,5.100318603515625,-0.26281726360321045,-1.4329856634140015,-0.30509474873542786
1772619591375349500,5.110349609375,-0.4490329325199127,-1.7134438753128052,-0.8861194849014282
1772619591385380600,5.120380615234375,-0.606709361076355,-1.7850219011306763,-1.3695709705352783
1772619591395411500,5.130411376953125,-0.7079060077667236,-1.6117678880691528,-1.613569974899292
1772619591405442600,5.140442626953125,-0.7477532625198364,-1.2298098802566528,-1.667140245437622
1772619591415473400,5.150473388671875,-0.7437009811401367,-0.80005943775177,-1.6558575630187988
1772619591425504800,5.1605048828125,-0.7352579832077026,-0.4332870841026306,-1.6507937908172607
1772619591435535600,5.17053564453125,-0.7194685935974121,-0.1446300595998764,-1.6738414764404297
1772619591445566700,5.180566650390625,-0.6853641271591187,0.0028904257342219353,-1.729317307472229
1772619591455597600,5.19059765625,-0.6318750381469727,-0.023093970492482185,-1.7878456115722656
1772619591465628700,5.200628662109375,-0.559160590171814,-0.16383351385593414,-1.778860330581665
1772619591475659500,5.210659423828125,-0.47434571385383606,-0.34720921516418457,-1.655402660369873
1772619591485690600,5.220690673828125,-0.38578495383262634,-0.5142306685447693,-1.421992301940918
1772619591495721500,5.230721435546875,-0.28156691789627075,-0.592657208442688,-1.1240568161010742
1772619591505752600,5.240752685546875,-0.18551816046237946,-0.5199127197265625,-0.7598998546600342
1772619591515784400,5.250784423828125,-0.10648050904273987,-0.34366512298583984,-0.35451143980026245
1772619591525815600,5.260815673828125,-0.03730916231870651,-0.10754525661468506,0.05913260951638222
1772619591535846400,5.270846435546875,0.029822634533047676,0.15669551491737366,0.44190514087677
1772619591545877500,5.28087744140625,0.09509457647800446,0.3936673104763031,0.7635281682014465
1772619591555908600,5.29090869140625,0.14478656649589539,0.5322617888450623,0.987377405166626
1772619591565939700,5.300939697265625,0.15603603422641754,0.557465672492981,1.085035800933838
1772619591575970600,5.310970458984375,0.1466858685016632,0.4856052100658417,1.0610111951828003
1772619591586001700,5.321001708984375,0.1269529163837433,0.33541810512542725,0.9113330245018005
1772619591596032500,5.331032470703125,0.11544781178236008,0.14920514822006226,0.6439521908760071
1772619591606063600,5.341063720703125,0.07774783670902252,0.052512429654598236,0.3735697269439697
1772619591616094500,5.351094482421875,0.0031453194096684456,0.03703403100371361,0.18387453258037567
1772619591626125600,5.36112548828125,-0.07827311009168625,0.06972113251686096,0.08913018554449081
1772619591636156700,5.37115673828125,-0.16101720929145813,0.1778780221939087,0.10776722431182861
1772619591646187500,5.3811875,-0.22892674803733826,0.34821808338165283,0.23461171984672546
1772619591656218600,5.391218505859375,-0.2805820405483246,0.5284343361854553,0.43442264199256897
1772619591666249500,5.40124951171875,-0.30341199040412903,0.7170318961143494,0.6539875268936157
1772619591676281300,5.41128125,-0.2929338216781616,0.8697907328605652,0.8367602825164795
1772619591686312200,5.421312255859375,-0.2431769222021103,0.9175806641578674,0.9549737572669983
1772619591696343300,5.43134326171875,-0.15983697772026062,0.8261210918426514,1.0095360279083252
1772619591706374400,5.44137451171875,-0.07027540355920792,0.664005696773529,1.0655126571655273
1772619591716405500,5.451405517578125,0.020017901435494423,0.5107025504112244,1.1678844690322876
1772619591726436400,5.461436279296875,0.1034904196858406,0.353122740983963,1.3016175031661987
1772619591736467500,5.471467529296875,0.19044291973114014,0.19549345970153809,1.421810269355774
1772619591746498300,5.481498291015625,0.27711814641952515,0.0681871622800827,1.4616825580596924
1772619591756529400,5.491529296875,0.3131137788295746,-0.07660338282585144,1.3662736415863037
1772619591766560300,5.501560302734375,0.19833901524543762,-0.25999903678894043,1.0824538469314575
1772619591776591400,5.51159130859375,-0.017396315932273865,-0.45050475001335144,0.669471263885498
1772619591786622200,5.521622314453125,-0.2782750427722931,-0.7054603695869446,0.1533079743385315
1772619591796653300,5.5316533203125,-0.6484312415122986,-1.0604455471038818,-0.49608442187309265
1772619591806684200,5.54168408203125,-1.1013926267623901,-1.3351224660873413,-1.3110647201538086
1772619591816715300,5.55171533203125,-1.5216395854949951,-1.289292812347412,-2.221104621887207
1772619591826746000,5.56174609375,-1.7639609575271606,-0.8776842355728149,-3.0769901275634766
1772619591836778500,5.571778564453125,-1.8061745166778564,-0.36028194427490234,-3.7225961685180664
1772619591846809300,5.581809326171875,-1.6661864519119263,0.02003849670290947,-3.9517078399658203
1772619591856840400,5.59184033203125,-1.3135945796966553,0.22315065562725067,-3.6536059379577637
1772619591866871300,5.601871337890625,-0.7858980298042297,0.3023330867290497,-2.849958658218384
1772619591876902400,5.61190234375,-0.2189275324344635,0.301591157913208,-1.745278239250183
1772619591886933200,5.621933349609375,0.23394806683063507,0.27552148699760437,-0.6562812924385071
1772619591896964400,5.63196435546875,0.5029820799827576,0.2705307900905609,0.17201834917068481
1772619591906995200,5.6419951171875,0.6677939295768738,0.12881973385810852,0.5078431963920593
1772619591917026300,5.6520263671875,0.7781959772109985,-0.0853000059723854,0.41568174958229065
1772619591927057200,5.66205712890625,0.8020304441452026,-0.18040840327739716,0.13014133274555206
1772619591937088300,5.672088134765625,0.771030843257904,-0.14978989958763123,-0.22468608617782593
1772619591947119400,5.682119384765625,0.7308983206748962,-0.03891371563076973,-0.5454638600349426
1772619591957150200,5.692150146484375,0.6967206001281738,0.13923846185207367,-0.7656547427177429
1772619591967181300,5.702181396484375,0.6599040031433105,0.3459514379501343,-0.8808375597000122
1772619591977212400,5.71221240234375,0.6366155743598938,0.5285040736198425,-0.8995274305343628
1772619591987243500,5.722243408203125,0.628010630607605,0.6573648452758789,-0.8355277180671692
1772619591997274400,5.7322744140625,0.616714358329773,0.7187772393226624,-0.7264747619628906
1772619592007306200,5.74230615234375,0.6034275889396667,0.7110122442245483,-0.5956206321716309
1772619592017337300,5.75233740234375,0.5930259227752686,0.6579095125198364,-0.4742628335952759
1772619592027368200,5.7623681640625,0.582618772983551,0.5478181838989258,-0.3707393705844879
1772619592037399300,5.7723994140625,0.5493237376213074,0.3774552345275879,-0.28444287180900574
1772619592047430400,5.782430419921875,0.4789257049560547,0.15198539197444916,-0.22324874997138977
1772619592057461200,5.792461181640625,0.35901209712028503,-0.13050250709056854,-0.16670292615890503
1772619592067492400,5.802492431640625,0.1904081553220749,-0.4423261880874634,-0.07795654237270355
1772619592077523200,5.812523193359375,0.008360428735613823,-0.7528856992721558,0.11584959179162979
1772619592087554300,5.82255419921875,-0.18041720986366272,-0.9332101941108704,0.4135723412036896
1772619592097585200,5.832585205078125,-0.3272506892681122,-0.9252483248710632,0.7661430239677429
1772619592107616500,5.842616455078125,-0.37580838799476624,-0.7245546579360962,1.0617461204528809
1772619592117647400,5.8526474609375,-0.2554439306259155,-0.32302385568618774,1.273923397064209
1772619592127678500,5.862678466796875,0.01975994184613228,0.25474947690963745,1.3916045427322388
1772619592137709300,5.872709228515625,0.3454464375972748,0.9231951832771301,1.4346351623535156
1772619592147740400,5.882740478515625,0.6450355052947998,1.5954172611236572,1.356770396232605
1772619592157771300,5.892771240234375,0.896675705909729,2.2008373737335205,1.1531217098236084
1772619592167803400,5.902803466796875,1.0539287328720093,2.581948757171631,0.8823873996734619
1772619592177834200,5.912834228515625,1.1155848503112793,2.579841375350952,0.6513513326644897
1772619592187865300,5.922865234375,1.1157889366149902,2.132952928543091,0.5607340931892395
1772619592197896200,5.932896240234375,1.0244654417037964,1.2617435455322266,0.6399382948875427
1772619592207927300,5.94292724609375,0.824885904788971,0.20015062391757965,0.8099134564399719
1772619592217958100,5.952958251953125,0.5702700018882751,-0.7849414944648743,0.9740354418754578
1772619592227989500,5.962989501953125,0.3039323687553406,-1.6078740358352661,1.0411533117294312
1772619592238020400,5.973020263671875,0.07075279951095581,-2.1858322620391846,0.9466742277145386
1772619592248051500,5.983051513671875,-0.10548854619264603,-2.4781665802001953,0.7190977931022644
1772619592258082300,5.993082275390625,-0.22420382499694824,-2.5200653076171875,0.40665581822395325
1772619592268113400,6.003113525390625,-0.2718360424041748,-2.3335840702056885,0.11621680110692978
1772619592278144300,6.013144287109375,-0.24253715574741364,-1.9693864583969116,-0.09444870054721832
1772619592288175400,6.02317529296875,-0.1972743272781372,-1.5523995161056519,-0.23572993278503418
1772619592298206200,6.033206298828125,-0.15668700635433197,-1.2210476398468018,-0.3427644371986389
1772619592308237300,6.0432373046875,-0.12892036139965057,-1.0569976568222046,-0.4766833484172821
1772619592318268400,6.053268310546875,-0.12204247713088989,-1.0367741584777832,-0.6520064473152161
1772619592328299300,6.06329931640625,-0.1821894347667694,-1.1102685928344727,-0.8213118314743042
1772619592338331100,6.0733310546875,-0.31319257616996765,-1.2791460752487183,-0.919688880443573
1772619592348362200,6.0833623046875,-0.45804962515830994,-1.3808761835098267,-0.9594792127609253
1772619592358393300,6.093393310546875,-0.5146431922912598,-1.2262932062149048,-0.9188886284828186
1772619592368424400,6.103424560546875,-0.4991140067577362,-0.7823097109794617,-0.7962015867233276
1772619592378455300,6.113455322265625,-0.42097288370132446,-0.12140265107154846,-0.6285707354545593
1772619592388486400,6.123486328125,-0.24762535095214844,0.6068528890609741,-0.44932880997657776
1772619592398517200,6.133517333984375,0.004456804133951664,1.246039867401123,-0.2842020094394684
1772619592408548400,6.14354833984375,0.27536019682884216,1.7157725095748901,-0.1258602887392044
1772619592418579500,6.153579345703125,0.49317094683647156,1.9975608587265015,0.022931749001145363
1772619592428610300,6.1636103515625,0.6346598863601685,2.112873077392578,0.151712104678154
1772619592438641400,6.173641357421875,0.6985435485839844,2.0808022022247314,0.24995902180671692
1772619592448672300,6.18367236328125,0.6520865559577942,1.9460949897766113,0.31440672278404236
1772619592458703400,6.193703369140625,0.5270738005638123,1.720977783203125,0.3468981087207794
1772619592468734200,6.203734130859375,0.36296340823173523,1.4246934652328491,0.3603430688381195
1772619592478765300,6.213765380859375,0.17895592749118805,1.113612174987793,0.3681392967700958
1772619592488796200,6.223796142578125,0.005262163933366537,0.8045302033424377,0.384859174489975
1772619592498828300,6.233828369140625,-0.14685706794261932,0.5112477540969849,0.4202461838722229
1772619592508859400,6.243859375,-0.26751983165740967,0.23732776939868927,0.469517320394516
1772619592518890500,6.253890380859375,-0.355561226606369,0.02208239957690239,0.5430671572685242
1772619592528921300,6.26392138671875,-0.4272524416446686,-0.05736049264669418,0.6399915814399719
1772619592538952400,6.273952392578125,-0.4877261519432068,-0.02595057524740696,0.7310598492622375
1772619592548983300,6.2839833984375,-0.5341405272483826,-0.010658970102667809,0.7382336258888245
1772619592559014400,6.294014404296875,-0.5647597312927246,-0.05949115380644798,0.6351305246353149
1772619592569045200,6.304045166015625,-0.5450025200843811,-0.19530251622200012,0.4861394166946411
1772619592579076400,6.314076416015625,-0.46890348196029663,-0.42338988184928894,0.38530462980270386
1772619592589107200,6.324107177734375,-0.35412123799324036,-0.7180523872375488,0.374761700630188
1772619592599138300,6.33413818359375,-0.16197173297405243,-0.922858715057373,0.46047842502593994
1772619592609169200,6.344169189453125,0.0610930398106575,-1.0045669078826904,0.6382532119750977
1772619592619200300,6.3542001953125,0.21427908539772034,-1.1004208326339722,0.8271797895431519
1772619592629231000,6.364231201171875,0.2459249049425125,-1.443019986152649,0.9106200933456421
1772619592639262200,6.37426220703125,0.23259617388248444,-2.006175994873047,0.8584384918212891
1772619592649293300,6.384293212890625,0.22705599665641785,-2.3489904403686523,0.7908631563186646
1772619592659325400,6.394325439453125,0.29575327038764954,-2.064804792404175,0.6920061707496643
1772619592669356300,6.404356201171875,0.482324481010437,-1.275001049041748,0.36755165457725525
1772619592679387400,6.414387451171875,0.7172618508338928,-0.3614151179790497,-0.3483227491378784
1772619592689418800,6.424418701171875,0.8855011463165283,0.4332108795642853,-1.3348363637924194
1772619592699449900,6.434449951171875,0.9382387399673462,1.024003028869629,-2.2259562015533447
1772619592709480700,6.444480712890625,0.9304381012916565,1.4448094367980957,-2.697291612625122
1772619592719511800,6.45451171875,0.9506499171257019,1.7063863277435303,-2.6276893615722656
1772619592729542700,6.464542724609375,1.0059120655059814,1.7870469093322754,-2.1409738063812256
1772619592739573800,6.47457373046875,1.0612211227416992,1.7180986404418945,-1.4917925596237183
1772619592749604600,6.4846044921875,1.0757880210876465,1.5062609910964966,-0.9362490773200989
1772619592759636000,6.494635986328125,1.0584962368011475,1.1716817617416382,-0.5991215705871582
1772619592769666800,6.504666748046875,0.9808328747749329,0.8328486084938049,-0.511931300163269
1772619592779698000,6.514697998046875,0.8342118859291077,0.6015769839286804,-0.6195417642593384
1772619592789728800,6.524728759765625,0.617500901222229,0.5180373787879944,-0.8362320065498352
1772619592799760000,6.534759765625,0.36604776978492737,0.5993021130561829,-1.1177223920822144
1772619592809791000,6.544791015625,0.12596696615219116,0.7837795615196228,-1.4042935371398926
1772619592819822800,6.55482275390625,-0.03112747147679329,1.0112779140472412,-1.6197746992111206
1772619592829853700,6.564853759765625,-0.07745609432458878,1.2455250024795532,-1.730225920677185
1772619592839884800,6.574884765625,-0.040096037089824677,1.4107040166854858,-1.7141700983047485
1772619592849915600,6.58491552734375,0.052283696830272675,1.4758646488189697,-1.595860242843628
1772619592859946800,6.59494677734375,0.16769959032535553,1.4355889558792114,-1.3998894691467285
1772619592869977600,6.6049775390625,0.28468212485313416,1.3176857233047485,-1.1335315704345703
1772619592880008700,6.6150087890625,0.37251412868499756,1.1446410417556763,-0.8166842460632324
1772619592890039800,6.625039794921875,0.42047926783561707,0.9188702702522278,-0.4864378571510315
1772619592900071000,6.63507080078125,0.4196876287460327,0.6861796975135803,-0.16136083006858826
1772619592910102000,6.64510205078125,0.37083008885383606,0.48153120279312134,0.13209475576877594
1772619592920132900,6.6551328125,0.2907223105430603,0.30067774653434753,0.36067909002304077
1772619592930164000,6.6651640625,0.19392119348049164,0.13901351392269135,0.4946722984313965
1772619592940194800,6.67519482421875,0.0967889130115509,-0.013236789964139462,0.5229072570800781
1772619592950226000,6.685225830078125,0.0067122820764780045,-0.18935295939445496,0.4778170585632324
1772619592960256800,6.6952568359375,-0.0823347195982933,-0.416236013174057,0.4260459244251251
1772619592970287900,6.705287841796875,-0.1802636682987213,-0.6405268907546997,0.39945265650749207
1772619592980319700,6.71531982421875,-0.2640487253665924,-0.8298385739326477,0.40325844287872314
1772619592990350800,6.725350830078125,-0.30469122529029846,-0.8198580741882324,0.4131038784980774
1772619593000381700,6.735381591796875,-0.2642613351345062,-0.5949577689170837,0.41598817706108093
1772619593010413000,6.7454130859375,-0.1438310593366623,-0.2852502465248108,0.4498843550682068
1772619593020444000,6.75544384765625,0.001689843600615859,0.04407741129398346,0.5351617932319641
1772619593030475000,6.76547509765625,0.1521906703710556,0.4106855094432831,0.6596001386642456
1772619593040505900,6.775505859375,0.31764352321624756,0.8045393228530884,0.771285891532898
1772619593050537000,6.785536865234375,0.47166797518730164,1.1470344066619873,0.776735782623291
1772619593060567800,6.79556787109375,0.5280020833015442,1.2793231010437012,0.6225665211677551
1772619593070599000,6.805598876953125,0.4624079167842865,1.0607659816741943,0.31011006236076355
1772619593080629800,6.815629638671875,0.32200706005096436,0.46539759635925293,-0.043594151735305786
1772619593090660900,6.825660888671875,0.17128410935401917,-0.3076016902923584,-0.21809564530849457
1772619593100691700,6.835691650390625,-0.07150575518608093,-0.65400630235672,-0.18156492710113525
1772619593110722800,6.845722900390625,-0.3904600441455841,-0.22348472476005554,-0.2642587423324585
1772619593120753700,6.855753662109375,-0.6742124557495117,0.7546781301498413,-0.6984745860099792
1772619593130784800,6.86578466796875,-0.8961975574493408,1.8544034957885742,-1.3059587478637695
1772619593140817000,6.87581689453125,-1.1074413061141968,2.631488084793091,-1.8279255628585815
1772619593150848000,6.885847900390625,-1.358259677886963,2.7876389026641846,-2.109847068786621
1772619593160878800,6.89587890625,-1.598310947418213,2.4004549980163574,-2.1801295280456543
1772619593170910000,6.905909912109375,-1.812962293624878,1.714618444442749,-2.1639678478240967
1772619593180940800,6.91594091796875,-1.9911904335021973,0.8085386157035828,-2.116910934448242
1772619593190972000,6.925971923828125,-2.0006306171417236,-0.1258886754512787,-1.9425746202468872
1772619593201002800,6.936002685546875,-1.7939420938491821,-0.8442660570144653,-1.611497163772583
1772619593211033900,6.946033935546875,-1.3953044414520264,-1.2391856908798218,-1.1775119304656982
1772619593221064700,6.956064697265625,-0.8444558382034302,-1.234645128250122,-0.5851405262947083
1772619593231095800,6.966095703125,-0.24883882701396942,-0.9855926632881165,0.1235564723610878
1772619593241126700,6.976126708984375,0.2422925978899002,-0.6529517769813538,0.8844923377037048
1772619593251157800,6.98615771484375,0.5323843359947205,-0.20634149014949799,1.5700230598449707
1772619593261188900,6.99618896484375,0.6291411519050598,0.2848435044288635,2.1028153896331787
1772619593271219700,7.0062197265625,0.5982868075370789,0.635080873966217,2.389116048812866
1772619593281250800,7.016250732421875,0.5137341022491455,0.5180535912513733,2.277386426925659
1772619593291283000,7.026282958984375,0.5091210007667542,-0.0024945256300270557,1.7464522123336792
1772619593301313800,7.036313720703125,0.4094383120536804,-0.11815276741981506,1.271244764328003
1772619593311345000,7.046344970703125,0.223528653383255,-0.06419472396373749,0.8231149315834045
1772619593321375700,7.056375732421875,0.08672864735126495,-0.04841130971908569,0.3888702690601349
1772619593331406800,7.06640673828125,0.018879562616348267,-0.05796407163143158,0.055269137024879456
1772619593341437700,7.076437744140625,-0.03446807712316513,-0.24551136791706085,-0.15857550501823425
1772619593351468800,7.08646875,-0.06672907620668411,-0.5272969603538513,-0.2199041098356247
1772619593361500000,7.0965,-0.03815102577209473,-0.7348936796188354,-0.1395636647939682
1772619593371530800,7.10653076171875,0.06899406760931015,-0.9100130200386047,0.06898768246173859
1772619593381561900,7.116561767578125,0.21993374824523926,-1.0283325910568237,0.4057750701904297
1772619593391592700,7.1265927734375,0.3658424913883209,-0.9607399702072144,0.8519415855407715
1772619593401623800,7.136623779296875,0.4560473561286926,-0.7744675278663635,1.325196623802185
1772619593411654700,7.146654541015625,0.5085968375205994,-0.6150568127632141,1.7069724798202515
1772619593421686000,7.15668603515625,0.5694287419319153,-0.6765093207359314,1.8546723127365112
1772619593431716900,7.166716796875,0.648572564125061,-0.8693887591362,1.7946361303329468
1772619593441748700,7.176748779296875,0.6443821787834167,-0.9701378345489502,1.7013193368911743
1772619593451779800,7.18677978515625,0.5796370506286621,-0.9702160954475403,1.6179653406143188
1772619593461811000,7.19681103515625,0.5111417174339294,-0.9092637300491333,1.5509856939315796
1772619593471841800,7.206841796875,0.45603612065315247,-0.7971081733703613,1.5058948993682861
1772619593481873000,7.216872802734375,0.4099525213241577,-0.6405407786369324,1.5284819602966309
1772619593491903700,7.22690380859375,0.35922250151634216,-0.47549933195114136,1.6117911338806152
1772619593501934800,7.236934814453125,0.28463906049728394,-0.25390005111694336,1.6988999843597412
1772619593511965700,7.246965576171875,0.1784340739250183,-0.06104325130581856,1.7464818954467773
1772619593521996800,7.256996826171875,0.05923950672149658,0.007716106250882149,1.6888442039489746
1772619593532027600,7.267027587890625,-0.011124689131975174,-0.01579965464770794,1.5224778652191162
1772619593542058800,7.277058837890625,-0.02351151593029499,-0.06669788062572479,1.2964494228363037
1772619593552089900,7.28708984375,0.02366531640291214,0.008270373567938805,1.0654749870300293
1772619593562121000,7.297120849609375,0.11229357868432999,0.2505962550640106,0.7835609912872314
1772619593572151800,7.30715185546875,0.19177882373332977,0.4421321153640747,0.3638046681880951
1772619593582183000,7.317182861328125,0.1812363862991333,0.3387073874473572,-0.24113842844963074
1772619593592213800,7.3272138671875,0.0444047749042511,-0.14772963523864746,-0.9018617868423462
1772619593602246000,7.337245849609375,-0.1643260419368744,-0.8618983626365662,-1.4336202144622803
1772619593612276700,7.34727685546875,-0.3495582044124603,-1.5057876110076904,-1.7026013135910034
1772619593622307800,7.357307861328125,-0.44937020540237427,-1.9542407989501953,-1.6823168992996216
1772619593632338700,7.367338623046875,-0.3943769931793213,-2.088639736175537,-1.359175682067871
1772619593642369800,7.377369873046875,-0.1852613389492035,-1.8512592315673828,-0.7939577698707581
1772619593652400600,7.387400634765625,0.12090817093849182,-1.3905917406082153,-0.15064193308353424
1772619593662431700,7.397431640625,0.41610363125801086,-0.865011990070343,0.35921043157577515
1772619593672462600,7.407462646484375,0.5826318860054016,-0.37586355209350586,0.6224374771118164
1772619593682494000,7.417493896484375,0.6030521988868713,0.019235126674175262,0.6314182281494141
1772619593692524500,7.427524658203125,0.4800400137901306,0.3531220257282257,0.4073025584220886
1772619593702555400,7.437555419921875,0.2764977812767029,0.6512036919593811,0.04278026521205902
1772619593712586500,7.44758642578125,0.05333897843956947,0.8872388601303101,-0.3333057463169098
1772619593722617300,7.457617431640625,-0.1620541661977768,1.0588183403015137,-0.589277446269989
1772619593732648400,7.4676484375,-0.32943835854530334,1.1468558311462402,-0.707109272480011
1772619593742679300,7.47767919921875,-0.3948063850402832,1.1150929927825928,-0.6937810182571411
1772619593752710400,7.48771044921875,-0.3478844165802002,0.9576069116592407,-0.5435050129890442
1772619593762742300,7.4977421875,-0.2295583337545395,0.6393585801124573,-0.2838640511035919
1772619593772773400,7.5077734375,-0.08108098059892654,0.19999344646930695,0.041084468364715576
1772619593782804200,7.51780419921875,0.052730441093444824,-0.25027400255203247,0.37125909328460693
1772619593792835300,7.52783544921875,0.1510423719882965,-0.6299624443054199,0.6417116522789001
1772619593802866200,7.5378662109375,0.2130923718214035,-0.8937763571739197,0.8220255374908447
1772619593812897300,7.547897216796875,0.2300865352153778,-1.0296320915222168,0.8829253315925598
1772619593822928400,7.557928466796875,0.19880254566669464,-1.0775045156478882,0.8547188639640808
1772619593832959500,7.56795947265625,0.1285744458436966,-1.0619064569473267,0.7653937339782715
1772619593842990300,7.577990234375,0.038996223360300064,-0.9482144713401794,0.6991355419158936
1772619593853021400,7.588021484375,-0.04567525535821915,-0.7009580731391907,0.697309672832489
1772619593863052300,7.59805224609375,-0.10998420417308807,-0.3828515112400055,0.7701511383056641
1772619593873083400,7.60808349609375,-0.12321345508098602,-0.11872609704732895,0.8691993951797485
1772619593883114200,7.6181142578125,-0.06862395256757736,0.045055124908685684,0.9295655488967896
1772619593893145300,7.628145263671875,0.012919378466904163,0.12090754508972168,0.8763510584831238
1772619593903177200,7.63817724609375,0.08389855176210403,0.12553152441978455,0.7169599533081055
1772619593913208300,7.648208251953125,0.10366959124803543,0.0014580413699150085,0.45360103249549866
1772619593923239200,7.6582392578125,0.060931477695703506,-0.22118540108203888,0.10064882040023804
1772619593933270300,7.668270263671875,-0.036726370453834534,-0.4179117977619171,-0.22726674377918243
1772619593943301000,7.678301025390625,-0.17360587418079376,-0.5238173007965088,-0.46111738681793213
1772619593953332500,7.68833251953125,-0.29756298661231995,-0.5092905759811401,-0.5732958316802979
1772619593963363300,7.69836328125,-0.40033048391342163,-0.37321794033050537,-0.5728238224983215
1772619593973394400,7.70839453125,-0.44741544127464294,-0.16509374976158142,-0.45885464549064636
1772619593983425300,7.71842529296875,-0.4094175100326538,0.08159954100847244,-0.27691248059272766
1772619593993456400,7.728456298828125,-0.295344740152359,0.3211841583251953,-0.04688405990600586
1772619594003487200,7.7384873046875,-0.12479900568723679,0.48431915044784546,0.18357516825199127
1772619594013518300,7.748518310546875,0.05988828465342522,0.5652185082435608,0.37146463990211487
1772619594023549400,7.758549560546875,0.22521518170833588,0.5598633885383606,0.5007722973823547
1772619594033580300,7.768580322265625,0.3279002904891968,0.5060028433799744,0.5592217445373535
1772619594043611400,7.778611328125,0.3478816747665405,0.4362373352050781,0.5333526134490967
1772619594053642200,7.788642333984375,0.29898419976234436,0.3572287857532501,0.43102896213531494
1772619594063674000,7.798674072265625,0.19215385615825653,0.27362045645713806,0.28045541048049927
1772619594073705500,7.80870556640625,0.04447971656918526,0.1913657784461975,0.09878335148096085
1772619594083736300,7.818736328125,-0.1083197295665741,0.08891018480062485,-0.07055476307868958
1772619594093767400,7.828767333984375,-0.22298452258110046,-0.016053251922130585,-0.20592378079891205
1772619594103798300,7.83879833984375,-0.2848747670650482,-0.09715288132429123,-0.2884921729564667
1772619594113829400,7.848829345703125,-0.30306440591812134,-0.15123316645622253,-0.30276086926460266
1772619594123860500,7.858860595703125,-0.2954566180706024,-0.19089719653129578,-0.2613857090473175
1772619594133891300,7.868891357421875,-0.2857435345649719,-0.14111579954624176,-0.10556496679782867
1772619594143922400,7.87892236328125,-0.23412658274173737,-0.23479324579238892,-0.03581788390874863
1772619594153953300,7.888953369140625,-0.15158003568649292,-0.20157191157341003,0.015559022314846516
1772619594163984400,7.898984375,-0.07296566665172577,-0.1816389113664627,-0.0005459152162075043
1772619594174015200,7.90901513671875,-0.031197449192404747,-0.18976475298404694,-0.10786278545856476
1772619594184046300,7.91904638671875,-0.00011879159137606621,-0.20334266126155853,-0.2740190923213959
1772619594194077200,7.9290771484375,0.013843363150954247,-0.14300236105918884,-0.41500312089920044
1772619594204108300,7.9391083984375,-0.0011672195978462696,-0.06216222047805786,-0.4275725185871124
1772619594214140400,7.949140380859375,0.010029508732259274,-0.09267991036176682,-0.3357754647731781
