time,seconds_elapsed,z,y,x
1772618134482195200,0.0761953125,0.2876134112983942,-0.025109580809902398,0.13409118465762584
1772618134492227300,0.086227294921875,0.19873685797154902,-0.015585198476258664,0.07986479669045657
1772618134502259200,0.09625927734375,-0.14135317501723765,0.010777122341096401,-0.03428956101951189
1772618134512291000,0.106291015625,-0.303699453702569,0.02033292272631079,-0.09868808203879743
1772618134522323200,0.1163232421875,-0.022983985224366187,0.01235069180075079,0.00423662378960289
1772618134532355300,0.126355224609375,0.23310966769456862,-0.018760010853782295,0.10162619045046158
1772618134542387200,0.13638720703125,0.19374796364307403,-0.011045728415716438,0.09266515022115782
1772618134552419000,0.146419189453125,-0.10290507867932319,0.002255140249338001,-0.025220731300488113
1772618134562451200,0.156451171875,-0.21296119815707207,0.005348229160159826,-0.06664204846264328
1772618134572483300,0.1664833984375,-0.10835282269120215,0.004929455758817493,-0.03464487726320512
1772618134582515200,0.17651513671875,0.016651859593391417,-0.002804846553970128,0.004395029221707955
1772618134592547000,0.186547119140625,0.2708370485424995,-0.022873455788288265,0.10153790024565532
1772618134602579200,0.1965791015625,0.041702129697799684,-0.006480502859409898,0.038538569366652516
1772618134612611300,0.206611328125,-0.0722656102657318,0.0021926512060686945,-0.013401036537322214
1772618134622643200,0.216643310546875,-0.1435381178408861,0.00361395271345973,-0.04287347503211349
1772618134632675000,0.226675048828125,-0.10743220071494579,0.004094137445837259,-0.048600693572498854
1772618134642707200,0.236707275390625,-0.030791444104909894,-0.0012727050832472742,-0.021256586043024436
1772618134652738300,0.24673828125,0.09595569793283938,0.002978431288897991,0.03090798315666616
1772618134662770200,0.256770263671875,0.19153671733438968,-0.015501703177578747,0.0801884391542524
1772618134672802300,0.26680224609375,-0.05542904175519943,-0.00027229586904868483,-0.004070989465690218
1772618134682834200,0.276834228515625,-0.05628828893303871,-0.012603059126622974,-0.014210585654806344
1772618134692866600,0.286866455078125,-0.06498480560779571,0.008880750667862593,-0.014914651404088363
1772618134702898400,0.2968984375,-0.054877253091335294,0.00038434140877798196,-0.012087305323942563
1772618134712930600,0.3069306640625,-0.056927171358466144,0.005578804779332131,-0.022281481244508176
1772618134722962400,0.31696240234375,-0.01182546235024929,0.0037991182883270083,-0.0024236743498127905
1772618134732994600,0.32699462890625,0.1486445010691881,-0.017039123611617833,0.06001700429969933
1772618134743026400,0.3370263671875,0.09082476478517056,-0.012627298518735914,0.04756062820134684
1772618134753058600,0.34705859375,-0.05440963557958602,0.008425408115796744,-0.012145415019616483
1772618134763090400,0.35709033203125,-0.05229483538269997,0.005473462975025177,-0.021078763524396343
1772618134773122600,0.36712255859375,-0.06863397576510906,0.002641819745674729,-0.02035210235081613
1772618134783154400,0.377154541015625,-0.05807108069658279,0.0015069522305391728,-0.012093762464192696
1772618134793186300,0.387186279296875,-0.036759997120499606,-0.0032333558980375526,-0.01289628818584606
1772618134803218400,0.397218505859375,0.005673953983187675,-0.006320015068072825,-0.014084233028511516
1772618134813250600,0.40725048828125,0.15327508347928523,-0.01727722495011985,0.05936423947939183
1772618134823282400,0.417282470703125,0.033490181669592854,-0.01589119568550959,0.027119582625175824
1772618134833314300,0.427314208984375,-0.04456687147915363,0.005223853861819953,-0.0016905925686005502
1772618134843346700,0.4373466796875,-0.04827741643488407,-0.0064723560855723915,-0.006671130060683935
1772618134853378600,0.447378662109375,-0.061761167386174196,0.006289017141610383,-0.011756292404443956
1772618134863410400,0.457410400390625,-0.05283727169632911,0.01809730916135013,-0.012341914839250966
1772618134873442300,0.4674423828125,-0.03405366077125072,-0.00036419366989284753,-0.015121508220955728
1772618134883474700,0.477474609375,0.010942834296822548,0.002108132994081825,0.00008881992776878178
1772618134893506600,0.487506591796875,0.13755904343128203,0.0048597149908542634,0.048485839587752703
1772618134903538400,0.497538330078125,0.03106792295873165,0.004339600106887519,0.013251426333026029
1772618134913570300,0.5075703125,-0.036813188612461085,0.0053292869976721705,-0.0131120772278402
1772618134923602700,0.517602783203125,-0.04353285225629806,0.014713986865989863,-0.005121790859987959
1772618134933634600,0.527634521484375,-0.054615387284755706,0.013031349274981766,-0.0022309693558840078
1772618134943666400,0.53766650390625,-0.04580956501662731,0.0032506906253285703,-0.025446224319166502
1772618134953698300,0.5476982421875,-0.0002297171026468277,-0.008949212794192135,0.00015056005236692725
1772618134963729400,0.5577294921875,0.013039514315128325,0.006528543252218515,-0.011677057722350581
1772618134973761500,0.567761474609375,0.0817424636632204,-0.0019474990722723304,0.030708958019805138
1772618134983793400,0.57779345703125,0.048725160202383995,-0.004502462518401444,0.025581267141993155
1772618134993825500,0.587825439453125,-0.04474339708983898,-0.0025938341517932713,0.0026653787177754566
1772618135003857400,0.597857421875,-0.029444705671072005,0.0024835969766601918,-0.0026624013093998655
1772618135013889500,0.6078896484375,-0.02839256626963615,-0.002608008807618171,-0.019055459269555285
1772618135023921400,0.61792138671875,-0.03844283564090729,-0.010073997306730597,-0.007770757299079559
1772618135033953500,0.62795361328125,-0.021591069561243056,-0.002611461140029132,-0.0002673456992954016
1772618135043985400,0.6379853515625,-0.011456044515967368,0.006659330025035887,0.01233792365072295
1772618135054017500,0.648017578125,0.02907937949001789,0.0076986282112076875,0.004090575515571982
1772618135064049400,0.65804931640625,0.08029109581112862,-0.009392609180137514,0.02601448006064165
1772618135074081500,0.66808154296875,-0.0025707272708415984,0.00847567699830979,-0.0025637952065560967
1772618135084113400,0.678113525390625,-0.035764556342363356,0.0031703005991876123,-0.0031151728784665463
1772618135094145500,0.6881455078125,-0.03860124107301235,0.003982530297525226,-0.013226501954323611
1772618135104177400,0.698177490234375,-0.04371346952021122,-0.0011962423135526477,-0.010524088294943794
1772618135114209500,0.70820947265625,-0.02698912921249866,-0.014951905541401356,0.00007120663926471024
1772618135124241700,0.71824169921875,-0.012666589349508284,-0.002481679014209658,0.009394490609969943
1772618135134273500,0.7282734375,-0.0013198504269123076,0.016333404761366545,-0.0025540318643674253
1772618135144305400,0.738305419921875,0.04625964687168598,0.0060816580012440676,0.011037111284420824
1772618135154337300,0.748337158203125,0.0311965177744627,-0.006613445056695491,0.021690337817789986
1772618135164369700,0.75836962890625,-0.021432664129137993,0.005680675984919071,0.02009109962733928
1772618135174401500,0.768401611328125,-0.022450316739082335,0.007064367161970586,-0.0006038567778188735
1772618135184433400,0.778433349609375,-0.035465281134843825,-0.0016094627569429576,-0.005612638550275005
1772618135194465300,0.78846533203125,-0.034301498052477834,-0.004618289184104651,-0.0047067574854241685
1772618135204497700,0.79849755859375,-0.026555998492240905,0.002141395942866802,-0.004011130770924501
1772618135214529500,0.808529541015625,-0.02178396178483963,-0.009907518166024237,-0.008690023001888767
1772618135224561400,0.8185615234375,-0.004295651367306709,-0.004085917606763542,-0.006754593393323011
1772618135234593300,0.82859326171875,0.040595045238733286,0.0015032624361105262,0.012880757256573996
1772618135244624400,0.838624267578125,0.0204302090883255,-0.006866415170766413,-0.002599834634317085
1772618135254656500,0.848656494140625,-0.009752747729420662,-0.0001851290422491729,-0.003636237610504031
1772618135264688400,0.8586884765625,-0.019308511582016945,-0.010976480838097631,-0.010401069270051085
1772618135274720500,0.868720458984375,-0.019608371311426162,-0.005751841524988413,-0.017658876644889823
1772618135284752400,0.87875244140625,-0.013930910196900367,-0.006226966489758342,-0.01633712195525877
1772618135294784500,0.888784423828125,-0.026387656188011168,0.010588212172873318,-0.005606555869360454
1772618135304816400,0.89881640625,-0.0009849193841218948,-0.0035301651538349687,-0.00943573136923369
1772618135314848500,0.9088486328125,0.005417348873615265,0.015634480978082864,-0.007195843487954698
1772618135324880400,0.91888037109375,0.007950666743516922,0.001406925922166556,0.0065201909824041645
1772618135334912500,0.92891259765625,0.03117079881131649,-0.0118812293917872,-0.00030721648538019504
1772618135344944400,0.9389443359375,-0.01415478208065033,-0.019529004198592156,0.00420171687300317
1772618135354976500,0.9489765625,-0.014434183543920516,0.007197766016982496,0.003387153653684072
1772618135365008600,0.959008544921875,-0.02714695012271404,0.003604326368588954,-0.005267724969587289
1772618135375040500,0.96904052734375,-0.02623158884346485,0.0003562112928368151,-0.01843140452050138
1772618135385072400,0.979072265625,-0.013383797708153724,0.005826715125795454,-0.013346429406409151
1772618135395104500,0.9891044921875,-0.013954875594377516,0.012332096698135137,0.009038142319815232
1772618135405136600,0.99913671875,-0.012046996146440505,-0.004852499798778444,0.003460917576216161
1772618135415168500,1.00916845703125,0.00016015899777412413,-0.00997470165072009,-0.002257524002669379
1772618135425200400,1.019200439453125,0.026318682605028152,-0.005398662439454346,0.01879726499109529
1772618135435232500,1.029232421875,0.01094400334060192,-0.010764408989995717,0.017248811706388367
1772618135445264600,1.0392646484375,-0.005931728136539459,0.004215663199964911,0.006519702358637005
1772618135455296500,1.049296630859375,-0.017872925820946694,-0.007215593934617936,0.0020063622531946747
1772618135465328400,1.059328369140625,-0.023240590333938597,-0.005268752449471503,0.00535315193044953
1772618135475360500,1.069360595703125,-0.02083937441110611,-0.006942768342606723,0.015991797382617367
1772618135485392600,1.079392578125,-0.01368365743756294,-0.003770147922169417,-0.00828020009198226
1772618135495424500,1.089424560546875,-0.011788052949309348,0.0030420345770195124,-0.000770290252752602
1772618135505455600,1.09945556640625,-0.0048012628018856045,-0.0017099822556599974,0.0008506985452026129
1772618135515487500,1.109487548828125,0.002044073048233986,0.003469868067651987,0.0036871595135657114
1772618135525519400,1.119519287109375,-0.0022848960667848587,-0.011551211986131965,0.0008099783757468685
1772618135535551500,1.129551513671875,0.016274842974543572,0.0014072729820385575,0.0027795888151274993
1772618135545583400,1.139583251953125,0.012396540236473083,0.0057176104618236415,0.0023204149047378448
1772618135555615500,1.149615478515625,-0.006155600020289421,0.00314368658689782,-0.008465977588202804
1772618135565647400,1.1596474609375,-0.017222352957725524,0.0008859342553652822,0.010698919705464504
1772618135575679500,1.169679443359375,-0.027087328889966008,0.004117408723570406,-0.0012212397574912757
1772618135585711400,1.17971142578125,-0.01781681171953678,0.005157620225194841,0.00039940654716920105
1772618135595743500,1.189743408203125,-0.01528758550286293,0.002198514691274613,-0.005335072851064614
1772618135605775600,1.199775634765625,-0.011574117937684059,-0.002477021105401218,-0.007480185987823643
1772618135615807500,1.209807373046875,0.015501520514488219,-0.002294102286547422,-0.003893792568147182
1772618135625839400,1.21983935546875,0.00352875864803791,0.0010693462645635008,-0.005578663215436972
1772618135635871500,1.22987158203125,0.003987608331441879,0.00850072010802105,0.0013123612402006983
1772618135645903600,1.239903564453125,-0.003035422173142433,0.016630798539053648,0.0031774153265636414
1772618135655935500,1.249935546875,-0.007508183673024177,0.01211765022985637,0.0070262590747093776
1772618135665967400,1.25996728515625,-0.0083873045951128,0.0046498533661477265,-0.0001384357897331938
1772618135675999500,1.26999951171875,-0.01421089618206024,0.0021413776765577494,-0.008642722394596784
1772618135686031600,1.280031494140625,-0.002388356441259384,0.0033582791856490075,-0.011533575864741578
1772618135696063200,1.290063232421875,-0.01765782176554203,-0.0024663535809144378,-0.006741669979668222
1772618135706095000,1.30009521484375,-0.0021048633247613907,0.00519974233387038,-0.007853238817607052
1772618135716127200,1.310127197265625,-0.015127426505088805,0.004835493865050375,-0.011724061502120457
1772618135726159400,1.320159423828125,-0.008093290084600448,0.0017249240964651107,-0.00907577548304107
1772618135736191200,1.330191162109375,-0.004945055186748504,0.001570080594625324,-0.0069164146252209315
1772618135746222300,1.340222412109375,0.005083586874604225,0.004448832635022699,-0.0018519388764631003
1772618135756254200,1.350254150390625,0.00045534255206584927,-0.014184921490587293,0.001837545024929568
1772618135766286300,1.360286376953125,0.0030120412975549694,-0.022612119704671203,0.005078508840687572
1772618135776318200,1.370318115234375,0.006909048736095428,0.007909658879693597,-0.007527778856060467
1772618135786350300,1.380350341796875,-0.013283844465017318,-0.004075213549658656,0.004426684735296294
1772618135796382200,1.39038232421875,-0.007737316253781318,0.000025846827309578655,-0.00712233986032661
1772618135806414300,1.400414306640625,-0.007285480833053588,-0.0011214965769089757,-0.00921632103146985
1772618135816446200,1.4104462890625,-0.018061141869425774,0.0022912344760261474,-0.01639652399229817
1772618135826478300,1.420478271484375,-0.0077425769507884976,0.0032633491775020955,0.014255196548090316
1772618135836510200,1.43051025390625,-0.004320785808563233,0.0006967135598883032,-0.004282732520229183
1772618135846542300,1.440542236328125,-0.005985504150390624,0.0033161205443553625,-0.00004651058942545205
1772618135856574200,1.45057421875,-0.008523498195409774,-0.012480674855969846,-0.0047769275116501374
1772618135866606300,1.4606064453125,-0.010617840126156807,-0.004852591130323707,0.0011218938691308722
1772618135876638200,1.47063818359375,-0.007618658310174942,-0.004632372508384287,0.0016985018804203719
1772618135886670300,1.48067041015625,0.0021177228063344955,0.0008898067128844558,-0.005293471332197077
1772618135896702200,1.4907021484375,-0.014032617005705832,0.0025531916141510007,0.0017623289308277888
1772618135906734300,1.500734375,-0.016575287225842474,-0.008853625198919326,-0.005661729255854152
1772618135916766200,1.51076611328125,-0.00011164368093013762,0.0149707746386528,-0.0026582685569766906
1772618135926798300,1.52079833984375,0.0015372925698757171,0.006729472651798278,-0.0007740850784583017
1772618135936830200,1.530830322265625,-0.002065115836262703,-0.01139165577655658,0.004762350997026078
1772618135946862300,1.5408623046875,-0.003866612300276756,0.0057498139646835625,0.0011007003840524702
1772618135956894200,1.550894287109375,0.009292144480347634,0.012843407221138477,-0.00553428065101616
1772618135966925300,1.56092529296875,-0.0008896423161029815,-0.0014707666723057626,-0.0071141428541392085
1772618135976957400,1.57095751953125,-0.0020826514929533,0.006052651102468371,-0.0019010204488877206
1772618135986989300,1.5809892578125,-0.0037310032218694686,-0.0061793096894398325,-0.0016440180470934137
1772618135997021200,1.591021240234375,0.0036152678877115246,-0.006227660609502345,-0.012410075571481138
1772618136007053300,1.60105322265625,-0.009096329647302627,-0.0030923217258416115,-0.006691154501982964
1772618136017085400,1.61108544921875,-0.015685644909739494,0.0034050592031329868,0.004292409097449853
1772618136027117300,1.621117431640625,-0.009551672199368475,0.005083513809368014,-0.01754413682457525
1772618136037149200,1.631149169921875,0.006462474012374877,-0.003111026426311582,-0.002168366148183122
1772618136047181300,1.641181396484375,-0.008802315136790275,0.0022681823940016326,-0.008015480174613185
1772618136057213200,1.651213134765625,-0.018529343903064727,-0.013522530325409024,0.00011307301961351186
1772618136067245300,1.661245361328125,-0.021531448328495024,0.008728647112380713,0.0053535903218667955
1772618136077277200,1.671277099609375,-0.0046247371912002564,0.0025464878787286576,-0.004312456371635198
1772618136087309300,1.681309326171875,-0.008211363506317139,0.0001692738859914243,-0.00016490367155056447
1772618136097341200,1.691341064453125,-0.01553892991542816,-0.0025216456984169778,-0.0011229396153241396
1772618136107373300,1.701373291015625,-0.0005664017111063003,-0.001985693924501538,-0.006814255725266411
1772618136117405200,1.7114052734375,-0.005351297900080681,0.009520327213034033,0.011731518722791224
1772618136127437300,1.721437255859375,-0.0058031333208084105,0.008823631919454783,0.005933038744213991
1772618136137469200,1.73146923828125,-0.017328151419758797,0.015525394580420106,0.0034468525182455778
1772618136147501300,1.741501220703125,-0.00400455946624279,-0.00973714830148965,-0.0033692800702759995
1772618136157533200,1.751533203125,-0.01911737292408943,0.00032665640478953716,-0.010428153639798984
1772618136167565300,1.7615654296875,-0.020019874721765515,-0.0033422048336826265,-0.004719155742693692
1772618136177596400,1.771596435546875,0.001522095000743866,-0.006646854135952889,0.0059447657146258276
1772618136187628300,1.781628173828125,-0.006261398482322693,-0.0013533143050968646,0.0010207441827515139
1772618136197660200,1.79166015625,-0.010000000488758086,-0.013342077458277344,0.010467595167621038
1772618136207692300,1.8016923828125,-0.017030629777908323,-0.006695679980050772,0.006122761763189919
1772618136217724400,1.811724365234375,-0.000412087932229042,0.005877385867107659,0.003814064695709385
1772618136227756300,1.82175634765625,-0.008040683114528656,0.008863233277481048,-0.008544216756452805
1772618136237788200,1.8317880859375,-0.017314122894406318,0.00040803281161934135,0.008337378205894492
1772618136247820300,1.8418203125,-0.003996960681676864,-0.00702133173784241,0.00995752218705602
1772618136257852400,1.851852294921875,-0.004451718711853027,0.0018290237917564808,-0.003486746137216687
1772618136267884300,1.86188427734375,-0.007297755792737007,0.006236008312739432,0.004859655625349841
1772618136277916200,1.871916259765625,-0.01912964788377285,-0.0004947612470015883,-0.0030541314401896667
1772618136287948300,1.8819482421875,-0.0023719898283481597,-0.00842361801750958,0.0036957994777476414
1772618136297980400,1.89198046875,0.003011456775665283,-0.01089296727310866,-0.006053719681547954
1772618136308012300,1.90201220703125,-0.004468669846653938,0.002221292778663337,-0.00033241942529566585
1772618136318044200,1.912044189453125,-0.01883154172003269,0.00724518535528332,0.012622485346300527
1772618136328076300,1.922076171875,-0.019580898782610892,-0.0021059410369955,0.003190996327344328
1772618136338108400,1.9321083984375,-0.004468085324764251,0.0008223857661709189,-0.0011797021707054226
1772618136348140300,1.942140380859375,-0.007305354577302932,0.0017024200037121771,-0.000033148784353397785
1772618136358172200,1.952172119140625,-0.003115501672029495,0.0036624680303037165,-0.009842197844851762
1772618136368204300,1.962204345703125,-0.009703063368797301,-0.007653766156174242,-0.012334306921530515
1772618136378235400,1.9722353515625,-0.0049193362236022945,0.008647672564350069,-0.006614267040602862
1772618136388267300,1.982267333984375,-0.00881517461836338,-0.0053073126278817655,-0.005718619675398804
1772618136398299100,1.992299072265625,-0.007620411875844001,-0.010664053888060151,-0.01238691845817957
1772618136408331300,2.002331298828125,0.00270049113035202,-0.006514971384592354,0.00797324846808333
1772618136418363400,2.01236328125,-0.007327566409111023,-0.00421498734652996,0.008499729160754942
1772618136428395300,2.022395263671875,-0.011364859101176262,0.00811078920867294,0.01230442780649755
1772618136438427100,2.03242724609375,0.0036029929280281064,0.00787774763777852,-0.0011133315367624164
1772618136448459300,2.042459228515625,-0.00492518144249916,0.008197261915728449,-0.00882236241097562
1772618136458491400,2.052491455078125,-0.016443769800662995,0.005101414792239666,-0.005573772411188111
1772618136468523300,2.062523193359375,-0.022279051825404166,0.013610829663369803,-0.015140317952702752
1772618136478555100,2.07255517578125,-0.009861468800902365,0.00039511853111907837,0.004368757702712901
1772618136488587300,2.082587158203125,0.000009352350234985351,-0.009643533467594534,0.0000136266665533185
1772618136498619400,2.092619384765625,0.005692074161767959,0.00796557205170393,-0.002507018951443024
1772618136508651300,2.1026513671875,-0.0019365210205316541,0.0012076952893286942,0.0015702358582522719
1772618136518683100,2.11268310546875,-0.0005868599772453308,0.00406200700821355,-0.013390579075389542
1772618136528715300,2.12271533203125,-0.0013332944303750991,-0.003938088367599994,-0.012507010307046583
1772618136538747400,2.132747314453125,0.005554711517691612,-0.0012420907492749391,0.00571562400071416
1772618136548779300,2.142779296875,-0.019282792618870732,-0.0008116634427569806,0.00015387538745999336
1772618136558811100,2.15281103515625,-0.006860533419251442,0.0035841238307766613,-0.01829127453060355
1772618136568842200,2.16284228515625,-0.01284545304775238,0.0014729038304649293,-0.0008013064455240965
1772618136578874400,2.172874267578125,-0.0025210429102182387,-0.0020721848978661,0.001738185436837375
1772618136588906200,2.18290625,-0.003715221130847931,0.0031964762200601396,-0.007893630193499849
1772618136598938000,2.192938232421875,0.0001771101325750351,0.001805295856297016,-0.013846031225309707
1772618136608970200,2.20297021484375,0.0034632921963930127,-0.0017334361964836717,-0.007770318907662294
1772618136619002400,2.21300244140625,0.004206804040074348,0.0073466547020711,0.002335996066359803
1772618136629034200,2.2230341796875,-0.012849544700980186,0.008578698981367051,0.002240463270014152
1772618136639066000,2.233066162109375,0.0022679449319839475,-0.004711264697182923,-0.014427128182048908
1772618136649098200,2.24309814453125,0.01229775603711605,-0.003963222808856517,-0.00994706929170061
1772618136659130400,2.25313037109375,-0.005061959564685821,-0.000769486535154283,0.0039036563750356433
1772618136669162200,2.263162353515625,-0.0034112697482109066,0.009406802102271466,-0.008402926855930127
1772618136679194000,2.273194091796875,0.006318097105622291,0.0007933788673952221,0.009043393883667886
1772618136689226200,2.283226318359375,-0.009689619365334511,-0.00018302841670811174,-0.0021856780425878243
1772618136699258000,2.293258056640625,-0.00834112736582756,-0.005020604640990496,-0.012424501389055513
1772618136709290000,2.3032900390625,-0.005796703580021858,0.0004656995492987334,0.003032316900603473
1772618136719322000,2.313322021484375,-0.0039998832911252976,0.009013619799911976,-0.008286328438669442
1772618136729354200,2.323354248046875,0.004677344161272049,0.011474913613218814,0.01794376713403035
1772618136739386000,2.33338623046875,-0.0019125556230545043,-0.003277469034399837,-0.0042583378644892944
1772618136749418000,2.34341796875,-0.0038572599500417705,-0.012403024776186794,0.00602977711695712
1772618136759449000,2.353448974609375,-0.01163724630177021,0.0016179748569615183,0.0028757654988672584
1772618136769481200,2.363481201171875,-0.01537818639576435,0.001058660473767668,0.008115867242589593
1772618136779513000,2.37351318359375,-0.007447393396496772,-0.006696374099794775,-0.011869602886075152
1772618136789545000,2.383544921875,-0.02016308258473873,-0.0026656938116066155,-0.018534490435640327
1772618136799577000,2.3935771484375,-0.018815175107121468,-0.00448056121384725,-0.010798850115714595
1772618136809609200,2.403609130859375,-0.0019061258822679519,-0.009286171397287398,0.007041639306931756
1772618136819641000,2.41364111328125,-0.010736498069763184,0.0006226254103705287,0.001541073695849627
1772618136829673000,2.4236728515625,-0.02839431983530521,0.003924863559845834,0.0014873981466982512
1772618136839705000,2.433705078125,-0.01298223116993904,-0.009407240493688731,-0.011614354049949906
1772618136849737200,2.4437373046875,-0.009693711018562316,-0.003157842976413667,0.01467566871617455
1772618136859769000,2.45376904296875,0.006914893954992294,0.00006606923984363675,-0.00019732637011911719
1772618136869801000,2.463801025390625,-0.009695464584231376,-0.0003554441078566015,-0.012291175599279813
1772618136879833000,2.4738330078125,0.00168225399851799,0.0024717604083940386,-0.005907525277044624
1772618136889865200,2.483865234375,-0.0023567922592163085,-0.0008869754349812865,0.009772516442392952
1772618136899897000,2.49389697265625,0.00003682487905025482,-0.007277096597198397,-0.007342823343747295
1772618136909929000,2.503928955078125,-0.008794131830334662,-0.008813494117930532,0.006614404037920758
1772618136919961000,2.513961181640625,-0.006553659427165985,0.004929108698945492,-0.012727146730595268
1772618136929993200,2.5239931640625,-0.017030045256018637,0.00359842635076493,-0.0019002212978666646
1772618136940024000,2.534024169921875,0.00331657720208168,-0.006318809491675347,-0.007245002692192792
1772618136950056200,2.54405615234375,-0.004611293187737464,0.0006079027652740478,-0.003944951933226548
1772618136960088000,2.554088134765625,-0.00281856455206871,0.011789057596307247,-0.00006849865894764662
1772618136970120200,2.5641201171875,-0.019579145216941832,0.001209448854997754,-0.0033321081313537433
1772618136980152000,2.574152099609375,-0.010751695638895034,0.0006704283411614597,-0.020317469428852198
1772618136990184200,2.58418408203125,-0.0031207623690366745,-0.0015374569666571913,0.017557873088982885
1772618137000216000,2.594216064453125,-0.003267477363348007,0.011388258243072777,0.0038840383591130373
1772618137010248200,2.604248291015625,0.000772153416275978,-0.001014017614442855,-0.019173345461604183
1772618137020280000,2.614280029296875,-0.004468085324764251,-0.0022362711520865558,0.00916364556273911
1772618137030312000,2.62431201171875,0.009296820655465126,0.004130268205143511,0.017450316494703293
1772618137040344000,2.634343994140625,-0.0013256956458091735,-0.0046133390143513675,0.001299337361846119
1772618137050376200,2.644376220703125,-0.012398293802142142,-0.0009186857474967837,-0.00448452956948895
1772618137060408000,2.654407958984375,-0.011645429608225821,-0.007371953540109098,0.0006115879931254312
1772618137070440000,2.66443994140625,-0.009996493357419967,0.0034075616874732076,0.0010138029853114857
1772618137080472000,2.67447216796875,0.006764671829342842,0.0060330148202367125,-0.006893106814869679
1772618137090504200,2.684504150390625,-0.007300093880295753,-0.005507785369735211,-0.0045972920618485656
1772618137100536000,2.6945361328125,0.0018237082958221435,0.004465929900296033,-0.005663332124473527
1772618137110568000,2.70456787109375,-0.01583528251349926,0.005826861256267875,0.0020673123599262906
1772618137120599000,2.71459912109375,-0.00895195274055004,0.005808412284124642,-0.011636675479612313
1772618137130631200,2.724631103515625,-0.003861351603269577,-0.006126172996405512,-0.007161936651775613
1772618137140663000,2.7346630859375,-0.005503273591399192,-0.021560071634780614,-0.011137110193329863
1772618137150695200,2.744695068359375,0.009163549664616584,-0.013279679746553301,-0.00410827100246679
1772618137160727000,2.75472705078125,-0.006099485918879509,-0.005645001883339136,0.005868490174598991
1772618137170759200,2.76475927734375,-0.02629997790455818,-0.007141542317718267,-0.012297358744894153
1772618137180791000,2.774791015625,-0.015230302357673644,-0.005319697185419499,-0.010742055594292468
1772618137190823200,2.7848232421875,-0.016124036327004432,-0.004835585196595639,-0.011536443675262853
1772618137200855000,2.79485498046875,-0.004751578441262245,0.002154419821221381,0.006281436623353511
1772618137210887200,2.80488720703125,-0.009537643674015998,-0.005555149909108877,0.00957361460311804
1772618137220919000,2.8149189453125,-0.011038695886731146,-0.0018171324245631693,0.002209227881534025
1772618137230951200,2.824951171875,0.0072153382062911985,-0.008934435350168496,-0.012625640851189382
1772618137240983000,2.834983154296875,-0.006555412992835044,-0.0017538761963136493,-0.009066354634147136
1772618137251015200,2.84501513671875,0.004517769685387611,-0.00800966692175716,0.006026224319846369
1772618137261047000,2.855047119140625,-0.005060790520906448,-0.001209138327743858,-0.007871582758473232
1772618137271079200,2.8650791015625,-0.01658639314174652,0.009230002496950327,0.004682467860961333
1772618137281111000,2.875111083984375,-0.007759528085589409,0.004357811617013067,-0.006085918617830611
1772618137291142000,2.885141845703125,0.002567220139503479,-0.009774082778394222,-0.012823560876352712
1772618137301174300,2.89517431640625,-0.00462064553797245,0.003743880969751626,0.00711700609808322
1772618137311206100,2.9052060546875,-0.011203531059622764,0.008499204004369676,-0.00361346408969257
1772618137321238000,2.915238037109375,-0.009852116450667381,-0.00379042352521792,-0.009763853645324706
1772618137331270100,2.925270263671875,-0.01030219830572605,-0.005552757022622972,0.004706643320992588
1772618137341302300,2.93530224609375,-0.001925415104627609,-0.01022880427595228,0.01485990270928014
1772618137351334100,2.945334228515625,0.009001637101173401,-0.0009432174005545675,-0.008937732418952508
1772618137361366000,2.955365966796875,-0.0028220716834068296,0.006951097779534757,0.0003004396847216412
1772618137371398100,2.965398193359375,0.0034597850650548933,-0.0040677426292560995,0.0008245822898345068
1772618137381430300,2.97543017578125,-0.003723404437303543,-0.0094178349529393,0.006580812295572832
1772618137391462100,2.985462158203125,-0.012404723542928695,0.005472494860645384,0.00866276966878213
1772618137401494000,2.995493896484375,-0.02153203285038471,0.006645593760628253,0.0012839479964692146
1772618137411526100,3.005526123046875,-0.012856558963656424,0.006010602059029042,-0.01731072992749978
1772618137421558000,3.01555810546875,-0.001188333001732826,0.004029072852991521,-0.0037164678064407776
1772618137431590100,3.025590087890625,-0.0013356325179338453,-0.012201547387335449,-0.007249624068383127
1772618137441622000,3.0356220703125,0.002257423537969589,-0.0019860592506825924,-0.014019383064797147
1772618137451654100,3.045654052734375,-0.002682370951771736,-0.006413282842095941,-0.003707211354328319
1772618137461685200,3.055685302734375,-0.01031447326540947,0.0015017828650772571,-0.0035859550282591954
1772618137471717000,3.065717041015625,-0.014653379252552985,0.0020297522619366643,-0.0059761335338465865
1772618137481749000,3.0757490234375,0.00360416197180748,0.008679200213775037,0.0016045628195395692
1772618137491781000,3.085781005859375,-0.013301380121707916,0.005471252751629799,-0.003408475002925843
1772618137501813200,3.095813232421875,-0.00596738397181034,0.004834014294017106,-0.002586637226026505
1772618137511845000,3.10584521484375,-0.007609890481829642,-0.002024071439821273,0.005485683135781437
1772618137521877000,3.115876953125,-0.005066635739803314,-0.006193411280028521,0.013406297234329394
1772618137531908900,3.125908935546875,0.0025648820519447325,-0.006192004774231463,-0.00709304070060607
1772618137541941200,3.135941162109375,0.004958499190211295,0.0012999949489720165,0.004083488187659532
1772618137551973000,3.14597314453125,-0.010900164198875427,0.0018253705299459398,-0.00446190217914991
1772618137562005000,3.1560048828125,-0.010005261185765266,-0.004493073635548353,0.0073941927713807665
1772618137572037000,3.166037109375,0.00047229368686676023,-0.0006612038550898432,-0.01348733114786446
1772618137582069200,3.1760693359375,0.006907295170426368,-0.0009598032091744244,-0.004454317094315774
1772618137592101000,3.18610107421875,-0.00985036288499832,0.005997176321875303,0.0025134030264569447
1772618137602133000,3.196133056640625,-0.00805529616177082,-0.00029423370622098444,-0.003879138421709649
1772618137612165000,3.2061650390625,-0.011199439406394958,-0.004435954887140542,0.00598720748370979
1772618137622197200,3.216197265625,-0.0067132339030504225,0.004179349777568131,-0.006207375873299315
1772618137632228000,3.22622802734375,-0.008209025418758393,0.007577997506223619,-0.01346976352513302
1772618137642260000,3.236260009765625,-0.007460252878069877,0.012031013126019388,0.004240765675180592
1772618137652292000,3.2462919921875,-0.009701894325017928,0.014054719239659607,0.0002000526167452335
1772618137662324200,3.25632421875,0.009302081352472305,0.00643670025030151,0.010256706063030287
1772618137672356000,3.266356201171875,-0.013747954845428467,-0.013106752598751336,-0.0006325577159179374
1772618137682388000,3.276387939453125,-0.01360007080733776,-0.009319032487273216,-0.0017746038905112071
1772618137692420400,3.28642041015625,0.0024099837511777876,0.0017789558386430142,-0.003620058227260597
1772618137702452200,3.2964521484375,0.008696516674757003,-0.006844769594538957,-0.0011857985513517631
1772618137712484400,3.306484375,-0.007169160977005958,-0.001424625975638628,-0.002426816154969856
1772618137722516200,3.31651611328125,-0.007018354329466819,0.0011207659245468676,0.0009241610736353323
1772618137732548400,3.32654833984375,-0.003276245191693306,-0.013009082644246517,-0.009839138238085434
1772618137742580200,3.336580322265625,-0.0019289222359657287,-0.0009398929323069751,-0.003502738290792331
1772618137752612400,3.3466123046875,-0.007167991933226585,0.00568485896969214,-0.0055304949584649874
1772618137762644200,3.356644287109375,0.00046001872718334194,0.0025139738486148417,0.0008891034599859267
1772618137772676400,3.36667626953125,-0.011810264781117439,-0.009443024193122982,-0.0052284798045875505
1772618137782707200,3.376707275390625,-0.013610007679462433,0.009280161781609057,-0.013343881256296299
1772618137792739000,3.386739013671875,-0.024983050087094307,0.0006351743646897376,-0.0018945404757512731
1772618137802771500,3.396771484375,-0.0002928454667329788,-0.010599884344357997,0.00565120329526253
1772618137812803300,3.40680322265625,-0.0026888006925582884,-0.0023068156376481056,0.00027155151695478706
1772618137822835200,3.416835205078125,0.006285363879799843,-0.00021607216978445647,0.007313894076785072
1772618137832867300,3.426867431640625,-0.00374444722533226,-0.004126194818224758,-0.004163832548027858
1772618137842899200,3.436899169921875,-0.0025479309171438217,0.004521897871233522,-0.008090961130196228
1772618137852931300,3.446931396484375,-0.0032978725016117095,0.0046957383344881235,0.009017693186830728
1772618137862963200,3.456963134765625,-0.011374795973300933,0.01007995212348178,-0.0018602089478867128
1772618137872995300,3.466995361328125,-0.01092179150879383,0.0024949586208909747,0.004701428289758041
1772618137883027200,3.477027099609375,-0.0017921441137790678,0.0036608605951070784,0.009009235885739326
1772618137893059300,3.487059326171875,-0.01241933659017086,0.004072199608664959,-0.0011326938243582845
1772618137903091200,3.49709130859375,-0.0073345806717872615,0.013112122893612832,-0.019844604919827542
1772618137913123300,3.507123291015625,-0.0085310969799757,-0.009178454972803592,-0.0024313872988102956
1772618137923155200,3.5171552734375,-0.007032382854819297,0.004945676241256297,-0.011556883675092831
1772618137933187300,3.527187255859375,0.0035872108370065686,-0.0059643334981985385,-0.010216141157201491
1772618137943218200,3.53721826171875,-0.001502221256494522,0.001265124564990401,-0.00037578364298678933
1772618137953250000,3.54725,0.008973580050468444,0.002821578493062407,0.0031306535753887143
1772618137963282400,3.557282470703125,-0.0009065934509038925,0.016085403083357958,-0.013190325529244727
1772618137973314300,3.567314208984375,-0.01482347512245178,0.00024639424281194805,-0.009283865275769495
1772618137983346200,3.57734619140625,0.0040320319950580595,-0.0038142975911498065,-0.0026078718103002755
1772618137993378000,3.5873779296875,-0.0015057283878326415,-0.008587722538039088,0.0009808779632439837
1772618138003410400,3.597410400390625,-0.009582067337632179,-0.005888875375501811,-0.028760317303217015
1772618138013442300,3.6074423828125,-0.016160276684165,-0.012831808114890009,-0.008861776539334095
1772618138023474200,3.61747412109375,-0.01750526155233383,-0.007791220131795853,-0.007591213180823251
1772618138033506000,3.627506103515625,-0.0028419454276561737,0.0016768654373474417,0.004961572496709413
1772618138043538400,3.637538330078125,-0.005981997019052505,0.006558773993700743,0.013146175860264338
1772618138053570300,3.6475703125,-0.01615735407471657,-0.01079710568320006,0.003294470401550643
1772618138063602200,3.657602294921875,0.005384031125903129,-0.0028146190293133256,0.005431276934267953
1772618138073634300,3.66763427734375,-0.02365092470049858,-0.01028321961062029,-0.007396352762426249
1772618138083666400,3.67766650390625,-0.023953122517466542,-0.004748144375160336,-0.015348325547040438
1772618138093697300,3.687697265625,-0.006596914047002792,-0.0015529650630429386,-0.0001286861472763121
1772618138103729200,3.697729248046875,-0.0015074819535017012,0.0022655885781161485,0.01720335599631071
1772618138113761300,3.70776123046875,-0.013484335473179817,0.004846928574517369,-0.01221858528710436
1772618138123793400,3.71779345703125,-0.01917348702549934,-0.0013643836883828044,-0.013933928704471327
1772618138133825300,3.7278251953125,-0.007651976057887077,0.012566435176972299,0.007567439579591154
1772618138143857200,3.737857177734375,0.003269230929017067,-0.0050543242475017906,0.002788717403076589
1772618138153889300,3.74788916015625,-0.0028635727375745774,-0.003352452233061194,0.003500980158546008
1772618138163921400,3.75792138671875,-0.006753565913438796,0.0044203371929004785,-0.0045949128750944505
1772618138173953300,3.767953369140625,-0.00525543631017208,-0.006127616034820676,-0.010773163118609227
1772618138183985200,3.777985107421875,-0.006451952618360519,0.005817819433286786,0.0019360049973009153
1772618138194017300,3.788017333984375,-0.01393032567501068,0.008703695334214716,-0.005306047685979865
1772618138204049400,3.79804931640625,-0.002856558474898338,-0.008211582702025771,-0.012271493651275523
1772618138214081300,3.808081298828125,0.0014858546435832975,-0.004138214049581438,-0.008422855399106628
1772618138224113200,3.818113037109375,-0.010931143859028816,-0.010963968416396528,-0.0059725990030448884
1772618138234145300,3.828145263671875,-0.008535773155093192,0.011315832327678799,-0.0042740057910792524
1772618138244176100,3.838176025390625,-0.004494973331689835,0.011633775703050195,-0.001735335892625153
1772618138254208300,3.848208251953125,-0.011381225714087485,-0.009366707553900778,-0.00498301714353729
1772618138264240400,3.858240478515625,-0.018266309052705765,-0.004824935938417911,0.0033062019385397432
1772618138274272300,3.868272216796875,-0.011834814700484276,-0.005494341366272419,0.00905123469682876
1772618138284304400,3.878304443359375,-0.024707155755162236,0.001851308688800782,0.009828511812794021
1772618138294336300,3.888336181640625,-0.014381576573848724,0.0010607976319268345,-0.020086090092081576
1772618138304368400,3.898368408203125,0.00013268646895885466,-0.01044376220088452,0.009684892957867123
1772618138314400300,3.908400146484375,0.0019289222359657287,-0.010914850311353802,0.0054779427873203525
1772618138324432400,3.918432373046875,-0.004204465952515602,0.013686360851302742,-0.007598506004712544
1772618138334464300,3.92846435546875,-0.0024099837511777876,0.009233290432579816,-0.008673158632055856
1772618138344496000,3.93849609375,-0.011837152788043022,0.002028290957212448,-0.005187088348274119
1772618138354528300,3.9485283203125,-0.010192308190464973,-0.005555113376490771,-0.00832696640973445
1772618138364560400,3.958560302734375,-0.006301730492711067,-0.0051311888759955765,0.0052535548803396516
1772618138374592300,3.96859228515625,-0.018871873730421065,0.00313011471927166,0.006733815466775558
1772618138384624000,3.9786240234375,-0.010642390045523644,-0.005281611931044608,-0.0004475063054822385
1772618138394655200,3.9886552734375,-0.016480010157823563,0.004363054047711193,-0.01584910097629763
1772618138404687000,3.99868701171875,-0.007498831322789192,-0.00564489228548482,0.0003538732052780688
1772618138414719200,4.00871923828125,-0.00779869105219841,-0.00038485286543145776,-0.006215869707008824
1772618138424751400,4.01875146484375,-0.019175240591168402,-0.002805960798822343,0.0010485592048615217
1772618138434783200,4.028783203125,0.005962123274803161,0.005958798806555569,-0.010991509443870746
1772618138444815000,4.038815185546875,-0.010050269371271132,0.01618303650524467,-0.009178756366902963
1772618138454847200,4.04884716796875,-0.010795534780621528,0.005466229516640306,-0.010973457763949408
1772618138464879400,4.05887939453125,-0.004968436062335968,0.0033595030283555386,-0.020165868196869267
1772618138474911200,4.0689111328125,-0.012002572482824325,0.0028040245700627566,-0.0017825999672990292
1772618138484943000,4.078943115234375,-0.01095452473461628,-0.002334708291571587,0.0031722961934516204
1772618138494975200,4.088975341796875,-0.015442483803629874,0.013306421623006463,0.004129564952244982
1772618138505007400,4.09900732421875,-0.010058452677726745,0.002490300712082535,-0.008430367418704555
1772618138515039200,4.109039306640625,-0.011102408772706985,-0.001394705761410296,-0.0052233515383210034
1772618138525071400,4.1190712890625,-0.022325229054689404,-0.0010735840482637286,0.01226522374069318
1772618138535102500,4.1291025390625,-0.009757423904538154,-0.0026437194418162105,0.005547615056624636
1772618138545134300,4.13913427734375,0.008049450942873954,0.00589851998668164,0.002208141036145389
1772618138555166200,4.149166259765625,-0.0051198272317647935,-0.00004049640716984868,-0.003234292046376504
1772618138565198000,4.159197998046875,-0.00421674091219902,-0.0021964505983516572,0.007643450258136727
1772618138575230500,4.16923046875,-0.012293664383888243,0.015998217990249395,-0.009199022836796938
1772618138585262300,4.179262451171875,-0.009748656076192855,0.003826499485597014,-0.006219911127886735
1772618138595294200,4.189294189453125,-0.008103811478614806,-0.004239372869115322,-0.009141926921275443
1772618138605326000,4.199326171875,0.004911152917146683,-0.012384521005116403,-0.006287322941445745
1772618138615358500,4.2093583984375,-0.016487608942389487,-0.012956019016448408,-0.010204071693494915
1772618138625390300,4.219390380859375,-0.021423896300792694,0.0014686112478375433,-0.004898645062022842
1772618138635422200,4.229422119140625,0.003114332628250122,-0.0015876893165521324,0.0031904940038453788
1772618138645454000,4.2394541015625,0.008204349243640899,0.0032916802228428422,-0.001502636815025471
1772618138655486500,4.249486572265625,0.0007288987964391708,-0.0021534699731506407,-0.01100881220512092
1772618138665518300,4.259518310546875,0.0029769699841737745,0.0016336656164377926,0.0006485818355344235
1772618138675550200,4.26955029296875,0.006870470291376113,-0.0066692486308515065,-0.00031313476951327175
1772618138685581300,4.279581298828125,-0.0013619360029697416,0.006724650346208364,0.009811154252616689
1772618138695613000,4.289613037109375,-0.006745967128872871,-0.0068775941519066686,-0.0010763833601260557
1772618138705645000,4.29964501953125,-0.0013578443497419357,-0.0035019254400394857,0.0020102712433319537
1772618138715677000,4.309677001953125,0.0031318682849407193,0.0013656257973983883,0.011554705417738296
1772618138725709000,4.319708984375,-0.00988835680782795,-0.0030792247822508216,0.008769426647340879
1772618138735741000,4.329740966796875,-0.013030746486783026,0.00638012949116528,0.005417175343679264
1772618138745773000,4.33977294921875,0.006570610561966896,-0.003040701136458665,-0.0020097141209058462
1772618138755805000,4.349804931640625,-0.011384732845425604,0.0010929463358595967,-0.008628123047086409
1772618138765837000,4.359837158203125,-0.0003121346890926361,0.0006849500568583607,0.0023217803113395347
1772618138775869000,4.369868896484375,-0.0031546646386384964,-0.008890340480115264,0.008579265236947685
1772618138785901000,4.379901123046875,-0.007798106530308723,-0.006031991906929761,-0.0021009817340876904
1772618138795933000,4.389932861328125,0.004767360532283783,-0.011440700816363095,0.010433765963255428
1772618138805965000,4.399965087890625,0.003572597789764404,-0.013142536298185585,0.010350024069403298
1772618138815996000,4.409995849609375,-0.011539046624302864,0.003375193787831813,-0.006757045645313337
1772618138826027800,4.42002783203125,-0.01647124232947826,0.010844744217209518,-0.011111806788714602
1772618138836060200,4.43006005859375,-0.00045709611773490905,-0.0016353461168706416,-0.009759255102020688
1772618138846092000,4.440092041015625,0.0002928454667329788,0.0015817892987281083,0.01627026726412587
1772618138856124000,4.4501240234375,-0.007186112111806869,-0.002266885486058891,-0.007356979733263142
1772618138866155800,4.46015576171875,-0.008536942198872566,0.003450432714819908,-0.002186883618985303
1772618138876188200,4.470188232421875,-0.010037994411587715,-0.003277158507145941,-0.014623121111607178
1772618138886220000,4.480219970703125,-0.000012859481573104858,-0.007163133095018565,-0.004804911497118883
1772618138896252000,4.490251953125,0.0014864391654729843,0.001714475767686963,0.0031297722259769215
1772618138906284000,4.500283935546875,-0.009887772285938262,0.002083838803041726,0.008658778480254113
1772618138916316200,4.510316162109375,-0.0043517654687166216,0.01078035547779873,0.015247586852614767
1772618138926348000,4.52034814453125,-0.01153787758052349,0.003101710608694702,-0.00966759476319421
1772618138936380000,4.5303798828125,-0.006301730492711067,-0.0023662724736146627,-0.002405408040760085
1772618138946412000,4.540412109375,-0.014232523491978644,0.007786324760969728,0.007588678730442188
1772618138956443100,4.550443115234375,-0.01632452733516693,-0.009633139937743543,-0.01264792118165642
1772618138966475000,4.56047509765625,-0.018570844957232473,-0.00941040056515485,-0.011138165072677656
1772618138976507000,4.5705068359375,-0.004806523498892784,-0.0009298647286370396,-0.005821358530665748
1772618138986539000,4.5805390625,0.00761047500371933,0.00035979148941114544,-0.016743200271809474
1772618138996571100,4.590571044921875,0.0005804302364587784,-0.00381769512463361,-0.0010085148888407274
1772618139006603000,4.60060302734375,-0.011685761618614196,-0.008138225204870104,0.0021928384357364846
1772618139016635000,4.610634765625,-0.015428455278277397,0.015376743357349187,0.0013023147702217101
1772618139026666800,4.620666748046875,-0.000015197569131851195,0.0012998670848086476,0.001778380449907854
1772618139036699100,4.63069921875,-0.011388239976763725,0.016724431639257818,-0.011267896966147236
1772618139046731000,4.64073095703125,-0.018422376397252083,-0.0017980623979121447,-0.008009210264030843
1772618139056763000,4.650762939453125,-0.013629881423711776,0.010957483876682817,-0.003580694331252016
1772618139066794800,4.660794677734375,-0.00734334850013256,-0.0032859994007274507,-0.0011713681672001256
1772618139076827100,4.6708271484375,-0.01781681171953678,-0.002530577923543751,0.004988903461629525
1772618139086858000,4.68085791015625,-0.012882277926802634,-0.0034619587558321653,0.002229859677609056
1772618139096889900,4.690889892578125,-0.016025836649537085,-0.005351425764244049,-0.002385607361746952
1772618139106922000,4.700921875,-0.008849076887965202,0.007400047123432159,-0.009774772331560962
1772618139116954000,4.7109541015625,-0.01587912165522575,0.005849730675201862,0.007142651995993219
1772618139126986000,4.720986083984375,-0.011838321831822395,-0.0037632797899655995,0.006795500792446546
1772618139137017900,4.731017822265625,-0.005846972462534904,-0.009658895433507859,-0.002491807682579383
1772618139147050000,4.741050048828125,-0.011539046624302864,-0.004395348882116377,-0.010351777635072357
1772618139157082000,4.75108203125,0.0001315174251794815,0.0062797743892297146,0.0005848643829813227
1772618139167114000,4.761114013671875,-0.020366496202349663,-0.0020401457917876543,-0.0014126021777046843
1772618139177145900,4.771145751953125,-0.007646130838990211,-0.003849971692729741,-0.0024591566551476715
1772618139187178000,4.781177978515625,-0.007196633505821228,-0.007630695807840674,0.0012016491410322488
1772618139197210000,4.791210205078125,0.0014782558590173721,-0.0009144296974875032,-0.010661368740629404
1772618139207242000,4.801241943359375,-0.012144611302018165,0.008016626385506242,0.0005669131677597761
1772618139217273000,4.811273193359375,-0.008552139768004417,-0.004581135511491447,0.006844491033325903
1772618139227305000,4.821304931640625,-0.002715104177594185,0.008391944237612187,-0.00417211631918326
1772618139237336800,4.8313369140625,-0.0024175825357437134,-0.0049993609235621985,-0.020282393548893742
1772618139247369000,4.841368896484375,0.0037181437402963634,0.0032406258890405296,0.00028336068575736135
1772618139257401000,4.851401123046875,-0.0036152678877115246,-0.0014763013639487324,-0.005140495560457929
1772618139267433000,4.861432861328125,-0.00795768100619316,-0.0033174905175343155,-0.011739528499310835
1772618139277464800,4.87146484375,-0.006913140389323234,-0.006038165919389576,-0.0033909165133489292
1772618139287497000,4.8814970703125,-0.00660918900668621,-0.010338950119540094,-0.00038341439359355716
1772618139297529000,4.891529052734375,-0.0019698387682437896,-0.006908080621715634,0.00160978241735138
1772618139307561000,4.90156103515625,-0.005112812969088554,-0.005546783939562738,-0.002438022535573691
1772618139317592800,4.9115927734375,-0.014386252748966216,0.010810093028936535,0.006245904085668735
1772618139327625000,4.921625,-0.020669863063097,0.010195102935750038,0.00008863269810099154
1772618139337657000,4.931656982421875,-0.0013636895686388016,0.01311387645928189,-0.004334859999688342
1772618139347688000,4.94168798828125,0.00312660758793354,0.009331362245883792,-0.015216488461452536
1772618139357719800,4.9517197265625,0.0019265841484069823,0.004500307093933224,0.004857207939936779
1772618139367752200,4.961752197265625,-0.000021627309918403625,0.001919898679293692,-0.007426830099080689
1772618139377784000,4.9717841796875,-0.0061561845421791075,0.005952770924568176,-0.008675040061888285
1772618139387816000,4.98181591796875,-0.009598433950543403,-0.0013433226340450347,-0.004331914557353593
1772618139397847800,4.991847900390625,-0.02202010862827301,-0.005745777110382914,0.002514010381232947
1772618139407880200,5.001880126953125,-0.016785715106129646,0.01276133669456467,0.0005308509071124718
1772618139417912000,5.011912109375,-0.0025689737051725384,0.0020644217165187,-0.0003015310966875404
1772618139427944000,5.02194384765625,0.0013274492114782332,0.008433536623325199,0.003006954130483791
1772618139437975800,5.031975830078125,-0.008397825989127158,-0.0014678075302392243,0.011849779374175704
1772618139448008000,5.042008056640625,-0.014233108013868331,-0.004913198743760586,-0.0066520463343011215
1772618139458040000,5.0520400390625,0.002974631896615028,0.0057309814000502226,-0.0056050580320181325
1772618139468071000,5.06207080078125,-0.01902034229040146,0.0160073694110848,0.0014622774051735177
1772618139478103000,5.07210302734375,0.0002846621602773666,0.0009744893216527998,-0.010073997306730597
1772618139488135000,5.082135009765625,-0.016926000359654424,-0.0013117219193838536,0.005759746270230971
1772618139498167000,5.0921669921875,-0.0015144962161779403,0.00019165011458098887,0.0005531586370430886
1772618139508199000,5.102198974609375,0.004171732726693153,-0.016257800508197397,-0.005977928198711015
1772618139518231000,5.11223095703125,-0.006900280907750129,-0.002629745715390891,0.0007648697255412116
1772618139528263200,5.12226318359375,-0.008992869272828101,0.00042874680608510966,0.01726543404762633
1772618139538295000,5.132294921875,-0.006302315014600753,-0.00038523645792156455,-0.01497530011672061
1772618139548327000,5.142326904296875,-0.007195464462041855,0.008288355998974293,-0.010320779708609916
1772618139558358800,5.15235888671875,-0.011688099706172942,-0.0028340543821454046,0.0010993121445644646
1772618139568391200,5.16239111328125,-0.005256020832061767,0.012325082435458897,0.006049025240121409
1772618139578423000,5.172423095703125,-0.009148352095484733,-0.0008026581523939967,0.0014348003097809851
1772618139588455000,5.182454833984375,-0.014391513445973395,0.00328572540609166,0.0003805191836087033
1772618139598486000,5.192486083984375,-0.007209492987394333,0.014543726599309593,-0.0022952256645541636
1772618139608518000,5.202517822265625,0.004908814829587936,0.02058939997171983,-0.0030659771416103464
1772618139618550000,5.212550048828125,0.007000818672776222,0.002061681770160794,0.002087304835184477
1772618139628582000,5.222581787109375,0.004606032490730286,0.003452935199160129,0.007453909902251325
1772618139638614000,5.232614013671875,-0.004073533049225807,0.0016897249189205467,-0.005842022292781621
1772618139648646000,5.24264599609375,-0.005565817433595657,0.013220277709513902,-0.0004114897106075659
1772618139658678000,5.252677978515625,-0.011250877332687377,0.0027369689495302736,-0.00391344255011063
1772618139668710000,5.2627099609375,-0.008109072175621986,0.004278334906324744,0.004550306548387744
1772618139678742000,5.272741943359375,-0.010652326917648315,0.00023846666468307375,-0.012709017418860456
1772618139688774000,5.28277392578125,-0.007358546069264412,-0.001925360305700451,0.006553298667562194
1772618139698806000,5.292805908203125,-0.00870586902499199,-0.005630206173006445,0.00016841080288868397
1772618139708838000,5.302837890625,-0.012594693157076835,-0.00046975466990843413,-0.004608836369169876
1772618139718869200,5.312869140625,-0.028010288953781125,-0.018465283957216888,-0.004012482477794401
1772618139728901000,5.322901123046875,-0.002722118440270424,-0.010791680589411407,0.01446936902173329
1772618139738933000,5.33293310546875,0.0007224690556526184,0.009014167789183557,-0.002075728561822325
1772618139748965000,5.342965087890625,-0.008252280038595199,0.004116038750391454,0.010197715017944574
1772618139758997200,5.352997314453125,0.00012859481573104857,0.0013909429017454386,-0.014700419564940967
1772618139769029000,5.363029052734375,-0.0037590602725744247,-0.004853139119595289,0.0017399664019700138
1772618139779061000,5.37306103515625,0.007312368839979171,0.0008818608684465288,0.01592080993906129
1772618139789093000,5.383093017578125,-0.001364274090528488,-0.004872775401826948,0.016108674361091105
1772618139799125200,5.393125244140625,0.004472761499881744,0.009321918564103544,-0.003878745696065016
1772618139809157000,5.4031572265625,-0.013193828094005584,0.0003962327759712934,-0.0035546831071609627
1772618139819189000,5.41318896484375,-0.01558861427605152,-0.005419248569756746,0.007125536464410834
1772618139829221000,5.42322119140625,-0.00855506237745285,-0.0029004341492429374,0.006162509251688607
1772618139839253200,5.433253173828125,-0.0116986211001873,-0.0058388439550064505,0.008360370922414585
1772618139849284000,5.4432841796875,-0.0004752162963151931,0.009137374043744057,0.00007140756866429
1772618139859316200,5.453316162109375,-0.014992401948571205,-0.005611154412664473,0.0014904120876919477
1772618139869348000,5.46334814453125,-0.0099035543769598,0.0006287446239031851,-0.006134228438697755
1772618139879380000,5.4733798828125,-0.0043634559065103525,0.00905280103283003,0.009970578031451441
1772618139889412000,5.483412109375,-0.01528232480585575,-0.0020352869535796344,-0.009312680378300138
1772618139899444200,5.4934443359375,-0.010492752441763877,0.004941200995538383,-0.000382633508881554
1772618139909476000,5.50347607421875,-0.007497077757120132,0.007681220418680459,-0.0002628978530410677
1772618139919508200,5.51350830078125,0.008814005574584007,-0.006269855783414095,0.005655313214799389
1772618139929540000,5.5235400390625,0.013902268624305724,-0.006754205234255641,0.005947843587701208
1772618139939572000,5.533572021484375,0.007917348995804787,-0.013078695548046379,0.01496423073343467
1772618139949604000,5.54360400390625,-0.007946575090289116,0.0030308007969520982,0.007849293294851668
1772618139959636200,5.55363623046875,-0.017224106523394584,0.0082745649356395,-0.0137005903060548
1772618139969667000,5.5636669921875,-0.006602174744009971,-0.003759169870428741,0.011602028857916592
1772618139979699200,5.57369921875,-0.007649053448438644,0.00836624354077503,0.0033184266658732664
1772618139989731000,5.58373095703125,0.003575520399212837,0.0133728379227221,-0.0167839843733469
1772618139999763000,5.593762939453125,-0.0218681329369545,0.0026377098261378706,0.014221714403596706
1772618140009795000,5.603795166015625,-0.009747487032413482,-0.00288114492688328,0.010357248394633643
1772618140019827200,5.6138271484375,-0.0021148001968860626,0.006198818107508122,-0.0029623295374680307
1772618140029859000,5.623859130859375,0.0031248540222644804,-0.005404781652987003,-0.01133869261345826
1772618140039891000,5.633890869140625,-0.01258709437251091,0.0031157026014290747,0.012266561747831292
1772618140049923000,5.643923095703125,-0.00959726490676403,0.0014278956449590623,0.004922286232514307
1772618140059955200,5.653955078125,-0.005402151304483413,-0.005474960812367499,-0.0023236343417083844
1772618140069987000,5.663987060546875,-0.005698503902554512,0.003509104099497199,0.007913421739358455
1772618140080018000,5.674017822265625,-0.008240589600801467,-0.0005930887886323034,-0.010942208675737492
1772618140090050300,5.68405029296875,-0.001202361527085304,0.0029490407976321873,-0.0029125721116084603
1772618140100082200,5.694082275390625,-0.0049468087524175645,-0.003633862990327179,0.004639318272401579
1772618140110114000,5.704114013671875,-0.010931143859028816,-0.0018830007350072264,0.008519105148082599
1772618140120146000,5.71414599609375,-0.001357259827852249,0.0013397424374707043,-0.008295274363528005
1772618140130178300,5.72417822265625,0.0004401449829339981,-0.00019731267038732765,-0.006120222746231593
1772618140140210200,5.734210205078125,-0.005241992306709289,0.0049201399412006136,-0.006155641119484789
1772618140150242000,5.744241943359375,-0.0013479074776172636,-0.0011701032252982259,-0.012697824737988412
1772618140160274000,5.75427392578125,-0.005687982508540153,0.00800331024620682,0.005782802918832749
1772618140170306300,5.764306396484375,-0.007333996149897575,0.017606438638176767,0.0010803654154995456
1772618140180338200,5.774338134765625,-0.022893384331464765,-0.0016853410047478973,-0.00007655410123988986
1772618140190370000,5.7843701171875,0.006883329772949218,-0.0002931377276778221,0.019446262385160663
1772618140200401200,5.794401123046875,-0.009877250891923903,0.006664079265389591,-0.0020213634595042094
1772618140210433000,5.80443310546875,-0.019902385821938512,0.005627959416992962,0.007649427907774224
1772618140220465200,5.814465087890625,-0.016164368337392807,0.0057459049745462835,-0.0006670125413686036
1772618140230497000,5.8244970703125,-0.0076315177917480465,0.004869323069415986,0.014160640999278985
1772618140240529200,5.834529052734375,-0.0002963525980710983,0.0020653898308984936,0.002760559887671843
1772618140250561000,5.84456103515625,-0.0034381577551364896,-0.012483250405546277,-0.004314739660266786
1772618140260593200,5.85459326171875,-0.014060089534521102,0.005699819076806306,-0.0038283398162340743
1772618140270625000,5.864625,-0.0017874679386615752,0.008732994493935256,-0.009609941725246608
1772618140280657200,5.8746572265625,-0.008971826484799385,0.004593227808084338,-0.005491030597756617
1772618140290689000,5.88468896484375,-0.011816110000014304,0.0007204780279658734,-0.0035965997198596595
1772618140300721200,5.89472119140625,-0.010771569383144377,0.0059243485476821655,0.006905482239252888
1772618140310753000,5.9047529296875,-0.016607435929775236,0.0006846395296044647,-0.0030173933261074125
1772618140320784100,5.9147841796875,-0.0019458733707666397,-0.011027626503445208,0.005997459449665621
1772618140330816000,5.92481591796875,0.0035948096215724945,0.008557345666084439,0.0068662142413668335
1772618140340848000,5.93484814453125,-0.015260697495937347,0.00023362609278410672,-0.005539865575009025
1772618140350880300,5.94488037109375,-0.022890461722016333,0.004071560287848114,-0.0011275792578235267
1772618140360912100,5.954912109375,-0.005383446604013443,0.002641034294385463,-0.0063613745583454145
1772618140370944000,5.964944091796875,-0.004632920497655868,-0.00834403170896694,-0.002394703983655199
1772618140380976000,5.97497607421875,-0.013311901515722273,-0.004595401498861611,-0.0013093335994752123
1772618140391008300,5.98500830078125,0.002402384966611862,-0.01216753551987931,-0.006089275052119046
1772618140401040100,5.9950400390625,-0.001191255611181259,-0.007307016811426728,0.008193234194582328
1772618140411072000,6.005072021484375,-0.00912146408855915,0.0017602694044820963,-0.000606121800141409
1772618140421104000,6.015104248046875,0.009729951375722884,0.00859535785522312,0.007111900664702989
1772618140431135200,6.02513525390625,-0.012115385207533835,0.008703896263614296,-0.006711315940599889
1772618140441167000,6.0351669921875,0.012874679142236709,0.000919726927112788,-0.003467904439428821
1772618140451199000,6.045198974609375,-0.004786065232753754,-0.0013532595061697065,0.008626753073907457
1772618140461231000,6.055231201171875,-0.005835866546630859,0.005346676523890346,-0.0009908194019459188
1772618140471263200,6.06526318359375,-0.012117723295092583,0.0037546032931655643,0.0036927946699084713
1772618140481295000,6.075295166015625,0.003893500307202339,0.012734960144292562,-0.007512594986660405
1772618140491327000,6.085326904296875,-0.004483282893896103,-0.0034822526251897215,-0.0007501151144038886
1772618140501359000,6.095359130859375,0.001651274338364601,-0.0227474547884427,0.006922022382100113
1772618140511391200,6.10539111328125,-0.012117138773202895,-0.01021780795790255,0.013229598093708045
1772618140521423000,6.115423095703125,-0.018851999986171722,0.005956698181014508,0.016308891374617815
1772618140531455000,6.125455078125,-0.014959084200859068,0.0000171155315823853,-0.00890482566319406
1772618140541486000,6.135486083984375,-0.0029839842468500134,-0.004473126826062798,-0.007126463479595258
1772618140551518200,6.145518310546875,-0.014954408025741576,-0.0003017228929325938,-0.018954948903992772
1772618140561550000,6.155550048828125,-0.004922843354940414,0.0013220058513805269,-0.0065700625726953146
1772618140571582000,6.16558203125,-0.003869534909725189,-0.005169949983805417,-0.001764379324018955
1772618140581614000,6.175614013671875,-0.008657938230037689,0.0005071092719212174,0.004793344356911256
1772618140591646200,6.185646240234375,-0.006571195083856582,-0.007717661705240607,-0.005794959147507325
1772618140601678000,6.195677978515625,-0.022884616503119466,-0.008233191745635122,0.0026792519795009865
1772618140611710000,6.2057099609375,-0.007173252630233764,0.0004652063589543104,0.011812876863311976
1772618140621742000,6.2157421875,-0.007474281403422356,-0.0011201448700390755,0.008681825995701364
1772618140631774200,6.225774169921875,-0.0094242464274168,-0.0025705994066782295,0.006778928683558479
1772618140641806000,6.23580615234375,-0.01227028350830078,0.0075585438870824865,0.0059415873768506565
1772618140651838000,6.245837890625,0.007184943068027496,0.00856337354807183,-0.004151868115598336
1772618140661869000,6.255869140625,-0.008076923471689224,-0.002398549041710794,0.011498088992829433
1772618140671901000,6.26590087890625,0.007637363010644912,0.00964877589829266,0.005496958015044219
1772618140681933000,6.27593310546875,0.012127660167217254,0.0016716047403402625,0.0014325033214176073
1772618140691965200,6.285965087890625,0.004199205255508423,-0.0021495061840862036,0.019007122049224563
1772618140701998600,6.29599853515625,-0.02019230867922306,0.003558952856902033,0.00823133314868901
1772618140712030500,6.306030517578125,-0.0077712185233831405,-0.01309875195538625,0.002198820651951246
1772618140722062600,6.3160625,0.007639701098203658,-0.0022805486852303146,0.007830296333436853
1772618140732094500,6.326094482421875,-0.0133107324719429,-0.00583263340992853,0.0024644082190003243
1772618140742126600,6.336126708984375,-0.004932195705175399,-0.00965323287770152,0.013600089073646814
1772618140752158500,6.346158447265625,-0.018097382226586342,0.004241290831565857,-0.010316455159941687
1772618140762189300,6.356189208984375,-0.009562778115272522,0.008854337584972382,0.0011235241372138261
1772618140772221400,6.366221435546875,-0.013300795599818229,0.0006684555797837674,0.000043807175685651596
1772618140782253600,6.376253662109375,-0.00881166748702526,0.0050052792076952755,-0.0069607378241373224
1772618140792285400,6.386285400390625,-0.008664367970824241,0.0009199826554395257,0.005805293311853893
1772618140802317300,6.3963173828125,-0.012403554499149321,0.014908906649891286,0.0009886639774776996
1772618140812349400,6.406349365234375,-0.009707155022025108,0.0010061448352411389,0.00984672332291957
1772618140822381600,6.416381591796875,-0.00013327099084854124,-0.002600665751378983,-0.0033867015625350175
1772618140832413400,6.426413330078125,-0.013746201279759406,0.008937065698672085,0.0029507304312195626
1772618140842445300,6.4364453125,-0.009105681997537612,-0.02195206662705168,-0.0007942373839206993
1772618140852477400,6.4464775390625,-0.0035696751803159714,-0.015770930306706576,0.0053323831370566035
1772618140862509600,6.456509521484375,-0.009399696508049964,-0.0014245163777843117,-0.012662292200303635
1772618140872541400,6.46654150390625,-0.019571546432375908,-0.003955514426436275,-0.009078186635836026
1772618140882572300,6.476572265625,-0.015682137778401373,-0.001097275451105088,-0.009287847331142983
1772618140892604700,6.486604736328125,-0.022263854256272315,-0.004199625380616635,-0.0107484259695746
1772618140902636500,6.496636474609375,-0.002513444125652313,-0.017177673565782606,0.012794553977577014
1772618140912668400,6.50666845703125,-0.003262801188230514,0.007264657240733504,-0.0030415733527159317
1772618140922700300,6.5167001953125,0.00002864157259464264,0.0094137798323296,-0.018142833370086736
1772618140932732700,6.526732666015625,-0.01718552807867527,-0.0008216368474997579,-0.0026614468947518616
1772618140942764500,6.5367646484375,-0.00626022943854332,0.006300871976185589,0.0048585094144567844
1772618140952796400,6.54679638671875,0.003466799327731132,0.002227576388977468,-0.002674895464791916
1772618140962828300,6.556828369140625,-0.004765022444725036,-0.004608918567560613,0.0075778102765558285
1772618140972860700,6.566860595703125,-0.006711480337381362,0.003658522507548332,-0.006786052544089034
1772618140982891500,6.5768916015625,-0.007765373304486275,0.015725666392873972,-0.0028829304585931822
1772618140992923400,6.58692333984375,-0.009565116202831268,-0.00416219771336764,-0.012686842119670472
1772618141002955500,6.59695556640625,-0.022131752309203147,-0.013523626303952187,-0.00900337696711067
1772618141012987400,6.6069873046875,-0.0013327099084854126,-0.0019919592685066164,-0.006496864905743859
1772618141023019500,6.61701953125,-0.001931260323524475,0.011785714861750602,0.006849646699056029
1772618141033051400,6.627051513671875,-0.007764788782596587,-0.003950984381791204,0.00994413754909765
1772618141043083500,6.63708349609375,0.008545125505328178,-0.00619036080641672,0.0036072444114601237
1772618141053115400,6.647115478515625,-0.013005612045526504,0.0068112874500453465,0.0003656367083080113
1772618141063147500,6.6571474609375,-0.004326631027460098,0.005500387514568865,0.010284511951985768
1772618141073179400,6.667179443359375,-0.005527238988876342,0.0058023661358281966,0.00900435421464499
1772618141083211500,6.67721142578125,-0.0016366612911224365,-0.002713021818362176,0.005651801516884007
1772618141093242400,6.687242431640625,0.004354688078165054,0.005903835482615977,-0.010178727189684286
1772618141103274500,6.6972744140625,-0.00132628016769886,0.004535086146369576,0.014246090793027542
1772618141113306600,6.707306640625,-0.015838789644837377,-0.002272785503882915,-0.0005704294322524219
1772618141123338500,6.71733837890625,-0.001474164205789566,0.001666983364149928,0.005867773221968673
1772618141133370400,6.727370361328125,-0.0017740239351987839,-0.003968264310155064,-0.0012163763527059926
1772618141143402500,6.737402587890625,-0.005959785187244415,-0.00741274220822379,-0.00244523772764951
1772618141153434600,6.7474345703125,-0.005207505515217781,0.006608074761833995,-0.002416262794914655
1772618141163466500,6.757466552734375,-0.000713116705417633,0.0018855580182746052,0.0031788172657834365
1772618141173498400,6.767498291015625,0.0006295300751924514,0.0013136398818343878,0.011825813976698555
1772618141183530500,6.777530517578125,-0.011792144602537155,0.008821531293913722,-0.00671331610144116
1772618141193562600,6.787562744140625,-0.0071545479297637935,0.0022914171391166744,0.015492629388556814
1772618141203593500,6.797593505859375,-0.008048866420984268,-0.011729947820212692,0.017038895282754672
1772618141213625300,6.807625244140625,-0.015531915652751922,-0.004913326607923954,-0.013481029271241276
1772618141223657500,6.817657470703125,-0.008948445609211922,0.004532218335848302,0.004784439531248063
1772618141233689600,6.827689697265625,0.0015308628290891647,-0.0013214213294908404,0.008274414238589815
1772618141243721500,6.837721435546875,0.000187047004699707,-0.0017201565898023546,-0.006105093675758689
1772618141253753300,6.84775341796875,-0.009241875597834586,-0.0021572693654336034,0.00043136345485690977
1772618141263785500,6.857785400390625,-0.004752747485041618,-0.008850136333890259,0.009415670395316555
1772618141273817600,6.867817626953125,0.010958031865954398,-0.006885083338618278,0.006687455574399791
1772618141283849500,6.877849365234375,-0.02226151616871357,0.006586228256206959,-0.005463727032300084
1772618141293881300,6.88788134765625,-0.006555412992835044,0.003175798758212477,-0.0018087253558216616
1772618141303912400,6.897912353515625,-0.008648585879802703,-0.0032637693026103076,0.008086431085551156
1772618141313944600,6.907944580078125,-0.01763034923672676,-0.008346808187942952,0.007309628893621266
1772618141323976400,6.9179765625,-0.010601473513245582,-0.007494155147671699,-0.01514504436017014
1772618141334008600,6.928008544921875,-0.01688566834926605,-0.0021673706343397496,-0.009864053483633324
1772618141344040400,6.93804052734375,0.0015244330883026121,-0.00035743513554334637,0.0027769812995102256
1772618141354072600,6.948072509765625,0.002122398981451988,-0.012763930510450154,0.010737936541601083
1772618141364104400,6.9581044921875,-0.0029623569369316097,-0.006280340644810348,0.010827888980531133
1772618141374136300,6.96813623046875,-0.003258709535002708,-0.0013215857262723148,0.005228584835864603
1772618141384168400,6.97816845703125,0.001381225225329399,-0.01797808496216312,0.01015115876274649
1772618141394200600,6.98820068359375,-0.015076573100686072,0.0030632234955206513,-0.003036947409948334
1772618141404231400,6.9982314453125,-0.0007078560084104537,-0.015745339207723735,0.012161388906883074
1772618141414263600,7.008263671875,-0.015069558838009834,0.003138919080235064,0.001976606435747817
1772618141424295400,7.01829541015625,-0.011028759014606475,0.0016264321580529211,-0.00003386573698371649
1772618141434327300,7.028327392578125,-0.009233107769489287,-0.013916224084421992,0.014929584111738949
1772618141444359400,7.038359375,-0.013422376152873039,0.0023504721162840724,0.016943211789359338
1772618141454391600,7.0483916015625,-0.012526888617873192,0.001818831191305071,-0.007630915003549307
1772618141464423400,7.05842333984375,0.0001876315265893936,0.0005947510227560997,-0.00839364300435409
1772618141474455600,7.06845556640625,-0.011634323692321777,0.003913392317760735,0.012250076403911224
1772618141484487400,7.0784873046875,-0.01059153664112091,-0.0050291715399362145,0.006002455285191536
1772618141494519600,7.08851953125,0.0031751229047775266,-0.0033855690513737496,-0.00955426601525396
1772618141504551400,7.098551513671875,-0.015381109005212782,-0.007421327373478562,0.012330484696361235
1772618141514582300,7.108582275390625,-0.015981997507810593,0.0009000541122630238,0.0018450707442592828
1772618141524614700,7.11861474609375,-0.02032031897306442,-0.00480750987958163,0.006911843481380492
1772618141534646500,7.128646484375,-0.005652326673269271,0.00748626410216093,0.0074600884812884025
1772618141544678400,7.138678466796875,-0.008494856622815131,0.00809047707300633,0.0020202263817656785
1772618141554710300,7.148710205078125,-0.012084405547380446,-0.0027590894497931,-0.0017200469919480383
1772618141564742700,7.15874267578125,0.0025777415335178373,-0.007306578420009463,0.00739097790098749
1772618141574774500,7.1687744140625,-0.016426234143972394,0.004362414726894349,-0.010589216819871216
1772618141584806400,7.178806396484375,-0.002212415352463722,0.010101067976746708,0.004252223217533901
1772618141594838300,7.18883837890625,-0.012988076388835906,-0.0019387312439270317,0.005638389479462057
1772618141604870700,7.19887060546875,0.0025736498802900313,0.0030089908239431676,-0.0018979380092350765
1772618141614901500,7.208901611328125,0.002128244200348854,-0.002961534953024238,0.01230355102366302
1772618141624933400,7.218933349609375,0.0052700493574142455,0.0030529395635239777,0.006030863962345756
1772618141634965500,7.228965576171875,-0.002511106038093567,-0.01358069025343284,0.0014885671904776244
1772618141644997400,7.238997314453125,-0.007594692912697792,-0.004590341731254011,0.01912310854513198
1772618141655029500,7.249029541015625,-0.010585691422224043,-0.00106994905276224,0.011621459644171408
1772618141665061400,7.259061279296875,-0.015671616384387015,0.014891699786763638,0.0021288789545884355
1772618141675093500,7.269093505859375,0.0025818331867456436,-0.005262359241303056,0.006918487851298414
1772618141685125600,7.279125732421875,-0.008792378264665604,-0.009851312733069061,0.0016066406121943144
1772618141695156500,7.289156494140625,-0.01357610540986061,-0.005822020684368908,0.013320313151041045
1772618141705188900,7.29918896484375,-0.01073708259165287,0.005220785121899098,0.009032109871250577
1772618141715219700,7.3092197265625,-0.01702478455901146,-0.00782778928251937,-0.0015351280122529714
1772618141725251600,7.31925146484375,0.006615618747472763,0.005703728066943585,0.006620276656281203
1772618141735283700,7.32928369140625,-0.004303250151872635,0.00798307117577642,-0.0009714936469681561
1772618141745315600,7.339315673828125,-0.002357376781105995,-0.002982267213799059,-0.0029991772494046016
1772618141755347700,7.34934765625,-0.010291092389822006,0.005502104547619819,-0.015137226379895582
1772618141765379600,7.359379638671875,-0.006403437301516533,0.004849175330530852,0.0023344936624402177
1772618141775411700,7.36941162109375,-0.003863689690828323,-0.005903506689053028,0.008396255086548626
1772618141785443600,7.379443603515625,-0.01269113926887512,0.0009391988125629722,0.0006143827384104952
1772618141795475700,7.389475830078125,-0.006411620607972145,0.00006608750615268946,-0.004637856967677362
1772618141805507600,7.399507568359375,0.00046761751174926756,-0.00847344850860536,-0.0046467069944133976
1772618141815538700,7.40953857421875,-0.015395137530565262,-0.007373159116506576,-0.005206003111298195
1772618141825570600,7.419570556640625,-0.0031260230660438535,-0.012674626525491475,0.004350436594733037
1772618141835602700,7.429602783203125,-0.007765957826375961,-0.004297715460229665,0.006317302521178498
1772618141845634800,7.439634765625,-0.0164478614538908,0.009568805997259915,-0.0019249904129421337
1772618141855666700,7.449666748046875,-0.008220715856552124,-0.007226937312539666,-0.009984802919626235
1772618141865698600,7.459698486328125,-0.013158756780624389,-0.001396240131370723,0.009541717060934752
1772618141875730700,7.469730712890625,-0.0004395604610443115,-0.00543804460177198,-0.002382817183039151
1772618141885762800,7.4797626953125,-0.009423661905527115,0.0022742285422980785,-0.012977116603404283
1772618141895794700,7.489794677734375,-0.0013444003462791442,0.002777355758845806,-0.010953693617554381
1772618141905825500,7.499825439453125,0.01107610528767109,-0.0051629722537472845,-0.007617886558617465
1772618141915857700,7.509857666015625,-0.0212450326025486,-0.005038048966135829,0.009610466881631873
1772618141925889800,7.519889892578125,0.00045008185505867004,-0.010028769925516098,0.00965754372663796
1772618141935921700,7.529921630859375,0.006736614778637886,0.0014541625973768532,0.0074369405011413614
1772618141945953500,7.53995361328125,-0.013316577690839767,0.007339603906776755,0.0020446164709283037
1772618141955985700,7.549985595703125,0.0038899931758642195,-0.004558631418738514,0.004773383847693912
1772618141966017800,7.560017822265625,0.0025409166544675824,-0.0024957988711073993,0.004281421912554651
1772618141976049700,7.570049560546875,-0.01766074437499046,-0.0009617211716249585,0.0160513318503974
1772618141986081500,7.58008154296875,-0.016162614771723746,0.001378741007298231,0.003077462083427235
1772618141996113700,7.59011376953125,-0.005237316131591796,-0.0009214256938546895,-0.016780815168726256
1772618142006144800,7.600144775390625,0.0013484919995069504,0.009030808396730572,0.014126391669805161
1772618142016176600,7.6101767578125,-0.0019417817175388335,-0.0013518164677545428,-0.0042359799022087825
1772618142026208500,7.62020849609375,-0.005083586874604225,-0.0046549314000643785,0.0003798889959463849
1772618142036240600,7.63024072265625,-0.0007458499312400817,0.0006327449455857276,0.013387391604459844
1772618142046272800,7.640272705078125,-0.0017974048107862472,0.0009437836561352014,-0.0021556162644643336
1772618142056304600,7.6503046875,0.01136836623251438,-0.005436071840394288,-0.00016404515502508728
1772618142066336500,7.66033642578125,0.0017898060262203216,-0.004179989098384976,-0.000579927912959829
1772618142076368600,7.67036865234375,0.0019371055424213409,-0.0018336999668739735,0.0024220486483071
1772618142086400800,7.68040087890625,-0.00988660324215889,-0.002505571346450597,0.012576321816747076
1772618142096432600,7.6904326171875,-0.0012093757897615432,0.007898352034389973,0.009802203761180862
1772618142106463700,7.700463623046875,-0.005251344656944275,0.0028661482871510085,0.002047735443199053
1772618142116495600,7.71049560546875,-0.0065974985688924785,0.01435819569826126,0.004705072418414056
1772618142126527500,7.720527587890625,-0.011537293058633803,0.014731102397572249,-0.0011168797672959044
1772618142136559600,7.7305595703125,-0.002862403693795204,-0.012482008296530693,-0.0069979691285639994
1772618142146591700,7.740591796875,-0.0054027358263731,-0.007966156573593616,-0.005781373580149375
1772618142156623600,7.75062353515625,-0.009144844964146614,0.001524634017702192,-0.005075166106130928
1772618142166655500,7.760655517578125,-0.018719898039102553,0.011362393149454145,0.019643118397821673
1772618142176687600,7.7706875,-0.00630114597082138,-0.00611408069981262,0.0019539242464816195
1772618142186719700,7.7807197265625,0.0007318214058876037,0.0006117021575570106,0.004748167208046652
1772618142196751600,7.790751708984375,-0.003461538630723953,0.011656882584001868,0.005048862621095032
1772618142206782500,7.800782470703125,0.0037216508716344833,0.016408314894791692,0.005456420508679003
1772618142216814800,7.81081494140625,0.015837620601058006,0.017172449401393532,0.004400755709595978
1772618142226846700,7.8208466796875,-0.004517185163497924,0.006398505398072302,0.0017509261874016373
1772618142236878600,7.830878662109375,-0.008404840251803398,0.0015866116043180226,-0.007513165808818303
1772618142246910500,7.840910400390625,-0.003014379385113716,0.007191500672977418,0.0011630752628901972
1772618142256942800,7.85094287109375,-0.017530980515480042,0.005939673980977386,0.008366261807084083
1772618142266974700,7.860974609375,-0.015585691666603087,-0.003762841398548335,0.002150602162629366
1772618142277006600,7.871006591796875,-0.007207739421725273,0.0001903897392563522,-0.002474203527229838
1772618142287038500,7.88103857421875,0.001322188514471054,0.008543554602749645,0.0011037325913552194
1772618142297070800,7.89107080078125,-0.001668225473165512,0.006068469726108014,-0.010438770931935869
1772618142307101700,7.901101806640625,-0.014537643918395042,0.00575492853121832,0.009743751572212203
1772618142317133600,7.911133544921875,-0.011696867534518242,0.0003105089875869453,0.00184893406862393
1772618142327165700,7.921165771484375,-0.014238953232765196,0.0032579788826406,0.010479381503537296
1772618142337197600,7.931197509765625,-0.006457213315367698,0.009413524104002863,0.013353909459966234
1772618142347229700,7.941229736328125,-0.0039139585733413695,0.011238437976222485,0.02325373294330202
1772618142357261600,7.951261474609375,0.0020773907959461212,0.00878642344791442,0.02239774630162865
1772618142367293700,7.961293701171875,-0.012428688940405845,-0.0006334938642568885,-0.0018039350162725894
1772618142377325600,7.97132568359375,-0.005846972462534904,-0.008177333372551948,-0.005644047468691133
1772618142387357700,7.981357666015625,-0.014073533537983893,-0.0030601182229816914,0.006967706421040929
1772618142397388800,7.991388916015625,-0.007190203765034675,-0.0008193535588681697,0.004536524618207477
1772618142407420700,8.001420654296876,-0.01123158811032772,-0.004264817837625742,0.015006106246937996
1772618142417452500,8.01145263671875,0.00433306076824665,-0.001948704648669809,-0.00013245814009569585
1772618142427484700,8.021484619140624,0.011217559584975242,0.005341214897483587,0.005271049437834881
1772618142437516800,8.031516845703125,-0.009884265154600143,0.00799481641249731,-0.007284745614114217
1772618142447548700,8.041548583984374,-0.011528525230288505,0.009733458507061005,0.002436620596353896
1772618142457580500,8.05158056640625,0.0064268181771039955,0.012615242754761129,0.009465647016884758
1772618142467612700,8.06161279296875,-0.007940729871392249,-0.004691884143278003,0.013103272866876795
1772618142477644800,8.071644775390626,-0.009438859474658966,0.015597911827359348,0.007929340827697888
1772618142487676700,8.0816767578125,-0.001059153664112091,0.015600103784445672,0.008281885158992372
1772618142497707500,8.09170751953125,-0.0037532150536775588,0.022658169069793073,0.00047269097908865656
1772618142507739600,8.10173974609375,0.012557283756136893,0.0024510281476192177,0.011233108780556358
1772618142517771800,8.111771728515626,-0.010335516053438186,-0.0067411082906648516,0.012565672558569349
1772618142527803600,8.1218037109375,0.0037310032218694686,-0.003777363114245236,0.011840609687031246
1772618142537835500,8.13183544921875,-0.005395721563696861,0.00426339306551963,0.014506792122405021
1772618142547867600,8.14186767578125,-0.011381810235977173,0.013735990412998944,0.005035651513072662
1772618142557899800,8.151899658203124,-0.008841478103399277,0.00036815745895728464,-0.005386624941788614
1772618142567931600,8.161931640625,-0.005846972462534904,0.002712272899691015,-0.0018701138539705424
1772618142577962800,8.171962646484374,-0.00824175864458084,-0.008164419092051685,0.008952514429553412
1772618142587994600,8.18199462890625,-0.0007645546317100524,-0.00392597780469805,-0.012879145254800096
1772618142598026800,8.19202685546875,-0.0042108956933021545,0.020900036823470143,0.009985739067965186
1772618142608058600,8.20205859375,0.0004261164575815201,0.001640296286623925,0.012767990197637118
1772618142618090800,8.2120908203125,-0.002266191366314888,0.005459343118127435,-0.0034761699442751705
1772618142628122600,8.22212255859375,0.006862871506810188,0.0021136859520338473,-0.0012942821608157827
1772618142638154800,8.23215478515625,-0.017678864553570747,0.001104417577944696,0.001410574617399834
1772618142648186600,8.2421865234375,-0.0009194529324769973,0.0023132271121256054,0.010661601636069827
1772618142658218500,8.252218505859375,0.0017751929789781569,0.010917973850201814,0.008066100683575496
1772618142668250600,8.262250732421874,-0.008997545447945595,-0.002079875013977289,-0.00011352511076256632
1772618142678281500,8.272281494140625,-0.013935001850128173,-0.006298332959227264,0.00467429825423751
1772618142688313600,8.282313720703126,-0.0034586160212755203,-0.014005893395561724,-0.004415487487846985
1772618142698345700,8.292345703125,-0.005850479593873023,-0.006894472221471369,-0.0018155980546027421
1772618142708377600,8.302377685546874,-0.012288988208770751,0.00011252046376466751,0.006990347511111758
1772618142718409500,8.312409423828125,-0.005109305837750435,0.010991988934483379,0.009170166635070927
1772618142728441600,8.322441650390624,-0.0009229600638151168,0.002544807378295809,0.0031863749511539933
1772618142738473700,8.3324736328125,-0.020229133558273313,-0.006633811991289258,0.005269355237670243
1772618142748505600,8.342505615234375,-0.0025777415335178373,0.010480514014698565,-0.0037075766805093734
1772618142758537500,8.352537353515626,-0.015445406413078308,0.004012286114972084,0.007402631806163117
1772618142768568800,8.36256884765625,-0.00841126999258995,0.01495510214548558,-0.000491181050427258
1772618142778600700,8.3726005859375,-0.004518354207277297,-0.00156175115769729,-0.003466114341141656
1772618142788632600,8.382632568359375,-0.01319791974723339,-0.003810552997794002,-0.005095912066637538
1772618142798664400,8.39266455078125,0.005353635987639427,-0.011483955436199903,0.007885990309738553
1772618142808696800,8.40269677734375,-0.003326514074206352,0.003859744168072939,0.005161314586200751
1772618142818728700,8.412728759765624,0.006549567773938178,0.01953214600374922,0.010422664613928646
1772618142828760600,8.422760498046875,0.000713116705417633,0.0010279730745591223,0.022787444305536336
1772618142838792400,8.43279248046875,-0.024724691411852837,0.008625752993486821,-0.0019628747379174453
1772618142848824800,8.442824951171875,0.002057517051696777,0.008740483680646866,0.00215155657727737
1772618142858855700,8.452855712890624,-0.011854103922843933,-0.010273574999440462,-0.006992996125924401
1772618142868887600,8.462887451171875,-0.010958616387844086,0.0000027399463579058646,0.0004482780570397153
1772618142878919700,8.472919677734374,-0.006772270613908767,0.006540763412974775,0.005032984631950967
1772618142888951600,8.48295166015625,-0.010363573104143143,0.013438267841748893,0.0035317451895680277
1772618142898983700,8.492983642578125,-0.007814473143219947,-0.008768412867188453,-0.00010038250139914452
1772618142909015600,8.503015625,-0.0054226095706224435,-0.003026471681706607,-0.004761163686937652
1772618142919047700,8.513047607421875,-0.0027291327029466627,0.009823803671635687,-0.018729026627051643
1772618142929079600,8.52307958984375,-0.010060790765285491,-0.0008150061773136258,0.004813861988554709
1772618142939111700,8.533111572265625,-0.0018289689928293227,0.005846534071117639,-0.005444013118254952
1772618142949143600,8.5431435546875,-0.0006306991189718247,-0.00017332900660112498,0.0077695791221456595
1772618142959174700,8.553174560546875,-0.005118073666095733,-0.013835998455062507,0.023085422605113124
1772618142969206500,8.56320654296875,-0.022471944049000738,-0.008730820803157985,0.007166361665143631
1772618142979238700,8.57323876953125,-0.006010054069757461,0.0003549509175121784,-0.017924327214621005
1772618142989270800,8.583270751953124,0.004765606966614723,0.008232534158509225,0.011007551829796285
1772618142999302700,8.593302734375,-0.0030178865164518353,0.0006856989755295216,0.008594184244866482
1772618143009334500,8.60333447265625,-0.0039127895295619965,-0.005381619973108172,-0.0002352609274443239
1772618143019366700,8.61336669921875,-0.010194061756134033,-0.00834916454181075,0.005281584531581029
1772618143029398800,8.623398681640625,-0.019169979894161224,-0.0007841178487055003,0.0008684533976018429
1772618143039430700,8.6334306640625,-0.008245265775918961,0.002172065075766295,0.0015017234995728357
1772618143049461500,8.64346142578125,-0.004206219518184662,0.005981339431926608,-0.0015729255722602828
1772618143059493600,8.65349365234375,-0.004501403072476387,-0.006129570529889315,0.015272675628098658
1772618143069525800,8.66352587890625,0.0014846855998039245,-0.003939531406015158,0.0013808142333757132
1772618143079557600,8.6735576171875,-0.006146247670054435,-0.0033150793647393584,-0.004041338679520413
1772618143089589500,8.683589599609375,-0.029490882900357243,0.0024269348859786988,-0.004109481145441532
1772618143099621600,8.69362158203125,-0.008841478103399277,0.002439136780425906,-0.0020447900008643046
1772618143109653800,8.70365380859375,-0.006444353833794593,0.0024864647871814666,-0.0018688032462960108
1772618143119685600,8.713685546875,-0.008838555493950843,0.0057839171636849636,0.013834888776787556
1772618143129717500,8.723717529296875,-0.013780103549361229,0.0032161855675280093,0.006716202178271487
1772618143139748600,8.73374853515625,-0.016328034466505048,-0.0047145526328124104,-0.003046153629710898
1772618143149780700,8.74378076171875,-0.013185060265660286,-0.0011298990790732204,-0.0017776817635865882
1772618143159812600,8.7538125,-0.00884264714717865,0.0061126741940155625,0.015816472781752234
1772618143169844700,8.7638447265625,-0.005701426512002944,0.006303904183488339,0.0033850986939156424
1772618143179876600,8.773876708984375,-0.0050993689656257625,0.003776979521755129,-0.0032447358085773885
1772618143189908700,8.78390869140625,-0.007046995902061462,-0.0014012085674330592,-0.00456213398349937
1772618143199940600,8.793940673828125,-0.011390578064322471,-0.0015795973416417835,0.009305227724206633
1772618143209972700,8.80397265625,-0.026951135289669036,0.005547021401580423,0.003608189692953601
1772618143220004600,8.814004638671875,-0.011090133813023567,0.006487279660068452,-0.009655730795464479
1772618143230035500,8.824035400390626,-0.017078560572862625,0.005054013720247894,-0.019945695240702478
1772618143240067800,8.83406787109375,-0.01678162345290184,0.0032146877301856874,-0.013736191342398523
1772618143250099700,8.844099609375,-0.017678864553570747,0.0008060556858777999,-0.013833664934081025
1772618143260131600,8.854131591796875,-0.012890461233258247,-0.002831058707460761,0.016061615782394074
1772618143270163500,8.86416357421875,0.0007236380994319916,-0.0004718187628313899,0.02043202201949898
1772618143280195800,8.87419580078125,0.008055880683660506,0.006405976318474858,0.0013708590949419886
1772618143290227700,8.884227783203125,-0.011396423283219336,-0.012051909783575683,0.005173320117825642
1772618143300259600,8.894259521484376,-0.0028688334345817563,-0.0033127047445625064,-0.01658390435713809
1772618143310290700,8.904290771484375,-0.01364449447095394,0.0010779496961273252,0.005708376842597499
1772618143320322800,8.91432275390625,-0.00661094257235527,0.010196436376310885,-0.00546317447645124
1772618143330354700,8.924354736328125,-0.00855506237745285,-0.004360076639335602,0.009444065372738987
1772618143340386600,8.934386474609376,-0.00047229368686676023,-0.0004325827309861779,-0.0030976372217759486
1772618143350418700,8.944418701171875,-0.0007774141132831573,0.0014143968425691126,0.014987250849418342
1772618143360450800,8.954450927734374,-0.0018277999490499495,-0.000019818945322185753,-0.008787656423775478
1772618143370482700,8.964482666015625,0.0005646481454372405,-0.002356335601489991,-0.0035774703277042133
1772618143380514600,8.9745146484375,-0.015443652847409247,0.004454677853919565,0.007319401368964463
1772618143390546700,8.984546630859375,-0.01125204637646675,0.0031838176678866147,-0.008570027051144279
1772618143400578800,8.994578857421875,-0.011846505138278007,-0.008013210585713386,0.0022373808303615076
1772618143410609700,9.004609619140625,0.0007224690556526184,0.010719985326379538,0.010525330403959378
1772618143420641500,9.0146416015625,0.010145546439290045,-0.002131038945633918,-0.0034537891491083425
1772618143430673700,9.024673583984375,0.005659925457835197,-0.0012185454769060016,0.021328358937869777
1772618143440705500,9.03470556640625,-0.019929858350753782,-0.009546758562233299,0.0018636019147932528
1772618143450737700,9.044737548828126,-0.01768470977246761,0.003290328515972942,0.004385804735636338
1772618143460769500,9.05476953125,-0.011999649873375892,-0.002509662999678403,0.0025313953408738596
1772618143470801700,9.0648017578125,-0.012746668848395346,0.013618282317463308,0.01362770316635724
1772618143480833500,9.07483349609375,-0.006012392157316208,0.004004650797788054,0.0058278476369567215
1772618143490864600,9.08486474609375,0.0005669862329959869,-0.010009791230410337,0.00668837345642969
1772618143500896800,9.094896728515625,0.009842764100432395,0.010254687635879963,-0.014112728470633737
1772618143510928600,9.1049287109375,-0.014994155514240264,0.010297576929535717,0.0011204553972929715
1772618143520960500,9.11496044921875,-0.0006242693781852722,0.0042675760502927,0.018393762224121018
1772618143530992600,9.12499267578125,0.0023708207845687863,-0.0027025734895840285,0.0019424027720466256
1772618143541024800,9.135024658203125,-0.0224736976146698,0.006162157625239342,-0.0015695691379718482
1772618143551056600,9.145056640625,-0.000032733225822448726,-0.0011255516975186765,-0.009112203069869429
1772618143561088500,9.155088623046876,-0.0049742812812328336,0.0021137590172700584,0.0045054673262406135
1772618143571120600,9.16512060546875,-0.005128010538220405,-0.0011805880866944788,0.01035280054837931
1772618143581151700,9.17515185546875,-0.013806991556286811,0.008069909209012984,-0.0037739427478751166
1772618143591183600,9.18518359375,-0.00826923117339611,0.009811820972897112,0.007221270190156065
1772618143601215500,9.195215576171876,-0.003479658809304237,0.007683156647440046,0.010860759203671477
1772618143611247600,9.20524755859375,0.000263034850358963,0.0031229725924320517,0.008546303682262077
1772618143621279700,9.21527978515625,0.00729717127084732,-0.0034683336976915596,0.0013481312399031594
1772618143631311600,9.2253115234375,-0.010363573104143143,-0.00003039513826370239,0.01000197325013578
1772618143641343500,9.235343505859374,-0.012160393393039703,-0.0191363881518133,0.007015463686059229
1772618143651375600,9.245375732421875,-0.008420037820935249,-0.0021727226628921923,0.0007440598329529165
1772618143661407700,9.25540771484375,-0.0013894085317850112,-0.0028437537922523914,-0.003008228205540217
1772618143671438600,9.2654384765625,-0.0067740241795778275,-0.0023407727061770856,-0.003731409647245891
1772618143681470700,9.275470703125,0.0011596914291381836,-0.0035102914095856246,-0.016501495903846808
1772618143691502600,9.285502685546875,0.0019067104041576384,-0.01680337862698361,0.0027856075639603657
1772618143701534000,9.295533935546874,-0.007074468430876731,0.003840363614168018,0.000631251674820669
1772618143711566000,9.305566162109375,0.0014507833302021026,-0.00019731267038732765,0.002461193348607048
1772618143721598000,9.315597900390625,-0.004087561574578285,0.009984638522844761,0.005288712958688847
1772618143731630000,9.325630126953126,-0.018154665371775625,0.0024044673258438705,0.009042539933719672
1772618143741662000,9.335661865234375,-0.01770166090726852,-0.007753555002529174,-0.007349632110446691
1772618143751694000,9.345694091796876,-0.0049824645876884455,-0.009839695360511541,-0.007052649324713275
1772618143761725000,9.355724853515625,-0.0024397943675518036,-0.0052947454072535035,0.004562293813703581
1772618143771756800,9.3657568359375,-0.006929507002234459,0.0007281681440770625,0.004590917119989171
1772618143781789200,9.3757890625,-0.00632686493396759,-0.00046440264135599136,0.01016877205125056
1772618143791821000,9.385821044921874,-0.0009364040672779082,0.002264638730045408,-0.005087920556426979
1772618143801853000,9.39585302734375,-0.005428454789519309,-0.010179722703527658,-0.002125243959086947
1772618143811884800,9.405884765625,-0.01635141534209251,0.0040124139791354535,-0.008754037281963974
1772618143821917200,9.415917236328125,-0.002587678405642509,0.004980217831674963,0.007579993100487627
1772618143831949000,9.425948974609375,0.005340776506066322,0.010791023002285509,0.007913714000303298
1772618143841980000,9.43597998046875,-0.0009440028518438339,0.009623294397164136,0.008583420822257175
1772618143852012000,9.446011962890625,-0.010220365241169928,-0.009300236455257982,-0.0010434263720177114
1772618143862044000,9.4560439453125,-0.011572364372014999,0.004347619016561657,0.013108204770321026
1772618143872076000,9.466075927734375,0.0005459434449672699,-0.0009594196166843175,-0.004361647541914135
1772618143882108000,9.47610791015625,-0.010529577320814132,-0.005337835630308836,-0.006823521310533397
1772618143892140000,9.48614013671875,-0.012170330265164375,-0.01359939495390281,0.003085901118209585
1772618143902172200,9.496172119140626,0.00608896452486515,-0.01254004036039114,0.0064582316620973865
1772618143912204000,9.5062041015625,0.0033966567009687423,-0.007667356290109455,0.01083863870340865
1772618143922236000,9.51623583984375,-0.014562193837761878,0.01948448920343071,0.008829381240229122
1772618143932267000,9.52626708984375,-0.010071896681189536,-0.0007936711283400654,0.0016700018717208877
1772618143942299000,9.536298828125,-0.0049824645876884455,-0.014159129462204873,0.008745653046108783
1772618143952331000,9.5463310546875,-0.007077391040325165,0.0028951186533086,-0.010243440156080759
1772618143962363000,9.55636279296875,-0.0036357261538505553,0.006076050244364887,-0.0186604777357541
1772618143972395000,9.56639501953125,-0.01875321578681469,0.0051593920571729535,0.005509785530576482
1772618143982427000,9.576427001953125,-0.0006494038194417953,0.0032785467466339467,0.005930677823768929
1772618143992459000,9.586458984375,0.008629881179332733,0.009971304117236285,0.013014813698711804
1772618144002491000,9.596490966796875,0.002042319482564926,-0.0026237360997125505,-0.015393680792418308
1772618144012522000,9.60652197265625,-0.0005044423907995223,0.0024256379780359565,0.007489474405976943
1772618144022553900,9.616553955078125,-0.01218143618106842,0.009208192523941398,0.0002128481662366539
1772618144032586000,9.6265859375,-0.015177695387601851,0.006349862217064946,0.003853095231577754
1772618144042618000,9.6366181640625,0.006814356189966201,0.0022037753882817924,0.011332993525033816
1772618144052650000,9.64664990234375,-0.0024620061993598937,0.0024745368873700497,-0.008201536232046782
1772618144062681900,9.656681884765625,-0.006052139645814895,0.005856361345387995,-0.00707129009310156
1772618144072714000,9.6667138671875,-0.01862111383974552,0.001237816432956606,0.01381675033189822
1772618144082746000,9.67674609375,-0.007996843972802162,-0.01676609709020704,0.0032063811261439693
1772618144092777000,9.68677685546875,-0.011884499061107634,0.003926617125514895,0.01024702035265509
1772618144102808800,9.696808837890625,-0.007842530193924904,-0.0011718567909672856,0.010278758064634167
1772618144112841000,9.706841064453124,-0.007544424030184745,0.012790690653212368,-0.0016635173320071772
1772618144122873000,9.716873046875,-0.01981763014793396,0.019952362443506715,-0.005601459569134749
1772618144132905000,9.726905029296875,-0.019063596910238265,0.014227427191752939,0.008214866071077994
1772618144142936800,9.736936767578126,-0.012931377765536307,0.01627592068677768,0.01226546576928813
1772618144152969000,9.746968994140625,-0.0027548516660928723,-0.00024303324194625017,0.015300559148867614
1772618144163001000,9.7570009765625,-0.013383213186264037,0.0034756767539307473,-0.002267593305534683
1772618144173033000,9.767032958984375,-0.004708908343315124,-0.004724489504937082,-0.005650591373909265
1772618144183064000,9.77706396484375,-0.0030611411362886426,0.009699008248187601,0.016734190414869225
1772618144193096000,9.787095947265625,0.0005313303977251052,0.009486772003304212,0.0031327861669706177
1772618144203127800,9.7971279296875,-0.021319266882538795,0.011989932196959853,-0.00038529582342598583
1772618144213160000,9.807159912109375,0.0015776245802640915,-0.011434965195320546,0.005145171735575422
1772618144223192000,9.817192138671874,-0.01158756194114685,-0.0074946118053980165,0.005605697352834977
1772618144233224000,9.827223876953125,-0.002011924344301224,0.0049357941680587825,0.008844925869232974
1772618144243256000,9.837256103515625,-0.008595394387841224,0.0039036381087265907,0.005053470297553576
1772618144253288000,9.847287841796875,-0.010689151796698569,0.0006169628545641899,0.011535439028264954
1772618144263319000,9.857319091796874,-0.01996785227358341,0.008895820372831076,0.0038229923542588947
1772618144273351000,9.867350830078125,-0.001267243456840515,0.0047094197999686,0.0013000497478991746
1772618144283382800,9.8773828125,-0.0045627778708934785,0.0031996362915262576,0.010182216054713353
1772618144293415200,9.887415283203126,-0.016236849051713943,0.021071721862256525,-0.010571694862912408
1772618144303447000,9.897447021484375,-0.02595803259909153,0.013230634706746786,0.004005778742372058
1772618144313479000,9.90747900390625,-0.014583821147680281,-0.0008941358281299471,0.0047800738833844655
1772618144323510800,9.9175107421875,-0.022813304832577704,0.012222224849183111,-0.00731396257544402
1772618144333543200,9.927543212890624,-0.0038058220237493514,-0.0001825534926727414,0.007398024129704572
1772618144343575000,9.937574951171875,-0.012186112356185913,0.0021817279532551762,-0.0018957643184578045
1772618144353606000,9.94760595703125,0.00128010293841362,0.006399528311379254,0.016328413492417895
1772618144363638000,9.957637939453125,-0.005745265653729438,0.006564820141997188,0.003362256674445234
1772618144373670000,9.967669921875,-0.013822189125418662,0.0007381050162017345,0.010975727352849208
1772618144383702000,9.977701904296875,0.002642623463273048,0.0034510172367095944,-0.013130686030187643
1772618144393734000,9.98773388671875,-0.004991816937923431,0.012243249370902777,0.002327917791181244
1772618144403766000,9.99776611328125,-0.012769465202093124,0.0094394257302396,0.008622067765635438
1772618144413798100,10.007798095703125,-0.01471416952908039,0.008208587027341127,-0.008349698831350541
1772618144423830000,10.017830078125,-0.00798339996933937,0.009031593848019838,-0.005032418376370333
1772618144433861000,10.027861083984375,-0.021900866162776946,0.0142747551985085,0.009520532709010876
1772618144443893000,10.03789306640625,-0.006494622716307639,0.0012668598643504083,0.005200317722605541
1772618144453924900,10.0479248046875,-0.021755904734134673,-0.0030229828166775403,-0.02126744993033353
1772618144463957000,10.05795703125,-0.0011105915904045104,0.00985414401097223,0.00025096995322965084
1772618144473989000,10.067989013671875,-0.00769932233095169,0.017345559212286026,0.01379061581022106
1772618144484021000,10.07802099609375,-0.01892564974427223,0.0147749963382259,0.0040787206809967756
1772618144494052900,10.088052978515625,-0.01817103198468685,0.000652710021380335,-0.0012318113838555292
1772618144504085000,10.0980849609375,-0.013826280778646468,-0.016292908354196698,0.009551064844592474
1772618144514116000,10.1081162109375,-0.015622516545653341,-0.013433500335086137,-0.008098938940674998
1772618144524148000,10.11814794921875,-0.018020225337147713,-0.0001442490425892174,-0.008435888410615735
1772618144534179800,10.128179931640625,-0.027450901505351066,-0.01151877102125436,-0.004276668105623684
1772618144544212000,10.1382119140625,-0.00665536623597145,-0.006100728027895092,0.004540360543108545
1772618144554244000,10.148244140625,-0.01623568000793457,0.00854702520146966,0.014605475857062265
1772618144564276000,10.15827587890625,-0.007706921115517616,0.006788582427892834,0.010901972563471644
1772618144574307800,10.168307861328126,0.0030617256581783295,0.006540014494303614,0.004197437990107573
1772618144584340000,10.178340087890625,-0.019687866288423537,0.000873841958772391,0.008609596443129704
1772618144594372000,10.1883720703125,-0.011310498565435409,0.003669098700489849,-0.014082433797069825
1772618144604403000,10.19840283203125,-0.013255787414312362,0.008157002970576286,0.0010598203843925147
1772618144614435000,10.20843505859375,-0.01250643035173416,0.0058980450626462694,-0.0017115622913930564
1772618144624467000,10.218467041015625,0.005298690930008888,0.002959069001302123,-0.007004901192849501
1772618144634499000,10.2284990234375,-0.006079027652740478,0.004323105629812926,-0.0047887275472981855
1772618144644531000,10.238531005859375,0.005599719703197479,-0.007137560262344777,-0.001053381510451436
1772618144654563000,10.24856298828125,-0.010415595552325248,0.0018175160170532762,0.00702436394514516
1772618144664595000,10.258594970703125,-0.011613280904293059,0.0022717260579578577,0.017134286515205165
1772618144674627000,10.268626953125,-0.0024859715968370438,0.009763305656053125,0.005377957578143105
1772618144684658200,10.278658203125,-0.009070026162266731,-0.003530019023362547,0.013969566273433156
1772618144694690000,10.28868994140625,-0.015801964765787123,0.003745433606021106,0.011154508852702565
1772618144704723000,10.298722900390626,-0.004730535653233528,0.005418919776193797,0.0029931722003035247
1772618144714754800,10.3087548828125,-0.01341010119318962,0.010104611640702933,-0.0002371377906994894
1772618144724786700,10.31878662109375,-0.002338087558746338,-0.005164049965981393,0.005610985449305736
1772618144734818800,10.32881884765625,-0.01520692148208618,-0.0024872867710888386,-0.000798603031784296
1772618144744851000,10.338850830078124,-0.020670447584986686,0.0012671886579133569,-0.021411667006881907
1772618144754882800,10.3488828125,-0.3782517136007547,0.03005151245780289,-0.1657734035898
1772618144764914000,10.358913818359374,-0.01881459058523178,-0.012259597717504948,0.0046148916506208474
1772618144774945800,10.36894580078125,0.9079320060312748,-0.0321551336735487,0.30967019867524503
1772618144784978000,10.37897802734375,-0.38291736732423304,0.007032656849455088,-0.10150186995104886
1772618144795009800,10.389009765625,-0.2635959913730621,0.0350924657670781,-0.10696485719783232
1772618144805041700,10.399041748046875,-0.031768764704465866,-0.0011487133773975073,-0.01673276107618585
1772618144815074000,10.409073974609376,0.1857446899294853,-0.0013308650112710892,0.07300978882969357
1772618144825106000,10.41910595703125,0.2485650109797716,-0.006081950262188911,0.10132833088189364
1772618144835137800,10.4291376953125,-0.024613047730922696,-0.012930628846865147,0.007838854099228047
1772618144845169000,10.4391689453125,-0.21146657568514346,0.010952150114439427,-0.06230196429856587
1772618144855200800,10.44920068359375,-0.2662117268294096,0.02878958449689671,-0.08462575488141737
1772618144865233000,10.45923291015625,-0.03294014657139778,0.0074777520021423695,-0.012315113597293384
