time,seconds_elapsed,z,y,x
1772618134482195200,0.0761953125,0.0047215973027050495,-0.14298516511917114,-0.03523809835314751
1772618134492227300,0.086227294921875,0.00045334920287132263,-0.12468871474266052,-0.03174695745110512
1772618134502259200,0.09625927734375,-0.002556031569838524,0.08379556983709335,0.02021052874624729
1772618134512291000,0.106291015625,-0.0039648436941206455,0.13635732233524323,0.03185972943902016
1772618134522323200,0.1163232421875,-0.002181115560233593,0.07362352311611176,0.017093604430556297
1772618134532355300,0.126355224609375,0.0029739651363343,-0.12615376710891724,-0.030814532190561295
1772618134542387200,0.13638720703125,0.002984368707984686,-0.10822494328022003,-0.024738822132349014
1772618134552419000,0.146419189453125,0.0013361384626477957,-0.007875965908169746,-0.0018409641925245523
1772618134562451200,0.156451171875,-0.0031210631132125854,0.10162532329559326,0.02116304822266102
1772618134572483300,0.1664833984375,-0.003154085949063301,0.11451289802789688,0.02798393741250038
1772618134582515200,0.17651513671875,0.0006689820438623428,-0.02061365731060505,-0.0039101867005229
1772618134592547000,0.186547119140625,0.003617900190874934,-0.10729821771383286,-0.02325405739247799
1772618134602579200,0.1965791015625,0.003348772879689932,-0.08277849107980728,-0.018335597589612007
1772618134612611300,0.206611328125,0.0007399404421448708,-0.018155554309487343,-0.0016285236924886703
1772618134622643200,0.216643310546875,-0.0017827069386839867,0.06781357526779175,0.015612088143825531
1772618134632675000,0.226675048828125,-0.0044285571202635765,0.09256286174058914,0.023633264005184174
1772618134642707200,0.236707275390625,-0.0022179586812853813,0.08288930356502533,0.018809571862220764
1772618134652738300,0.24673828125,0.0016319069545716047,-0.08329994231462479,-0.01949440687894821
1772618134662770200,0.256770263671875,0.0031795352697372437,-0.08218775689601898,-0.020661456510424614
1772618134672802300,0.26680224609375,0.0011366244871169329,-0.05402695760130882,-0.014072529040277004
1772618134682834200,0.276834228515625,-0.00038241688162088394,-0.012299638241529465,-0.0017948646564036608
1772618134692866600,0.286866455078125,-0.001973122823983431,0.03473152220249176,0.008511568419635296
1772618134702898400,0.2968984375,-0.002433390822261572,0.06838269531726837,0.01686384156346321
1772618134712930600,0.3069306640625,-0.0006637205369770527,0.0809195265173912,0.02408526837825775
1772618134722962400,0.31696240234375,-0.0020587188191711903,0.027347847819328308,0.0038199983537197113
1772618134732994600,0.32699462890625,0.001288608182221651,-0.07575749605894089,-0.0177321657538414
1772618134743026400,0.3370263671875,0.001092333346605301,-0.06522522866725922,-0.016507377848029137
1772618134753058600,0.34705859375,0.00007047830149531364,-0.03576081246137619,-0.008234268054366112
1772618134763090400,0.35709033203125,-0.0007783626206219196,0.001538462471216917,0.0016970193246379495
1772618134773122600,0.36712255859375,-0.0022241929545998573,0.037291400134563446,0.008367705158889294
1772618134783154400,0.377154541015625,-0.0014045638963580132,0.06406772881746292,0.012668536975979805
1772618134793186300,0.387186279296875,0.00014433078467845917,0.06852985173463821,0.017742391675710678
1772618134803218400,0.397218505859375,-0.0015770192258059978,-0.00459015928208828,-0.0025931070558726788
1772618134813250600,0.40725048828125,-0.0011919261887669563,-0.06389129906892776,-0.015215692110359669
1772618134823282400,0.417282470703125,0.00015073968097567558,-0.054229460656642914,-0.010127349756658077
1772618134833314300,0.427314208984375,0.0006524790078401566,-0.02922876924276352,-0.00893771555274725
1772618134843346700,0.4373466796875,0.000703886616975069,0.0022894241847097874,0.001804930274374783
1772618134853378600,0.447378662109375,-0.0017970879562199116,0.03591050207614899,0.011297235265374184
1772618134863410400,0.457410400390625,0.00018214760348200798,0.05521085113286972,0.012331913225352764
1772618134873442300,0.4674423828125,-0.000886046327650547,0.05484786257147789,0.01273351814597845
1772618134883474700,0.477474609375,0.0015948975924402475,-0.005467510782182217,-0.0034283678978681564
1772618134893506600,0.487506591796875,0.0013592077884823084,-0.05215725302696228,-0.014354518614709377
1772618134903538400,0.497538330078125,0.00040278444066643715,-0.045320063829422,-0.012949088588356972
1772618134913570300,0.5075703125,0.0007668384350836277,-0.022602500393986702,-0.007345797494053841
1772618134923602700,0.517602783203125,0.002048866357654333,-0.0005897730588912964,-0.000022610765881836414
1772618134933634600,0.527634521484375,0.00030582724139094353,0.02549615502357483,0.006788424216210842
1772618134943666400,0.53766650390625,-0.002508618403226137,0.0444670207798481,0.010161343961954117
1772618134953698300,0.5476982421875,-0.0017480198293924332,0.048476144671440125,0.01222263090312481
1772618134963729400,0.5577294921875,-0.0000970344990491867,0.010616539046168327,0.004635724704712629
1772618134973761500,0.567761474609375,0.002150407060980797,-0.043974533677101135,-0.00915545504540205
1772618134983793400,0.57779345703125,-0.0006984504871070385,-0.04042666777968407,-0.010062195360660553
1772618134993825500,0.587825439453125,0.0004554968327283859,-0.02606450580060482,-0.007420073263347149
1772618135003857400,0.597857421875,0.0007860162295401096,-0.006605330854654312,-0.0025541442446410656
1772618135013889500,0.6078896484375,-0.002800729125738144,0.017337018623948097,0.002841420006006956
1772618135023921400,0.61792138671875,-0.00019249459728598595,0.032791562378406525,0.00794888287782669
1772618135033953500,0.62795361328125,-0.001184255350381136,0.04130435734987259,0.009407496079802513
1772618135043985400,0.6379853515625,-0.002869604155421257,0.031262800097465515,0.0058317771181464195
1772618135054017500,0.648017578125,-0.0014743744395673275,-0.027766166254878044,-0.007804672699421644
1772618135064049400,0.65804931640625,0.0006026756018400192,-0.03633620962500572,-0.007878243923187256
1772618135074081500,0.66808154296875,0.0016820544842630625,-0.028428485617041588,-0.004057406447827816
1772618135084113400,0.678113525390625,0.0009206561371684074,-0.012566647492349148,0.00024041649885475636
1772618135094145500,0.6881455078125,-0.0010205218568444252,0.00348449032753706,0.0003703787224367261
1772618135104177400,0.698177490234375,-0.0016475440934300423,0.022966625168919563,0.005226001143455505
1772618135114209500,0.70820947265625,-0.001708530355244875,0.032001398503780365,0.006034270394593477
1772618135124241700,0.71824169921875,0.0015995854046195745,0.028707873076200485,0.011982240714132786
1772618135134273500,0.7282734375,-0.003754433710128069,0.008073432371020317,0.0007884420920163393
1772618135144305400,0.738305419921875,0.00020251749083399773,-0.025154346600174904,-0.006116349250078201
1772618135154337300,0.748337158203125,0.001739427912980318,-0.02867184951901436,-0.007101985160261393
1772618135164369700,0.75836962890625,0.001026966143399477,-0.020994916558265686,-0.005293072666972876
1772618135174401500,0.768401611328125,0.0005449340678751469,-0.008511347696185112,-0.0010746255284175277
1772618135184433400,0.778433349609375,-0.001790106762200594,0.006333162542432547,0.000402110512368381
1772618135194465300,0.78846533203125,-0.0010803742334246635,0.021969381719827652,0.004536401480436325
1772618135204497700,0.79849755859375,-0.0001233816146850586,0.024549130350351334,0.004900376312434673
1772618135214529500,0.808529541015625,-0.0028270231559872627,0.023588793352246284,0.005067090038210154
1772618135224561400,0.8185615234375,0.001318417489528656,0.003950432408601046,0.0008106394670903683
1772618135234593300,0.82859326171875,0.0023410713765770197,-0.022603413090109825,-0.006203594151884317
1772618135244624400,0.838624267578125,-0.0013739047572016716,-0.022074615582823753,-0.0041788858361542225
1772618135254656500,0.848656494140625,0.0024147082585841417,-0.01689157262444496,-0.0033453162759542465
1772618135264688400,0.8586884765625,0.0008190525695681572,-0.00497286394238472,-0.004935556557029486
1772618135274720500,0.868720458984375,0.002182324416935444,0.0033622970804572105,0.0006490922532975674
1772618135284752400,0.87875244140625,-0.0013814414851367474,0.014832695946097374,0.004746871534734964
1772618135294784500,0.888784423828125,-0.00008980836719274521,0.020845847204327583,0.006319202017039061
1772618135304816400,0.89881640625,-0.0005950620397925377,0.021141614764928818,0.004949378315359354
1772618135314848500,0.9088486328125,-0.001272569876164198,0.012542268261313438,0.004592780955135822
1772618135324880400,0.91888037109375,-0.0005870126187801361,-0.015592215582728386,-0.0031554331071674824
1772618135334912500,0.92891259765625,-0.0020549469627439976,-0.01664416491985321,-0.0057557434774935246
1772618135344944400,0.9389443359375,0.00020997319370508194,-0.01583445444703102,-0.0038929691072553396
1772618135354976500,0.9489765625,0.000450989231467247,-0.008145907893776894,-0.002616782207041979
1772618135365008600,0.959008544921875,0.0005962708964943886,-0.00009502237662672997,-0.002227720571681857
1772618135375040500,0.96904052734375,-0.00048550497740507126,0.00861804187297821,0.0035955477505922318
1772618135385072400,0.979072265625,-0.00008788378909230232,0.015433074906468391,0.0025572474114596844
1772618135395104500,0.9891044921875,-0.000483629759401083,0.01831221766769886,0.005818820558488369
1772618135405136600,0.99913671875,0.0015620465856045485,0.011944548226892948,0.0012448281049728394
1772618135415168500,1.00916845703125,-0.0014867400750517845,0.0016202721744775772,0.00146720209158957
1772618135425200400,1.019200439453125,0.0004135044291615486,-0.010417113080620766,-0.0030654710717499256
1772618135435232500,1.029232421875,0.0009669088758528233,-0.012955904938280582,-0.00450597470626235
1772618135445264600,1.0392646484375,-0.002152852714061737,-0.010930509306490421,-0.0045760697685182095
1772618135455296500,1.049296630859375,-0.0012375242076814175,-0.004886465147137642,-0.0027592615224421024
1772618135465328400,1.059328369140625,0.0027214272413402796,0.0007757297717034817,-5.457550287246704e-7
1772618135475360500,1.069360595703125,0.001389313954859972,0.007238955702632666,0.002482851967215538
1772618135485392600,1.079392578125,-0.0014196629635989666,0.012810297310352325,0.005205600522458553
1772618135495424500,1.089424560546875,-0.001006872858852148,0.014370642602443695,0.004251389764249325
1772618135505455600,1.09945556640625,-0.0008235839195549488,0.010618455708026886,0.002455141395330429
1772618135515487500,1.109487548828125,0.0010456889867782593,0.0036132768727838993,0.0022684535942971706
1772618135525519400,1.119519287109375,-0.0001436411403119564,-0.006086557172238827,0.0012676254846155643
1772618135535551500,1.129551513671875,0.001159709645435214,-0.008175007998943329,-0.0019547995179891586
1772618135545583400,1.139583251953125,-0.002935056108981371,-0.009962727315723896,-0.003831915557384491
1772618135555615500,1.149615478515625,0.00118458759970963,-0.007860694080591202,0.0006011823425069451
1772618135565647400,1.1596474609375,0.002239618683233857,-0.005634490866214037,-0.0017942521953955293
1772618135575679500,1.169679443359375,0.0029288448859006166,0.002970449160784483,-0.0017804037779569626
1772618135585711400,1.17971142578125,0.0027318191714584827,0.00537676690146327,0.001751454547047615
1772618135595743500,1.189743408203125,0.0005227271467447281,0.010996036231517792,0.0042569562792778015
1772618135605775600,1.199775634765625,-0.0003071795217692852,0.009259074926376343,0.000491832266561687
1772618135615807500,1.209807373046875,-0.00013673724606633186,0.00809554010629654,0.0013184774434193969
1772618135625839400,1.21983935546875,-0.001658860594034195,0.002109863329678774,0.001622225041501224
1772618135635871500,1.22987158203125,-0.000029538758099079132,-0.003482774831354618,-0.002207134384661913
1772618135645903600,1.239903564453125,-0.0005535758100450039,-0.009971304796636105,-0.0031217304058372974
1772618135655935500,1.249935546875,-0.0007349369116127491,-0.007152082398533821,-0.0007270158967003226
1772618135665967400,1.25996728515625,-0.0008046934381127357,-0.006985203363001347,-0.003319097450003028
1772618135675999500,1.26999951171875,-0.0007716701366007328,-0.0022021662443876266,-0.0011520832777023315
1772618135686031600,1.280031494140625,0.0012392180506139994,-0.00015877000987529755,-0.0015933162067085505
1772618135696063200,1.290063232421875,-0.0008609509095549583,0.006117501761764288,0.00015238591004163027
1772618135706095000,1.30009521484375,-0.0010944320820271969,0.009409899823367596,0.0008719594916328788
1772618135716127200,1.310127197265625,-0.001916816458106041,0.008227989077568054,0.000756644643843174
1772618135726159400,1.320159423828125,0.0005672657862305641,0.005940227769315243,-0.0017396295443177223
1772618135736191200,1.330191162109375,0.0006263880059123039,0.002759082242846489,0.00008623360190540552
1772618135746222300,1.340222412109375,0.000530740711838007,-0.0013522934168577194,-0.001432101591490209
1772618135756254200,1.350254150390625,-0.00028312113136053085,-0.004986443091183901,-0.0011684485943987966
1772618135766286300,1.360286376953125,-0.00046374788507819176,-0.006503131240606308,0.0005423668771982193
1772618135776318200,1.370318115234375,-0.00010608509182929993,-0.006477830931544304,-0.0014374270103871822
1772618135786350300,1.380350341796875,-0.00041244272142648697,-0.0029428969137370586,-0.001497055753134191
1772618135796382200,1.39038232421875,-0.0019173948094248772,-0.00020223809406161308,-0.0011053048074245453
1772618135806414300,1.400414306640625,0.000903051346540451,0.0023853303864598274,0.0005971346981823444
1772618135816446200,1.4104462890625,0.001318770693615079,0.0052072154358029366,-0.00032405275851488113
1772618135826478300,1.420478271484375,-0.0011335816234350204,0.007858763448894024,0.002720033749938011
1772618135836510200,1.43051025390625,-0.0008185296319425106,0.0032163411378860474,0.0005705964285880327
1772618135846542300,1.440542236328125,-0.0014266157522797585,0.0025548781268298626,-0.0010936666512861848
1772618135856574200,1.45057421875,0.0009174984879791737,0.0020009404979646206,-0.0024460197892040014
1772618135866606300,1.4606064453125,-0.0013064509257674217,-0.004671026486903429,-0.000040639424696564674
1772618135876638200,1.47063818359375,-0.0005754129961133003,-0.004762106575071812,-0.0007953792810440063
1772618135886670300,1.48067041015625,0.001831728732213378,-0.006286350078880787,-0.001359396381303668
1772618135896702200,1.4907021484375,-0.0011896276846528053,-0.009628084488213062,0.001493648043833673
1772618135906734300,1.500734375,0.0009289276786148548,-0.001377766951918602,0.0007369371596723795
1772618135916766200,1.51076611328125,0.00003570364788174629,0.0016646282747387886,-0.0005903822602704167
1772618135926798300,1.52079833984375,-0.0013619535602629185,0.0027672830037772655,-0.0026774085126817226
1772618135936830200,1.530830322265625,-0.0008498276583850384,0.005877588409930468,0.0009729864541441202
1772618135946862300,1.5408623046875,-0.0013924636878073215,0.003497842699289322,-0.001093546743504703
1772618135956894200,1.550894287109375,-0.00022280355915427208,0.0049937404692173,0.0028162398375570774
1772618135966925300,1.56092529296875,-0.0013053095899522305,-0.0011532069183886051,0.0008371518924832344
1772618135976957400,1.57095751953125,-0.0007455130107700825,-0.0027076941914856434,-0.0001269124331884086
1772618135986989300,1.5809892578125,-0.0008631329983472824,-0.005294750444591045,0.0013624473940581083
1772618135997021200,1.591021240234375,-0.0005384935066103935,-0.004314973019063473,-0.0015614371513947845
1772618136007053300,1.60105322265625,-0.0007999991066753864,-0.0020061619579792023,-0.0010713128140196204
1772618136017085400,1.61108544921875,-0.000018094666302204132,-0.00006525032222270966,0.0015550965908914804
1772618136027117300,1.621117431640625,0.0002494417130947113,-0.0006192484870553017,-0.0006983502535149455
1772618136037149200,1.631149169921875,-0.0018949354998767376,0.0037134485319256783,-0.0001657180837355554
1772618136047181300,1.641181396484375,-0.0004290281794965267,0.0029179174453020096,0.0007869444089010358
1772618136057213200,1.651213134765625,-0.0006868219934403896,0.005808512680232525,0.00014059524983167648
1772618136067245300,1.661245361328125,-0.0014459434896707535,0.0019598123617470264,0.0017321662744507194
1772618136077277200,1.671277099609375,0.001240120967850089,0.000771776307374239,-0.0015637618489563465
1772618136087309300,1.681309326171875,-0.00030957208946347237,0.00015179207548499107,-0.0007226308807730675
1772618136097341200,1.691341064453125,-0.00045098597183823586,-0.0026565110310912132,-0.003726410213857889
1772618136107373300,1.701373291015625,-0.002870604395866394,-0.0020399950444698334,-0.002085138577967882
1772618136117405200,1.7114052734375,-0.0004710964858531952,-0.003958802670240402,-0.001367150223813951
1772618136127437300,1.721437255859375,0.0018116396386176348,-0.00035011395812034607,0.0034097330644726753
1772618136137469200,1.73146923828125,-0.0014837561175227165,-0.00034585269168019295,-0.0025485572405159473
1772618136147501300,1.741501220703125,-0.000671816524118185,0.004915604833513498,-0.0026197382248938084
1772618136157533200,1.751533203125,-0.0017322869971394539,0.003352861385792494,0.0013944444945082068
1772618136167565300,1.7615654296875,0.00068683922290802,0.00474926270544529,-0.0019251524936407804
1772618136177596400,1.771596435546875,0.00021466054022312164,0.002453617751598358,0.0019606659188866615
1772618136187628300,1.781628173828125,-0.0014423760585486889,0.0009625018574297428,-0.0016797780990600586
1772618136197660200,1.79166015625,-0.0005118674598634243,0.0026107323355972767,-0.0008355560130439699
1772618136207692300,1.8016923828125,-0.0003547356463968754,-0.00048704491928219795,0.00004187272861599922
1772618136217724400,1.811724365234375,0.00032783253118395805,-0.00343143567442894,-0.0010572137543931603
1772618136227756300,1.82175634765625,0.0006777150556445122,-0.003181265667080879,-0.001577397808432579
1772618136237788200,1.8317880859375,-0.0026227403432130814,-0.0002139713615179062,-0.00082132633542642
1772618136247820300,1.8418203125,0.0007631625048816204,0.0004495144821703434,0.0007955750916153193
1772618136257852400,1.851852294921875,0.001732553355395794,0.0015691076405346394,-0.00035198096884414554
1772618136267884300,1.86188427734375,-0.00014112936332821846,0.0010821339674293995,-0.00021935231052339077
1772618136277916200,1.871916259765625,-0.0001701577566564083,0.000058947596698999405,-0.0012089828960597515
1772618136287948300,1.8819482421875,0.0010105408728122711,0.002387354616075754,-0.0005503037245944142
1772618136297980400,1.89198046875,0.0016289267223328352,0.002727706450968981,-0.0009151567937806249
1772618136308012300,1.90201220703125,0.0022912549320608377,-0.0009341398254036903,0.0013799553271383047
1772618136318044200,1.912044189453125,-0.0006613917648792267,-0.002336560282856226,0.0018558623269200325
1772618136328076300,1.922076171875,0.0011633047834038734,-0.0007279501296579838,0.0010726358741521835
1772618136338108400,1.9321083984375,-0.0005943812429904938,-0.0019423514604568481,0.0004824793431907892
1772618136348140300,1.942140380859375,-0.0003330712206661701,-0.0021007093600928783,0.00261964974924922
1772618136358172200,1.952172119140625,0.001264825463294983,-0.0007416983135044575,-0.0007838702294975519
1772618136368204300,1.962204345703125,0.0002567470073699951,0.0025682332925498486,0.00010081380605697632
1772618136378235400,1.9722353515625,-0.0004489906132221222,0.0025836792774498463,-0.00023687508655712008
1772618136388267300,1.982267333984375,-0.00044601457193493843,0.0018221265636384487,0.002285807393491268
1772618136398299100,1.992299072265625,0.0014253887347877026,0.0003515291027724743,-0.0004119747900404036
1772618136408331300,2.002331298828125,0.0020615579560399055,0.001194077543914318,0.0017599515849724412
1772618136418363400,2.01236328125,-0.0013014818541705608,0.000712844543159008,-0.0011852383613586426
1772618136428395300,2.022395263671875,0.0008357600308954716,-0.0014171311631798744,-0.00045463599963113666
1772618136438427100,2.03242724609375,-0.0013781259767711163,-0.000482361763715744,-0.0002983084414154291
1772618136448459300,2.042459228515625,-0.0014224075712263584,-0.0010051354765892029,0.00041628407780081034
1772618136458491400,2.052491455078125,0.0014703178312629461,-0.000996347051113844,-0.0018026616889983416
1772618136468523300,2.062523193359375,0.0013691934291273355,-0.000752622727304697,0.00009008415509015322
1772618136478555100,2.07255517578125,0.001768667483702302,-0.0009614145383238792,-0.0002950088819488883
1772618136488587300,2.082587158203125,0.0025486217346042395,0.00047471607103943825,0.0009634617017582059
1772618136498619400,2.092619384765625,-0.00044264085590839386,0.002099243924021721,-0.0026435235049575567
1772618136508651300,2.1026513671875,-0.0004993998445570469,0.0017773238942027092,-0.0014530306216329336
1772618136518683100,2.11268310546875,0.0025304786395281553,0.0006191153079271317,-0.0004005493246950209
1772618136528715300,2.12271533203125,0.001017250120639801,0.00004257587715983391,-0.0006588759133592248
1772618136538747400,2.132747314453125,0.0013642599806189537,0.0004050321877002716,-0.002520957961678505
1772618136548779300,2.142779296875,-0.0015418143011629581,0.00011028395965695381,-0.0006235640030354261
1772618136558811100,2.15281103515625,-0.001579364761710167,0.0007273382507264614,0.000035302131436765194
1772618136568842200,2.16284228515625,0.0014894581399857998,0.00032884208485484123,-0.0012168072862550616
1772618136578874400,2.172874267578125,0.0009901155717670918,-0.0010541374795138836,0.00037922512274235487
1772618136588906200,2.18290625,0.0001119016669690609,-0.0000013951212167739868,-0.0025171854067593813
1772618136598938000,2.192938232421875,0.001423774752765894,0.0022827982902526855,0.0012517202412709594
1772618136608970200,2.20297021484375,0.00017806142568588257,0.002430954482406378,-0.0012519991723820567
1772618136619002400,2.21300244140625,0.002197536639869213,0.0007600872777402401,-0.0008384102839045227
1772618136629034200,2.2230341796875,-0.0009555518627166748,0.000556678045541048,-0.0010228031314909458
1772618136639066000,2.233066162109375,-0.0013712714426219463,-0.0009607910178601742,-0.0006584827206097543
1772618136649098200,2.24309814453125,0.00022973259910941124,-0.001666986383497715,0.0014730179682374
1772618136659130400,2.25313037109375,-0.00044298218563199043,0.0009208070114254951,0.0015563750639557838
1772618136669162200,2.263162353515625,-0.0018881107680499554,-0.0005796290934085846,0.00015993742272257805
1772618136679194000,2.273194091796875,-0.0001413431018590927,-0.0000030547380447387695,-0.0008336880127899349
1772618136689226200,2.283226318359375,-0.0016667135059833527,-0.001081366091966629,-0.000712317181751132
1772618136699258000,2.293258056640625,-0.001581226009875536,0.00023476826027035713,0.0003095377469435334
1772618136709290000,2.3032900390625,-0.00009607849642634392,0.0004936065524816513,-0.0012799710966646671
1772618136719322000,2.313322021484375,-0.0015397779643535614,0.0009836284443736076,0.0006268522702157497
1772618136729354200,2.323354248046875,0.002453520195558667,0.0011892085894942284,0.00020832836162298918
1772618136739386000,2.33338623046875,0.000017792917788028717,-0.001494992058724165,0.0030656340532004833
1772618136749418000,2.34341796875,0.0017192068044096231,0.000027488917112350464,-0.0011742488713935018
1772618136759449000,2.353448974609375,0.0007202550768852234,-0.003052456770092249,0.0017632178496569395
1772618136769481200,2.363481201171875,0.001338389702141285,-0.0017113247886300087,0.000623502884991467
1772618136779513000,2.37351318359375,0.0005492949858307838,0.001389926765114069,0.00008820754010230303
1772618136789545000,2.383544921875,0.00042867008596658707,-0.0005620853044092655,-0.000041813706047832966
1772618136799577000,2.3935771484375,0.0017709031235426664,-0.0008742078207433224,0.000913195894099772
1772618136809609200,2.403609130859375,-0.0017562909051775932,0.0016693715006113052,0.001613092957995832
1772618136819641000,2.41364111328125,-0.0012697316706180573,0.0016081193462014198,-0.0016743129817768931
1772618136829673000,2.4236728515625,0.002289406955242157,0.00079327542334795,-0.0006735302740707994
1772618136839705000,2.433705078125,0.002022025641053915,0.00003241049125790596,0.0008524610893800855
1772618136849737200,2.4437373046875,-0.00023590074852108955,0.0014109760522842407,-0.001511377515271306
1772618136859769000,2.45376904296875,0.00034733163192868233,0.0016147075220942497,0.0006154229049570858
1772618136869801000,2.463801025390625,-0.0004501948133111,-0.001804344356060028,0.0003135024453513324
1772618136879833000,2.4738330078125,0.0008049528114497662,-0.0010844920761883259,-0.003162721637636423
1772618136889865200,2.483865234375,-0.0012227040715515614,-0.0008423156104981899,-0.003120222594588995
1772618136899897000,2.49389697265625,0.0027877502143383026,-0.0025637829676270485,0.0008987537585198879
1772618136909929000,2.503928955078125,0.0011326088570058346,-0.00033075548708438873,0.001187843270599842
1772618136919961000,2.513961181640625,-0.002721517812460661,0.002735608723014593,0.0006980879115872085
1772618136929993200,2.5239931640625,-0.0013567470014095306,-0.0007756389677524567,-0.0001179193495772779
1772618136940024000,2.534024169921875,-0.0011495528742671013,0.0020366590470075607,0.0017180639551952481
1772618136950056200,2.54405615234375,-0.0015140105970203876,-0.0007899776101112366,-0.0010352195240557194
1772618136960088000,2.554088134765625,0.0005600592121481895,-0.0000967569649219513,0.0010124851251021028
1772618136970120200,2.5641201171875,0.00015842774882912636,0.0008163172751665115,0.0027722136583179235
1772618136980152000,2.574152099609375,-0.00028152670711278915,-0.0006537479348480701,-0.0004861639463342726
1772618136990184200,2.58418408203125,0.0007825847715139389,-0.0008733193390071392,-0.0001456284080632031
1772618137000216000,2.594216064453125,-0.00244543282315135,0.00226654764264822,0.0003771501360461116
1772618137010248200,2.604248291015625,0.0024514899123460054,0.0007011308334767818,0.00170472776517272
1772618137020280000,2.614280029296875,0.0019300428684800863,-0.0008882437832653522,0.0004993810434825718
1772618137030312000,2.62431201171875,-0.00010368088260293007,0.001614237204194069,0.0014593026135116816
1772618137040344000,2.634343994140625,0.0011000679805874825,-0.0011964626610279083,-0.0012254300527274609
1772618137050376200,2.644376220703125,0.00027651991695165634,0.00284187076613307,-0.0009356161463074386
1772618137060408000,2.654407958984375,-0.0008758297190070152,-0.0010157176293432713,-0.0038062373641878366
1772618137070440000,2.66443994140625,-0.0011411011219024658,0.0016635195352137089,-0.0007637654198333621
1772618137080472000,2.67447216796875,0.001422457629814744,-0.00020921556279063225,0.001009899890050292
1772618137090504200,2.684504150390625,-0.0009200484491884708,-0.0000238870270550251,-0.0011683055199682713
1772618137100536000,2.6945361328125,-0.0011927559971809387,0.0010813246481120586,0.0016562431119382381
1772618137110568000,2.70456787109375,0.0013139108195900917,0.002507882658392191,-0.0006724274717271328
1772618137120599000,2.71459912109375,-0.0009423191659152508,0.0002774856984615326,-0.00045378197683021426
1772618137130631200,2.724631103515625,0.0012130332179367542,0.0021752892062067986,-0.0021399096585810184
1772618137140663000,2.7346630859375,0.0006066313944756985,0.0008618179708719254,-0.001630447106435895
1772618137150695200,2.744695068359375,-0.0025688055902719498,0.0013991789892315865,0.00021206954261288047
1772618137160727000,2.75472705078125,0.0019391272217035294,-0.0001675584353506565,-0.00038101646350696683
1772618137170759200,2.76475927734375,-0.0021330546587705612,-0.00029608188197016716,0.001385415904223919
1772618137180791000,2.774791015625,-0.00038522202521562576,-0.004084961023181677,-0.000494509469717741
1772618137190823200,2.7848232421875,-0.0003809584304690361,0.002482342068105936,-0.00018212152644991875
1772618137200855000,2.79485498046875,-0.00009440258145332336,0.0006218580529093742,-0.0012798765674233437
1772618137210887200,2.80488720703125,0.000951163936406374,-0.00001181475818157196,0.0016527504194527864
1772618137220919000,2.8149189453125,-0.0007719011045992374,0.002316320315003395,-0.0014056237414479256
1772618137230951200,2.824951171875,0.0023242069873958826,-0.000557340681552887,0.000320387480314821
1772618137240983000,2.834983154296875,0.000799813773483038,0.001377179753035307,0.0002636622521094978
1772618137251015200,2.84501513671875,0.0001327083446085453,-0.0014260904863476753,0.0007448758697137237
1772618137261047000,2.855047119140625,0.001969490433111787,-0.0005528400652110577,0.0008261023322120309
1772618137271079200,2.8650791015625,-0.002232272643595934,0.0011922288686037064,0.002665150910615921
1772618137281111000,2.875111083984375,0.0015661937650293112,-0.000783303752541542,-0.00005020818207412958
1772618137291142000,2.885141845703125,0.0003603976219892502,-0.0015000933781266212,0.0004976175259798765
1772618137301174300,2.89517431640625,0.001477859914302826,0.00043868785724043846,0.0027823434211313725
1772618137311206100,2.9052060546875,-0.00025298260152339935,0.0019466816447675228,-0.0027950508520007133
1772618137321238000,2.915238037109375,-0.0004865420050919056,-0.0011545694433152676,-0.0016011556144803762
1772618137331270100,2.925270263671875,0.0011206800118088722,0.0018212716095149517,0.001808404573239386
1772618137341302300,2.93530224609375,0.0005534267984330654,-0.0007779733277857304,-0.002110969740897417
1772618137351334100,2.945334228515625,-0.00007806159555912018,-0.0006186980754137039,0.0003975419094786048
1772618137361366000,2.955365966796875,-0.000017341692000627518,0.00012459047138690948,-0.00020220194710418582
1772618137371398100,2.965398193359375,-0.000010847114026546478,0.0016952501609921455,0.0011569529306143522
1772618137381430300,2.97543017578125,0.0004839682951569557,-0.001623847521841526,0.0005351048312149942
1772618137391462100,2.985462158203125,0.0021185490768402815,0.0018236911855638027,-0.0003631646977737546
1772618137401494000,2.995493896484375,-0.0002583223395049572,0.0007182126864790916,0.0002640097518451512
1772618137411526100,3.005526123046875,-0.0007307203486561775,-0.0018553915433585644,0.0004956535412929952
1772618137421558000,3.01555810546875,0.0005473308265209198,-0.0013344772160053253,-0.0013688255567103624
1772618137431590100,3.025590087890625,0.0013533341698348522,-0.00005985423922538757,-0.0036474824883043766
1772618137441622000,3.0356220703125,-0.0013953144662082195,0.0012951623648405075,0.0014934835489839315
1772618137451654100,3.045654052734375,0.001207801979035139,0.0022790185175836086,-0.0010408035013824701
1772618137461685200,3.055685302734375,-0.0011626780033111572,0.0022662351839244366,-0.0031521576456725597
1772618137471717000,3.065717041015625,-0.0007517896592617035,0.002664774190634489,0.0014165651518851519
1772618137481749000,3.0757490234375,-0.0011715036816895008,0.0001470218412578106,-0.002310528652742505
1772618137491781000,3.085781005859375,0.00027344515547156334,-0.0011346843093633652,-0.0019031903939321637
1772618137501813200,3.095813232421875,-0.0016296501271426678,0.0004727994091808796,-0.001576420501805842
1772618137511845000,3.10584521484375,0.00134659418836236,-0.0004151929169893265,-0.0017227769130840898
1772618137521877000,3.115876953125,0.00009091384708881378,-0.000021045096218585968,-0.0002662941114977002
1772618137531908900,3.125908935546875,0.0002488289028406143,0.0023871413432061672,0.003873708425089717
1772618137541941200,3.135941162109375,0.0009894538670778275,0.0009263972751796246,0.0008528846665285528
1772618137551973000,3.14597314453125,-0.0014911307953298092,-0.002873420249670744,-0.0018663350492715836
1772618137562005000,3.1560048828125,-0.0010312027297914028,-0.0009013493545353413,0.00045301194768399
1772618137572037000,3.166037109375,0.0014247102662920952,-0.0009178384207189083,0.00015273375902324915
1772618137582069200,3.1760693359375,0.001197276171296835,0.0006467690691351891,-0.0011820426443591714
1772618137592101000,3.18610107421875,-0.0009561879560351372,-0.000887592788785696,-0.0010545500554144382
1772618137602133000,3.196133056640625,0.0020979251712560654,-0.00014856550842523575,0.0008658554288558662
1772618137612165000,3.2061650390625,0.0018097306601703167,-0.00002367282286286354,0.0005489907925948501
1772618137622197200,3.216197265625,0.000437137670814991,0.0017289533279836178,0.0009737649234011769
1772618137632228000,3.22622802734375,0.0014984121080487967,0.0013735652901232243,-0.002319534309208393
1772618137642260000,3.236260009765625,-0.0009349179454147816,0.00036848848685622215,-0.00011230644304305315
1772618137652292000,3.2462919921875,-0.000448388047516346,0.00021119974553585052,-0.0022236015647649765
1772618137662324200,3.25632421875,-0.00026782602071762085,-0.0002572503872215748,0.0014209342189133167
1772618137672356000,3.266356201171875,0.0007247705943882465,-0.00014289328828454018,0.001883172895759344
1772618137682388000,3.276387939453125,-0.0011101472191512585,0.0003945324569940567,-0.00115709169767797
1772618137692420400,3.28642041015625,-0.0014606062322854996,0.0008596624247729778,0.0026003187522292137
1772618137702452200,3.2964521484375,0.000589229166507721,-0.0006269142031669617,0.0005976214888505638
1772618137712484400,3.306484375,0.0009590876288712025,0.0007049422711133957,-0.00015833316138014197
1772618137722516200,3.31651611328125,-0.0021538813598454,0.00009720912203192711,0.0010283715091645718
1772618137732548400,3.32654833984375,-0.0015587559901177883,0.0005892454646527767,-0.001459484570659697
1772618137742580200,3.336580322265625,-0.00024768151342868805,0.0007391814142465591,0.00011470989556983113
1772618137752612400,3.3466123046875,0.0007902481593191624,0.0013901512138545513,0.0020950641483068466
1772618137762644200,3.356644287109375,0.0021793527994304895,0.001755004283040762,0.0013650915352627635
1772618137772676400,3.36667626953125,0.0013991834130138159,-0.0016696546226739883,0.0013738981215283275
1772618137782707200,3.376707275390625,0.0001474977470934391,-0.0009452751837670803,0.0007997206412255764
1772618137792739000,3.386739013671875,0.0003161923959851265,0.0006254985928535461,-0.0002770512946881354
1772618137802771500,3.396771484375,0.0015106201171875,-0.0005526840686798096,-0.001260822988115251
1772618137812803300,3.40680322265625,-0.0019053565338253975,0.0012086136266589165,0.0016086532268673182
1772618137822835200,3.416835205078125,0.001226787455379963,-0.0012018131092190742,0.0033562195021659136
1772618137832867300,3.426867431640625,-0.0005198181606829166,0.0022246409207582474,0.0018509533256292343
1772618137842899200,3.436899169921875,0.00007193628698587418,0.003871539607644081,-0.0010465660598129034
1772618137852931300,3.446931396484375,-0.002371096983551979,0.000939762219786644,0.0006051445961929858
1772618137862963200,3.456963134765625,-0.0009670788422226906,0.00011125300079584122,-0.0014777136966586113
1772618137872995300,3.466995361328125,0.0010848003439605236,-0.002157390583306551,-0.0012230726424604654
1772618137883027200,3.477027099609375,-0.0010475926101207733,-0.0020292922854423523,-0.000606284593231976
1772618137893059300,3.487059326171875,0.00009682867676019669,0.0017778133042156696,0.0015015737153589725
1772618137903091200,3.49709130859375,-0.0006611072458326817,-0.0006270213052630424,0.0010086225811392069
1772618137913123300,3.507123291015625,0.000734278466552496,-0.00029067788273096085,-0.00040272990008816123
1772618137923155200,3.5171552734375,-0.0005981014110147953,0.000803082250058651,0.0008044809801504016
1772618137933187300,3.527187255859375,0.002230282872915268,-0.000630691647529602,0.0036994963884353638
1772618137943218200,3.53721826171875,0.0012638219632208347,0.002940874081104994,-0.0017112481873482466
1772618137953250000,3.54725,-0.0002818135544657707,0.0033772820606827736,0.0013172858161851764
1772618137963282400,3.557282470703125,-0.0012994073331356049,0.0019634095951914787,0.0005588175263255835
1772618137973314300,3.567314208984375,0.0010842550545930862,-0.00032358383759856224,0.000042498111724853516
1772618137983346200,3.57734619140625,-0.0024926364421844482,0.0014311731792986393,0.0016316063702106476
1772618137993378000,3.5873779296875,0.0027921395376324654,0.0004658275283873081,-0.0028183558024466038
1772618138003410400,3.597410400390625,-0.0012617241591215134,0.0024799765087664127,-0.0025435176212340593
1772618138013442300,3.6074423828125,-0.00013380125164985657,0.0012582377530634403,-0.0023357230238616467
1772618138023474200,3.61747412109375,-0.0017761727795004845,0.001359438057988882,0.0012827140744775534
1772618138033506000,3.627506103515625,-0.0014164438471198082,-0.0012169312685728073,-0.0023685009218752384
1772618138043538400,3.637538330078125,-0.00018126936629414558,-0.0019876500591635704,-0.0023261564783751965
1772618138053570300,3.6475703125,-0.0017184196040034294,0.003546828869730234,0.002006213180720806
1772618138063602200,3.657602294921875,-0.0009253304451704025,0.0011225533671677113,0.0011939493706449866
1772618138073634300,3.66763427734375,0.0019488416146486998,0.00028441380709409714,0.0001584538840688765
1772618138083666400,3.67766650390625,-0.0010109958238899708,-0.0013933777809143066,0.002985132858157158
1772618138093697300,3.687697265625,0.00026710983365774155,0.000742610078305006,-0.0020937626250088215
1772618138103729200,3.697729248046875,-0.0023838006891310215,0.0006438069976866245,0.0003922983887605369
1772618138113761300,3.70776123046875,0.0011917734518647194,0.0005949023179709911,0.0020364585798233747
1772618138123793400,3.71779345703125,-0.0012913579121232033,0.000014333054423332214,-0.00016331253573298454
1772618138133825300,3.7278251953125,-0.0007189572788774967,0.00042627472430467606,0.0000920299207791686
1772618138143857200,3.737857177734375,-0.0023695845156908035,0.0012417342513799667,0.0005572841037064791
1772618138153889300,3.74788916015625,-0.0000609811395406723,0.001477465033531189,-0.0014689891831949353
1772618138163921400,3.75792138671875,-0.0014972235076129436,-0.00007009785622358322,0.0024855388328433037
1772618138173953300,3.767953369140625,-0.00011026347056031227,-0.000685244332998991,0.0014656952116638422
1772618138183985200,3.777985107421875,0.0010695168748497963,-0.001162748783826828,-0.001795878284610808
1772618138194017300,3.788017333984375,-0.00006926711648702621,-0.00012747244909405708,0.00010792486136779189
1772618138204049400,3.79804931640625,-0.00038751494139432907,0.0008461792021989822,0.0012999556493014097
1772618138214081300,3.808081298828125,0.0016554123722016811,-0.0036423748824745417,-0.0015206173993647099
1772618138224113200,3.818113037109375,-0.0003478173166513443,0.0007768743671476841,-0.0010311283404007554
1772618138234145300,3.828145263671875,0.002489874605089426,-0.0019695288501679897,0.0013508604606613517
1772618138244176100,3.838176025390625,0.00043311528861522675,-0.0005442053079605103,0.0012722971150651574
1772618138254208300,3.848208251953125,0.0013067713007330894,0.0010602991096675396,-0.0015837237006053329
1772618138264240400,3.858240478515625,-0.002331905532628298,0.0012033111415803432,0.002546306699514389
1772618138274272300,3.868272216796875,-0.0002629384398460388,-0.002692874986678362,0.0023484050761908293
1772618138284304400,3.878304443359375,0.00005610845983028412,-0.0004763263277709484,0.0006064315675757825
1772618138294336300,3.888336181640625,-0.0007186839357018471,0.00023389840498566628,0.00008730485569685698
1772618138304368400,3.898368408203125,0.0012653707526624203,0.0015870509669184685,0.0011437808861956
1772618138314400300,3.908400146484375,-0.001499122940003872,-0.0002711690030992031,-0.002236513188108802
1772618138324432400,3.918432373046875,-0.0011230846866965294,0.0005895649082958698,-0.0022029574029147625
1772618138334464300,3.92846435546875,0.0008220900781452656,0.0023606703616678715,0.003359851660206914
1772618138344496000,3.93849609375,-0.00024743517860770226,-0.00016613677144050598,0.0005598043790087104
1772618138354528300,3.9485283203125,-0.0003086784854531288,-0.0011459053494036198,-0.00023440003860741854
1772618138364560400,3.958560302734375,0.0016506093088537455,-0.00011845771223306656,0.0003155427984893322
1772618138374592300,3.96859228515625,-0.0019943746738135815,0.0038564340211451054,0.0004438334726728499
1772618138384624000,3.9786240234375,0.0016749287024140358,-0.0006842552684247494,0.0015767421573400497
1772618138394655200,3.9886552734375,-0.0016464749351143837,0.0011006928980350494,0.0013167650904506445
1772618138404687000,3.99868701171875,-0.000745261088013649,0.00044315867125988007,0.002570847747847438
1772618138414719200,4.00871923828125,-0.0015627588145434856,-0.0003964230418205261,-0.0012043146416544914
1772618138424751400,4.01875146484375,0.00038214772939682007,0.0006765648722648621,0.0000620184582658112
1772618138434783200,4.028783203125,0.0006861663423478603,0.0016810325905680656,0.0027804900892078876
1772618138444815000,4.038815185546875,-0.0005231751129031181,0.00020164716988801956,-0.0008850846206769347
1772618138454847200,4.04884716796875,0.0002845320850610733,0.0012574070133268833,-0.000858253100886941
1772618138464879400,4.05887939453125,-0.0014728880487382412,-0.0009080097079277039,0.0019812092650681734
1772618138474911200,4.0689111328125,0.00037079164758324623,0.0007368437945842743,0.00035760749597102404
1772618138484943000,4.078943115234375,-0.001688897144049406,0.0017573675140738487,-0.0017500182148069143
1772618138494975200,4.088975341796875,-0.00013739010319113731,-0.0012757317163050175,0.0016590839950367808
1772618138505007400,4.09900732421875,0.0003361199051141739,0.0015943567268550396,-0.0012882363516837358
1772618138515039200,4.109039306640625,0.00042889174073934555,-0.0011301524937152863,-0.0008943319553509355
1772618138525071400,4.1190712890625,0.00028241798281669617,0.000935395248234272,0.0005717382300645113
1772618138535102500,4.1291025390625,0.001921819057315588,0.00011709658429026604,-0.0015174320433288813
1772618138545134300,4.13913427734375,-0.002672666683793068,0.0005184351466596127,0.00027647323440760374
1772618138555166200,4.149166259765625,-0.0005148118361830711,0.0005846824496984482,-0.0014078975655138493
1772618138565198000,4.159197998046875,0.002157404087483883,-0.0023471913300454617,0.0010770979570224881
1772618138575230500,4.16923046875,0.0013588075526058674,-0.004284289665520191,0.001106620067730546
1772618138585262300,4.179262451171875,0.0012946254573762417,0.0008896994404494762,-0.0019453626591712236
1772618138595294200,4.189294189453125,-0.002690405584871769,-0.0005331994034349918,0.001247661653906107
1772618138605326000,4.199326171875,-0.0002850382588803768,0.0007453840225934982,0.0014695029240101576
1772618138615358500,4.2093583984375,0.00012462912127375603,0.00012118928134441376,-0.00023404270177707076
1772618138625390300,4.219390380859375,0.00027243467047810555,0.0013667494058609009,-0.0017765455413609743
1772618138635422200,4.229422119140625,0.00022146617993712425,-0.0015625511296093464,-0.00003370305057615042
1772618138645454000,4.2394541015625,0.0009351936168968678,-0.000929784495383501,-0.00016339903231710196
1772618138655486500,4.249486572265625,0.00006716093048453331,-0.002906491979956627,-0.0022417763248085976
1772618138665518300,4.259518310546875,-0.0014559011906385422,-0.0010097888298332691,-0.0017727937083691359
1772618138675550200,4.26955029296875,0.003009028034284711,-0.00032343901693820953,-0.00043598131742328405
1772618138685581300,4.279581298828125,0.0017730549443513155,0.0023738108575344086,0.0006742905825376511
1772618138695613000,4.289613037109375,-0.00014663999900221825,0.0019461815245449543,-0.00342077249661088
1772618138705645000,4.29964501953125,0.0017410083673894405,0.00016479333862662315,-0.00042737950570881367
1772618138715677000,4.309677001953125,-0.001599685288965702,0.003708141390234232,0.000981547636911273
1772618138725709000,4.319708984375,0.0022653602063655853,0.0010300674475729465,-0.0013588384026661515
1772618138735741000,4.329740966796875,0.0007016994059085846,-0.00119711272418499,0.0009420892456546426
1772618138745773000,4.33977294921875,-0.00006209500133991241,0.000643397681415081,-0.002294184174388647
1772618138755805000,4.349804931640625,-0.0015627951361238956,-0.0021985345520079136,-0.0007181926048360765
1772618138765837000,4.359837158203125,0.001167477574199438,-0.002131422981619835,0.0009556040167808533
1772618138775869000,4.369868896484375,0.0019999267533421516,-0.000020114704966545105,0.00020363600924611092
1772618138785901000,4.379901123046875,0.0012726173736155033,0.0013996167108416557,0.000905645196326077
1772618138795933000,4.389932861328125,0.000055505428463220596,-0.0009438232518732548,-0.0011750265257433057
1772618138805965000,4.399965087890625,0.0007615094073116779,0.0014511579647660255,-0.0020797024480998516
1772618138815996000,4.409995849609375,0.002401365665718913,-0.00021588290110230446,-0.0015096303541213274
1772618138826027800,4.42002783203125,0.0019861790351569653,0.0006642919033765793,-0.0017565053422003984
1772618138836060200,4.43006005859375,0.002436199691146612,-0.0008567250333726406,-0.00009790499461814761
1772618138846092000,4.440092041015625,0.0020327309612184763,0.0011036279611289501,-0.0006510435487143695
1772618138856124000,4.4501240234375,0.00020616548135876656,-0.0006044358015060425,0.0009955896530300379
1772618138866155800,4.46015576171875,0.0001507713459432125,-0.001485409215092659,0.0005441837711259723
1772618138876188200,4.470188232421875,-0.002396990545094013,-0.0014497730880975723,-0.00031029473757371306
1772618138886220000,4.480219970703125,-0.002202313393354416,0.0013771727681159973,-0.00029431574512273073
1772618138896252000,4.490251953125,-0.0010263756848871708,0.0008647656068205833,0.0007219478720799088
1772618138906284000,4.500283935546875,-0.0007110573351383209,0.0005284082144498825,0.0012678959174081683
1772618138916316200,4.510316162109375,0.00047725997865200043,0.0012954105623066425,0.0009437763364985585
1772618138926348000,4.52034814453125,-0.0007680337876081467,0.0008911420591175556,0.0014111610362306237
1772618138936380000,4.5303798828125,-0.0016388557851314545,0.0010549291037023067,-0.0005053679342381656
1772618138946412000,4.540412109375,0.0018845065496861935,0.0001766188070178032,-0.0026321683544665575
1772618138956443100,4.550443115234375,-0.0008608666248619556,0.000166233628988266,-0.00188024016097188
1772618138966475000,4.56047509765625,0.0012507536448538303,-0.0002662637270987034,0.0007728008786216378
1772618138976507000,4.5705068359375,0.0011111055500805378,-0.0015678978525102139,0.0008541174465790391
1772618138986539000,4.5805390625,-0.0023384871892631054,-0.00015988433733582497,-0.0018226257525384426
1772618138996571100,4.590571044921875,0.0004592007026076317,0.0012330878525972366,-0.0015240140492096543
1772618139006603000,4.60060302734375,0.0010373727418482304,0.00004425272345542908,-0.0015727498102933168
1772618139016635000,4.610634765625,0.0011429162696003914,0.0012168451212346554,-0.0008979753474704921
1772618139026666800,4.620666748046875,0.0008054939098656178,0.0017880932427942753,-0.0004090189468115568
1772618139036699100,4.63069921875,0.0003855735994875431,-0.000037054531276226044,0.0019422663608565927
1772618139046731000,4.64073095703125,-0.0014038044027984142,-0.0012626415118575096,-0.0012482006568461657
1772618139056763000,4.650762939453125,0.00037554511800408363,-0.002562086097896099,0.00039621267933398485
1772618139066794800,4.660794677734375,-0.0005296631716191769,0.001202292274683714,0.0010225881123915315
1772618139076827100,4.6708271484375,-0.0002231053076684475,-0.0020391237922012806,0.0002915706718340516
1772618139086858000,4.68085791015625,-0.0005168518982827663,-0.00002390984445810318,0.0006987679516896605
1772618139096889900,4.690889892578125,-0.000278485007584095,-0.0019889678806066513,0.0037477542646229267
1772618139106922000,4.700921875,0.002411307767033577,-0.000011304859071969986,0.0030247061513364315
1772618139116954000,4.7109541015625,-0.00042463047429919243,0.0014258665032684803,-0.0007902446668595076
1772618139126986000,4.720986083984375,-0.0006424770690500736,0.0010226643644273281,0.0013828948140144348
1772618139137017900,4.731017822265625,0.00023893732577562332,0.0012786160223186016,-0.0012012752704322338
1772618139147050000,4.741050048828125,0.0004666373133659363,0.0018948712386190891,0.001353761414065957
1772618139157082000,4.75108203125,-0.0002821804955601692,-0.001025141216814518,-0.002498072339221835
1772618139167114000,4.761114013671875,-0.0015895264223217964,-0.00006267474964261055,0.002690031658858061
1772618139177145900,4.771145751953125,-0.0011001457460224628,0.0001263129524886608,-0.0014144707238301635
1772618139187178000,4.781177978515625,0.0010269209742546082,0.0017894566990435123,0.00005000154487788677
1772618139197210000,4.791210205078125,0.002622754778712988,-0.002017795108258724,0.0020386783871799707
1772618139207242000,4.801241943359375,-0.0005072583444416523,-0.00023640645667910576,0.0013790135271847248
1772618139217273000,4.811273193359375,0.0014146615285426378,0.0015639984048902988,-0.0016910044942051172
1772618139227305000,4.821304931640625,-0.0007233242504298687,-0.00032977573573589325,-0.0010662268614396453
1772618139237336800,4.8313369140625,0.00020202388986945152,-0.0005837008357048035,-0.00039446557639166713
1772618139247369000,4.841368896484375,0.0011636912822723389,-0.0004047360271215439,0.0008753296569921076
1772618139257401000,4.851401123046875,-0.0005471319891512394,-0.0006694570183753967,0.00008345505921170115
1772618139267433000,4.861432861328125,-0.0006195702590048313,0.0022206055000424385,0.00016121933003887534
1772618139277464800,4.87146484375,0.0008001918904483318,-0.0002859886735677719,0.0001840753830038011
1772618139287497000,4.8814970703125,-0.002349528484046459,-0.0013896026648581028,-0.0002532157232053578
1772618139297529000,4.891529052734375,0.0009616166353225708,0.00006656069308519363,-0.00009772623889148235
1772618139307561000,4.90156103515625,0.0008412417955696583,-0.0004903064109385014,0.0008799201459623873
1772618139317592800,4.9115927734375,-0.0011560134589672089,-0.0014130626805126667,-0.0009587465319782495
1772618139327625000,4.921625,-0.0006851665675640106,-0.00008068326860666275,-0.0011275908909738064
1772618139337657000,4.931656982421875,0.0013100085780024529,-0.0006789281032979488,0.0000961025943979621
1772618139347688000,4.94168798828125,-0.0007379623129963875,-0.001744725275784731,0.0005760042695328593
1772618139357719800,4.9517197265625,0.0006396137177944183,-0.00022854702547192574,0.0013616543728858232
1772618139367752200,4.961752197265625,0.00047396542504429817,-0.0014621233567595482,-0.0004761930904351175
1772618139377784000,4.9717841796875,-0.0003155292943120003,0.0007276423275470734,-0.0003183611552231014
1772618139387816000,4.98181591796875,0.0011563999578356743,-0.0014521549455821514,-0.00100732094142586
1772618139397847800,4.991847900390625,0.0016362958122044802,-0.00015469267964363098,0.002771216444671154
1772618139407880200,5.001880126953125,0.0014016714412719011,0.0014722319319844246,0.0016279213596135378
1772618139417912000,5.011912109375,-0.0008452143520116806,0.001415744423866272,0.0008231692481786013
1772618139427944000,5.02194384765625,0.0012957006692886353,0.00019681546837091446,-0.0014173481613397598
1772618139437975800,5.031975830078125,-0.0005431575700640678,0.00009319698438048363,-0.0008103923755697906
1772618139448008000,5.042008056640625,-0.00023343181237578392,-0.00036966055631637573,-0.00029427174013108015
1772618139458040000,5.0520400390625,0.00005571451038122177,0.0005774986930191517,0.0007408399833366275
1772618139468071000,5.06207080078125,-0.001858565490692854,-0.00105714937672019,-0.0019806441850960255
1772618139478103000,5.07210302734375,-0.00040608644485473633,-0.0008555017411708832,0.0013787925709038973
1772618139488135000,5.082135009765625,0.0029585515148937702,0.00006994698196649551,0.0023079693783074617
1772618139498167000,5.0921669921875,0.0021540888119488955,-0.002612763550132513,0.0007415498839691281
1772618139508199000,5.102198974609375,0.0025469050742685795,0.00040646176785230637,0.0018670016434043646
1772618139518231000,5.11223095703125,0.0009672665037214756,-0.0024761706590652466,-0.001312117907218635
1772618139528263200,5.12226318359375,0.00015793228521943092,0.0024466831237077713,0.0002990945940837264
1772618139538295000,5.132294921875,0.0027842510025948286,-0.000030535273253917694,-0.0012418996775522828
1772618139548327000,5.142326904296875,0.0006009913049638271,0.0003636120818555355,0.00019034836441278458
1772618139558358800,5.15235888671875,0.002415497787296772,0.002217298373579979,0.00038389023393392563
1772618139568391200,5.16239111328125,-0.0017579416744410992,0.001645783893764019,0.0009239793289452791
1772618139578423000,5.172423095703125,-0.0012630186975002289,0.0006845304742455482,-0.0012520013842731714
1772618139588455000,5.182454833984375,-0.001508296001702547,0.000952444039285183,0.0021307459101080894
1772618139598486000,5.192486083984375,0.0012886947952210903,0.0004243040457367897,-0.0005172501550987363
1772618139608518000,5.202517822265625,0.001368856057524681,-0.00276270043104887,0.0032601773273199797
1772618139618550000,5.212550048828125,0.0016527201514691114,-0.0017177867703139782,0.00316013116389513
1772618139628582000,5.222581787109375,0.0008614948019385338,0.00047292932868003845,0.0013787426287308335
1772618139638614000,5.232614013671875,-0.0011322097852826118,-0.0019057141616940498,-0.0012697677593678236
1772618139648646000,5.24264599609375,-0.00007333699613809586,-0.00023830914869904518,-0.0001600284595042467
1772618139658678000,5.252677978515625,-0.000046362169086933136,0.00036144908517599106,0.00011183589231222868
1772618139668710000,5.2627099609375,-0.0007212068885564804,-0.0015424452722072601,-0.0002583434688858688
1772618139678742000,5.272741943359375,0.001465044915676117,-0.0006502289324998856,-0.0012616096064448357
1772618139688774000,5.28277392578125,0.003322333563119173,-0.0005849814042448997,0.0009469500510022044
1772618139698806000,5.292805908203125,-0.0014804583042860031,-0.0006189052946865559,-0.0013851255644112825
1772618139708838000,5.302837890625,-0.001558222807943821,0.000535841565579176,-0.0015049678040668368
1772618139718869200,5.312869140625,0.0005133817903697491,0.0014626220799982548,0.0017091784393414855
1772618139728901000,5.322901123046875,0.001033497042953968,-0.002458615694195032,0.0017837468767538667
1772618139738933000,5.33293310546875,0.001373465871438384,-0.00010940339416265488,0.0006381965940818191
1772618139748965000,5.342965087890625,0.0005710553377866745,-0.0012196754105389118,0.0002933172509074211
1772618139758997200,5.352997314453125,0.0005000694654881954,0.00017090607434511185,-0.0013648137683048844
1772618139769029000,5.363029052734375,-0.0010605426505208015,0.0015634731389582157,-0.001158152474090457
1772618139779061000,5.37306103515625,-0.0013484228402376175,-0.0005605150945484638,0.0015987486112862825
1772618139789093000,5.383093017578125,-0.001188899390399456,-0.0012318980880081654,0.0011579955462366343
1772618139799125200,5.393125244140625,-0.00048473896458745003,-0.00045138411223888397,0.0009511737152934074
1772618139809157000,5.4031572265625,0.0014037087094038725,-0.000676420982927084,0.0024862196296453476
1772618139819189000,5.41318896484375,0.0006959675811231136,-0.0014532930217683315,0.0007558818906545639
1772618139829221000,5.42322119140625,-0.00269503565505147,-0.00024608196690678596,0.0022901291958987713
1772618139839253200,5.433253173828125,0.0012283045798540115,-0.0004817466251552105,-0.0011149299098178744
1772618139849284000,5.4432841796875,-0.00040554488077759743,0.001518287230283022,-0.0026912549510598183
1772618139859316200,5.453316162109375,0.0004937788471579552,0.0008551492355763912,0.002191482111811638
1772618139869348000,5.46334814453125,-0.0020402190275490284,-0.00030012987554073334,-0.001877827919088304
1772618139879380000,5.4733798828125,0.0002981596626341343,-0.0009900466538965702,-0.003597185481339693
1772618139889412000,5.483412109375,-0.0005465950816869736,-0.0002986900508403778,-0.002361478516831994
1772618139899444200,5.4934443359375,-0.00042066164314746857,0.0002933591604232788,0.00029612809885293245
1772618139909476000,5.50347607421875,0.0022536846809089184,-0.00008773943409323692,-0.00308555387891829
1772618139919508200,5.51350830078125,-0.00016783690080046654,0.0010850029066205025,-0.0018800441175699234
1772618139929540000,5.5235400390625,-0.0012123286724090576,-0.0015565869398415089,0.0024459948763251305
1772618139939572000,5.533572021484375,-0.002803720999509096,0.001079397276043892,0.00040937692392617464
1772618139949604000,5.54360400390625,0.0033295387402176857,-0.0007342156022787094,0.0006037877174094319
1772618139959636200,5.55363623046875,-0.00011488702148199081,0.00006379792466759682,0.000524333561770618
1772618139969667000,5.5636669921875,-0.00024245260283350945,0.000024915672838687897,0.0005933094071224332
1772618139979699200,5.57369921875,0.0011504888534545898,-0.00014992011711001396,-0.0020451326854526997
1772618139989731000,5.58373095703125,0.0014026900753378868,0.0002934965305030346,0.0010649069445207715
1772618139999763000,5.593762939453125,0.0011854139156639576,0.0001899232156574726,0.0036716072354465723
1772618140009795000,5.603795166015625,-0.0013933246955275536,-0.0010487129911780357,-0.0009364602738060057
1772618140019827200,5.6138271484375,0.000696966890245676,0.001440481748431921,-0.0003810959169641137
1772618140029859000,5.623859130859375,-0.0005611106753349304,0.00031502963975071907,-0.0000929418602026999
1772618140039891000,5.633890869140625,0.0018629285041242838,0.0019489279948174953,-0.00009534246055409312
1772618140049923000,5.643923095703125,0.0010288264602422714,-0.0006274133920669556,-0.0032498568762093782
1772618140059955200,5.653955078125,0.00005318969488143921,-0.0006005656905472279,-0.00010387838119640946
1772618140069987000,5.663987060546875,0.0019024887587875128,-0.0005044257268309593,-0.0002649996313266456
1772618140080018000,5.674017822265625,0.0008905450813472271,-0.0004597669467329979,-0.0014901934191584587
1772618140090050300,5.68405029296875,0.0014175847172737122,-0.0023679216392338276,-0.0006659451173618436
1772618140100082200,5.694082275390625,0.0015385954175144434,0.0021804384887218475,-0.0014666824135929346
1772618140110114000,5.704114013671875,-0.001374636311084032,0.0019040023908019066,0.000010306714102625847
1772618140120146000,5.71414599609375,0.0005605979822576046,-0.001187534537166357,0.0006891045486554503
1772618140130178300,5.72417822265625,-0.002181924879550934,0.0002985093742609024,-0.0011748418910428882
1772618140140210200,5.734210205078125,0.0012988317757844925,-0.0019396347925066948,0.0009630443528294563
1772618140150242000,5.744241943359375,0.0012772600166499615,0.0014516348019242287,-0.0001533528557047248
1772618140160274000,5.75427392578125,-0.0008436534553766251,-0.0010762857273221016,0.002559355925768614
1772618140170306300,5.764306396484375,0.0014980640262365341,0.0009852675721049309,-0.0012678729835897684
1772618140180338200,5.774338134765625,0.0005246237851679325,-0.003775683231651783,0.0005950768245384097
1772618140190370000,5.7843701171875,-0.0013960483483970165,-0.0006813565269112587,0.0019455658039078116
1772618140200401200,5.794401123046875,-0.000903827603906393,0.0026311567053198814,0.00002203520853072405
1772618140210433000,5.80443310546875,-0.000662545207887888,-0.0032158135436475277,-0.00022430712124332786
1772618140220465200,5.814465087890625,-0.002335557248443365,0.001381192822009325,-0.0015098981093615294
1772618140230497000,5.8244970703125,0.002457067370414734,-0.0005282941274344921,-0.0013522389344871044
1772618140240529200,5.834529052734375,0.0010016011074185371,0.0011475170031189919,0.0013365366030484438
1772618140250561000,5.84456103515625,-0.00023730145767331123,0.00013711350038647652,-0.000897056539542973
1772618140260593200,5.85459326171875,-0.00027251429855823517,0.00004847068339586258,-0.0012296775821596384
1772618140270625000,5.864625,-0.0014682738110423088,0.0005267742089927197,0.00020736409351229668
1772618140280657200,5.8746572265625,-0.00234803045168519,0.0007893540896475315,0.0006243357202038169
1772618140290689000,5.88468896484375,-0.0006241663359105587,-0.0011515580117702484,-0.000050509232096374035
1772618140300721200,5.89472119140625,-0.001095577608793974,0.0020174249075353146,0.0025070165283977985
1772618140310753000,5.9047529296875,0.0014498718082904816,-0.0022082123905420303,0.001551474560983479
1772618140320784100,5.9147841796875,0.0020544363651424646,0.0009191413410007954,-0.0020242908503860235
1772618140330816000,5.92481591796875,-0.0003890139050781727,-0.0009282934479415417,-0.0008397167548537254
1772618140340848000,5.93484814453125,0.0006478410214185715,0.00008156104013323784,0.0027973002288490534
1772618140350880300,5.94488037109375,-0.0002927873283624649,-0.0015938333235681057,-0.0014501753030344844
1772618140360912100,5.954912109375,0.00014871684834361076,-0.0007993169128894806,-0.00026370619889348745
1772618140370944000,5.964944091796875,0.0007556513883173466,-0.0018896148540079594,-0.0033260751515626907
1772618140380976000,5.97497607421875,-0.002276232000440359,0.0004126746207475662,0.001207033870741725
1772618140391008300,5.98500830078125,0.0007358035072684288,0.0006153406575322151,-0.0004097712808288634
1772618140401040100,5.9950400390625,-0.0014518317766487598,0.0010662800632417202,-0.0023810751736164093
1772618140411072000,6.005072021484375,0.0008153170347213745,0.0005661384202539921,0.001092752325348556
1772618140421104000,6.015104248046875,-0.0013957265764474869,-0.00048770057037472725,-0.002268703654408455
1772618140431135200,6.02513525390625,-0.0006045014597475529,-0.0001817033626139164,-0.0006526974029839039
1772618140441167000,6.0351669921875,-0.0028281197883188725,0.0015162909403443336,-0.001408673357218504
1772618140451199000,6.045198974609375,0.0022923401556909084,0.0018856720998883247,0.0014499637763947248
1772618140461231000,6.055231201171875,-0.0005907299928367138,-0.0009416956454515457,-0.0012272880412638187
1772618140471263200,6.06526318359375,0.0020223637111485004,-0.0026764790527522564,0.00009230826981365681
1772618140481295000,6.075295166015625,-0.0007996237836778164,-0.0002791113220155239,0.0012533457484096289
1772618140491327000,6.085326904296875,-0.0005974899977445602,-0.0007552844472229481,0.00019740231800824404
1772618140501359000,6.095359130859375,0.0007912172004580498,-0.001972622238099575,0.0011612842790782452
1772618140511391200,6.10539111328125,0.0002774931490421295,-0.00031693466007709503,-0.0008009327575564384
1772618140521423000,6.115423095703125,0.0004894062876701355,-0.0010788831859827042,-0.0017856177873909473
1772618140531455000,6.125455078125,0.000013499520719051361,0.0005600261501967907,-0.0012343433918431401
1772618140541486000,6.135486083984375,0.0006860089488327503,-0.001386796124279499,-0.0023330645635724068
1772618140551518200,6.145518310546875,-0.00042133359238505363,0.0007663699798285961,0.0005775040481239557
1772618140561550000,6.155550048828125,0.0008937008678913116,-0.0015890761278569698,-0.003275033552199602
1772618140571582000,6.16558203125,-0.0009532012045383453,-0.0017517954111099243,0.000008643954060971737
1772618140581614000,6.175614013671875,-0.00023424671962857246,0.0010282350704073906,0.0004418903263285756
1772618140591646200,6.185646240234375,0.0013692425563931465,0.0012564677745103836,0.0017204738687723875
1772618140601678000,6.195677978515625,0.00028468016535043716,0.0008251904509961605,-0.0008352920413017273
1772618140611710000,6.2057099609375,0.003115087980404496,-0.0012206495739519596,-0.00007522589294239879
1772618140621742000,6.2157421875,-0.00042081112042069435,-0.00015942193567752838,0.0027382709085941315
1772618140631774200,6.225774169921875,0.0011105062440037727,-0.0011658305302262306,-0.0002266261726617813
1772618140641806000,6.23580615234375,-0.00042614294216036797,-0.0033311601728200912,0.00000685802660882473
1772618140651838000,6.245837890625,-0.00010523200035095215,-0.0008845138363540173,-0.0003175150486640632
1772618140661869000,6.255869140625,0.0003438103012740612,-0.0014606923796236515,-0.0005268047680146992
1772618140671901000,6.26590087890625,-0.00033369800075888634,0.00005784211680293083,-0.0013848752714693546
1772618140681933000,6.27593310546875,0.0004588030278682709,-0.001250539906322956,-0.0017653529066592455
1772618140691965200,6.285965087890625,-0.0006765024736523628,-0.003372813109308481,0.0015532121760770679
1772618140701998600,6.29599853515625,-0.001788224559277296,-0.0014271303080022335,-0.0019260160624980927
1772618140712030500,6.306030517578125,0.0013167550787329674,0.000573702622205019,-0.00016113929450511932
1772618140722062600,6.3160625,0.0009774570353329182,0.0014822166413068771,-0.0008283835486508906
1772618140732094500,6.326094482421875,-0.0014859666116535664,0.0010838080197572708,0.002231854945421219
1772618140742126600,6.336126708984375,0.002618868136778474,-0.00465181702747941,-0.0010202628327533603
1772618140752158500,6.346158447265625,0.001771716633811593,-0.000971594825387001,-0.0009472921956330538
1772618140762189300,6.356189208984375,0.002797285094857216,-0.002853104844689369,-0.0011355449678376317
1772618140772221400,6.366221435546875,-0.0006224797107279301,0.00012510782107710838,-0.0020346282981336117
1772618140782253600,6.376253662109375,0.001631682040169835,-0.00012351712211966515,0.002445302437990904
1772618140792285400,6.386285400390625,-0.0009366702288389206,-0.001183721236884594,-0.002161699812859297
1772618140802317300,6.3963173828125,-0.00012949202209711075,0.0013430174440145493,-0.0007267063483595848
1772618140812349400,6.406349365234375,-0.001565734390169382,0.00017522135749459267,0.00023309688549488783
1772618140822381600,6.416381591796875,0.000750415027141571,-0.0007854383438825607,-0.0007122844690456986
1772618140832413400,6.426413330078125,-0.0010746493935585022,0.0007413523271679878,-0.002019363921135664
1772618140842445300,6.4364453125,0.00121212936937809,-0.0004158308729529381,0.00017518899403512478
1772618140852477400,6.4464775390625,0.0005980045534670353,-0.001477366778999567,-0.0002714230795390904
1772618140862509600,6.456509521484375,0.003467884846031666,-0.00020055100321769714,-0.0004155828501097858
1772618140872541400,6.46654150390625,-0.0020632343366742134,-0.001312953419983387,-0.00025472790002822876
1772618140882572300,6.476572265625,0.0005546468310058117,0.00095024099573493,-0.0019110108260065317
1772618140892604700,6.486604736328125,-0.0011178180575370789,0.0025294949300587177,-0.00032909319270402193
1772618140902636500,6.496636474609375,-0.0012419200502336025,-0.0012194756418466568,0.0017093236092478037
1772618140912668400,6.50666845703125,0.002418594667688012,-0.0011555599048733711,-0.003227910725399852
1772618140922700300,6.5167001953125,0.0007889773696660995,-0.0032598446123301983,0.0024974211119115353
1772618140932732700,6.526732666015625,-0.0018052076920866966,0.00021957559511065483,0.0006174957379698753
1772618140942764500,6.5367646484375,0.002156909555196762,0.0005460618995130062,0.000024363340344280005
1772618140952796400,6.54679638671875,-0.0017528771422803402,0.0033397176302969456,-0.0012150718830525875
1772618140962828300,6.556828369140625,0.000742027536034584,0.00016274303197860718,-0.0024387992452830076
1772618140972860700,6.566860595703125,-0.0008819680660963058,-0.00036083441227674484,0.0015934929251670837
1772618140982891500,6.5768916015625,-0.0005901707336306572,-0.0009667002595961094,0.002105358289554715
1772618140992923400,6.58692333984375,-0.0010506310500204563,0.0012437235563993454,-0.00016258977120742202
1772618141002955500,6.59695556640625,-0.00023792078718543053,0.001585187390446663,-0.00043997977627441287
1772618141012987400,6.6069873046875,-0.0009260815568268299,0.00044295797124505043,0.0006918636499904096
1772618141023019500,6.61701953125,-0.0013302909210324287,-0.0023860037326812744,-0.0005106920725665987
1772618141033051400,6.627051513671875,-0.0027462937869131565,-0.0012845201417803764,-0.0021104528568685055
1772618141043083500,6.63708349609375,0.0012655211612582207,0.0008569275960326195,0.002303828252479434
1772618141053115400,6.647115478515625,-0.0004868386313319206,-0.0014461739920079708,-0.0005335034802556038
1772618141063147500,6.6571474609375,0.0008533326908946037,0.000030392315238714218,0.002218835521489382
1772618141073179400,6.667179443359375,-0.00018982775509357452,-0.0002457774244248867,0.0000739254173822701
1772618141083211500,6.67721142578125,-0.0006857588887214661,0.00003116857260465622,-0.0000015060068108141422
1772618141093242400,6.687242431640625,0.0000010700896382331848,-0.0003480655141174793,-0.0021892928052693605
1772618141103274500,6.6972744140625,0.0011841319501399994,0.0013780849985778332,-0.0012031558435410261
1772618141113306600,6.707306640625,0.0008453777991235256,-0.0003303326666355133,-0.0010622746776789427
1772618141123338500,6.71733837890625,0.0004874854348599911,-0.0019052396528422832,-0.00010369619121775031
1772618141133370400,6.727370361328125,0.002063810359686613,0.0005347486585378647,0.000018542923498898745
1772618141143402500,6.737402587890625,0.0006261942908167839,0.00243860250338912,-0.002529860706999898
1772618141153434600,6.7474345703125,-0.0005557164549827576,0.0011994331143796444,-0.001949291443452239
1772618141163466500,6.757466552734375,-0.000266173854470253,-0.0006626429967582226,-0.0006141614285297692
1772618141173498400,6.767498291015625,0.0009365095756947994,0.0014604288153350353,0.003952094353735447
1772618141183530500,6.777530517578125,0.0022268129978328943,-0.0007870360277593136,0.001399737549945712
1772618141193562600,6.787562744140625,-0.0011836308985948563,-0.0005790432915091515,0.0005368734709918499
1772618141203593500,6.797593505859375,0.0031623197719454765,-0.00005610613152384758,0.0015507957432419062
1772618141213625300,6.807625244140625,0.0010120836086571217,-0.0007482618093490601,0.000972889771219343
1772618141223657500,6.817657470703125,-0.0007382365874946117,0.0012959856539964676,-0.001999103231355548
1772618141233689600,6.827689697265625,0.0007006688974797726,-0.001655595377087593,-0.0022483752109110355
1772618141243721500,6.837721435546875,0.001230744644999504,0.0008902894333004951,-0.0005102570867165923
1772618141253753300,6.84775341796875,-0.0003109592944383621,0.00007909024134278297,0.0004375620046630502
1772618141263785500,6.857785400390625,-0.002587582916021347,-0.00000608246773481369,0.0017627511406317353
1772618141273817600,6.867817626953125,0.0013642816338688135,0.000313496682792902,0.00005193654214963317
1772618141283849500,6.877849365234375,0.0005355034954845905,0.002465281169861555,0.0012213758891448379
1772618141293881300,6.88788134765625,0.0033161097671836615,-0.00147646339610219,0.0008754311129450798
1772618141303912400,6.897912353515625,0.002540474757552147,-0.0016615716740489006,0.0006479724543169141
1772618141313944600,6.907944580078125,0.00019209925085306168,0.0010383413173258305,0.0005558270495384932
1772618141323976400,6.9179765625,0.0015191435813903809,0.0010556015186011791,0.00008407648419961333
1772618141334008600,6.928008544921875,0.0005833087489008904,0.0002918066456913948,-0.0009614805458113551
1772618141344040400,6.93804052734375,-0.0021057510748505592,-0.0009565688669681549,-0.0002161855809390545
1772618141354072600,6.948072509765625,-0.001646355725824833,0.0015611839480698109,0.0006661196821369231
1772618141364104400,6.9581044921875,0.0018239205237478018,0.0015922128222882748,-0.0010187302250415087
1772618141374136300,6.96813623046875,0.001105133444070816,0.001589017454534769,-0.002946326043456793
1772618141384168400,6.97816845703125,0.0022918812464922667,-0.0025230194441974163,-0.00004185002762824297
1772618141394200600,6.98820068359375,0.0017086490988731384,0.0005577253177762032,0.0009773416677489877
1772618141404231400,6.9982314453125,0.0009093629196286201,-0.002711282577365637,-0.002390630543231964
1772618141414263600,7.008263671875,0.00025955168530344963,0.0020523136481642723,0.00011061027180403471
1772618141424295400,7.01829541015625,0.002247900702059269,-0.00031105754896998405,-0.00014006870333105326
1772618141434327300,7.028327392578125,0.00041324878111481667,-0.0014314493164420128,-0.0009480717708356678
1772618141444359400,7.038359375,0.0019366017077118158,0.00003501027822494507,0.0005363821983337402
1772618141454391600,7.0483916015625,0.002447662176564336,0.00029333680868148804,0.002147328108549118
1772618141464423400,7.05842333984375,-0.0008532321080565453,0.0009684734977781773,0.002013159217312932
1772618141474455600,7.06845556640625,-0.00008091563358902931,-0.00008667120710015297,-0.0005509322509169579
1772618141484487400,7.0784873046875,0.0012437333352863789,-0.0010693855583667755,0.003936609253287315
1772618141494519600,7.08851953125,0.0014301547780632973,0.0014204042963683605,-0.002446455415338278
1772618141504551400,7.098551513671875,-0.00044154655188322067,-0.0015299217775464058,0.0017525911098346114
1772618141514582300,7.108582275390625,-0.00007562804967164993,-0.0010731895454227924,0.0005230096867308021
1772618141524614700,7.11861474609375,-0.0004223189316689968,-0.0011654789559543133,-0.0018169875256717205
1772618141534646500,7.128646484375,-0.0006718570366501808,0.0011322968639433384,0.0015985165955498815
1772618141544678400,7.138678466796875,0.001030069775879383,-0.0009049158543348312,0.0014758722390979528
1772618141554710300,7.148710205078125,-0.00020989775657653809,-0.0008284831419587135,0.0006372427451424301
1772618141564742700,7.15874267578125,-0.001969448756426573,0.0010284059680998325,0.00032963906414806843
1772618141574774500,7.1687744140625,-0.00035317614674568176,-0.0014643128961324692,0.0006095373537391424
1772618141584806400,7.178806396484375,-0.0003677858039736748,-0.0013934224843978882,0.00029626989271491766
1772618141594838300,7.18883837890625,-0.0031148367561399937,0.0000899583101272583,-0.002576748374849558
1772618141604870700,7.19887060546875,0.0015772187616676092,-0.0009772884659469128,0.0006045792251825333
1772618141614901500,7.208901611328125,-0.0013759606517851353,-0.00039059435948729515,-0.001247383072040975
1772618141624933400,7.218933349609375,0.0002683890052139759,-0.0000825035385787487,0.0015536535065621138
1772618141634965500,7.228965576171875,0.0012417747639119625,-0.00008383532986044884,-0.00017899909289553761
1772618141644997400,7.238997314453125,-0.0008233413100242615,0.0008230800740420818,-0.0010636646766215563
1772618141655029500,7.249029541015625,-0.0005698082968592644,0.0009317374788224697,-0.0011270479299128056
1772618141665061400,7.259061279296875,0.001476798439398408,-0.001476014032959938,0.0040226285345852375
1772618141675093500,7.269093505859375,0.002042187610641122,0.0026974258944392204,0.0028910513501614332
1772618141685125600,7.279125732421875,-0.0017919535748660564,-0.001211513765156269,-0.0027587180957198143
1772618141695156500,7.289156494140625,0.001009425614029169,0.0009746751748025417,0.0007079188362695277
1772618141705188900,7.29918896484375,0.0005901516415178776,-0.00011673802509903908,0.0011493470519781113
1772618141715219700,7.3092197265625,-0.0009566126391291618,0.00025317538529634476,-0.0004219179681967944
1772618141725251600,7.31925146484375,0.0011187009513378143,0.00019538681954145432,-0.00225018709897995
1772618141735283700,7.32928369140625,0.00019351905211806297,-0.000040036626160144806,-0.0019662941340357065
1772618141745315600,7.339315673828125,0.00014114193618297577,-0.0004899040795862675,0.00046316604129970074
1772618141755347700,7.34934765625,0.0008032037876546383,0.0024270564317703247,0.0018666519317775965
1772618141765379600,7.359379638671875,-0.0012708394788205624,-0.002418363932520151,-0.0024226708337664604
1772618141775411700,7.36941162109375,0.001726548420265317,-0.0013360553421080112,0.0021252091974020004
1772618141785443600,7.379443603515625,-0.000438569113612175,0.0006357976235449314,-0.00016075227176770568
1772618141795475700,7.389475830078125,0.002289839554578066,-0.002479301765561104,0.0038046943955123425
1772618141805507600,7.399507568359375,-0.0021822606213390827,0.0015466324985027313,0.0002542042057029903
1772618141815538700,7.40953857421875,0.00048622675240039825,-0.0009285090491175652,-0.0003857533447444439
1772618141825570600,7.419570556640625,-0.0023058210499584675,0.001631053164601326,-0.003243415616452694
1772618141835602700,7.429602783203125,-0.0011223121546208858,0.0002576606348156929,-0.00006919394945725799
1772618141845634800,7.439634765625,0.0024056120309978724,-0.0014364593662321568,0.0012275694170966744
1772618141855666700,7.449666748046875,-0.000315073411911726,0.0007766280323266983,0.0024294541217386723
1772618141865698600,7.459698486328125,0.0006996155716478825,-0.000498743262141943,-0.0018268085550516844
1772618141875730700,7.469730712890625,0.00047431187704205513,-0.0021967748180031776,0.00041903508827090263
1772618141885762800,7.4797626953125,0.0011562597937881947,-0.0006026769988238811,0.0012047955533489585
1772618141895794700,7.489794677734375,0.0013080600183457136,-0.0015185377560555935,-0.0013742097653448582
1772618141905825500,7.499825439453125,0.0006521758623421192,0.00027869176119565964,0.002797659020870924
1772618141915857700,7.509857666015625,-0.000060752034187316895,0.0025817938148975372,-0.0013544756220653653
1772618141925889800,7.519889892578125,0.0003918856382369995,-0.00218717148527503,-0.00021711498266085982
1772618141935921700,7.529921630859375,0.00018256111070513725,0.0005761240608990192,-0.00006957584992051125
1772618141945953500,7.53995361328125,0.0022021583281457424,-0.0014815693721175194,0.0013236436061561108
1772618141955985700,7.549985595703125,-0.0007909685373306274,-0.0024789231829345226,-0.0002417625510133803
1772618141966017800,7.560017822265625,-0.0002523232251405716,0.0005515329539775848,-0.0001940105576068163
1772618141976049700,7.570049560546875,-0.0015341024845838547,-0.0009733927436172962,0.0005881598335690796
1772618141986081500,7.58008154296875,0.0008118166588246822,-0.001396403182297945,-0.0010286575416103005
1772618141996113700,7.59011376953125,-0.00008699996396899223,0.00008218362927436829,0.0005455370410345495
1772618142006144800,7.600144775390625,-0.001754680648446083,0.0004518129862844944,-0.0019502602517604828
1772618142016176600,7.6101767578125,0.0013542936649173498,0.00015087611973285675,-0.0004975058836862445
1772618142026208500,7.62020849609375,0.0015637078322470188,-0.0004844246432185173,-0.001499631442129612
1772618142036240600,7.63024072265625,0.0006009750068187714,-0.0005384869873523712,0.0037766234017908573
1772618142046272800,7.640272705078125,-0.00048087723553180695,-0.00019633350893855095,-0.0007997514912858605
1772618142056304600,7.6503046875,0.000029917340725660324,0.00029022619128227234,0.0007949493592604995
1772618142066336500,7.66033642578125,0.0011777407489717007,0.0007936852052807808,0.00055046530906111
1772618142076368600,7.67036865234375,-0.001627100631594658,0.00022829649969935417,0.001696157269179821
1772618142086400800,7.68040087890625,0.0002942625433206558,-0.0006375466473400593,-0.00000891846138983965
1772618142096432600,7.6904326171875,-0.0001622033305466175,-0.0014636591076850891,0.0015152087435126305
1772618142106463700,7.700463623046875,-0.002627774141728878,0.0011432860046625137,-0.0008370119030587375
1772618142116495600,7.71049560546875,0.0008460530079901218,0.00030225934460759163,-0.0007829497335478663
1772618142126527500,7.720527587890625,-0.0006894245743751526,0.0011842511594295502,0.0026348435785621405
1772618142136559600,7.7305595703125,0.0006645265966653824,-0.0011460152454674244,-0.00004189967876300216
1772618142146591700,7.740591796875,0.000555375125259161,0.0005093957297503948,-0.0006261791568249464
1772618142156623600,7.75062353515625,-0.00042546726763248444,-0.002503438852727413,-0.00044188840547576547
1772618142166655500,7.760655517578125,-0.0005483352579176426,-0.00021516205742955208,0.000575197977013886
1772618142176687600,7.7706875,0.0017174819950014353,-0.0012902799062430859,-0.0006266866694204509
1772618142186719700,7.7807197265625,0.0002393038012087345,0.002492039930075407,0.0004447235260158777
1772618142196751600,7.790751708984375,0.0010550301522016525,-0.0010989662259817123,-0.001000041258521378
1772618142206782500,7.800782470703125,-0.0016745920293033123,-0.00036632735282182693,0.0005771367577835917
1772618142216814800,7.81081494140625,-0.0028868624940514565,0.001732509583234787,0.0009273424511775374
1772618142226846700,7.8208466796875,-0.0007426245138049126,-0.000474338885396719,0.0013966328697279096
1772618142236878600,7.830878662109375,0.0013074770104140043,-0.002615520264953375,-0.0025184801779687405
1772618142246910500,7.840910400390625,-0.00011579087004065514,-0.0024657058529555798,-0.00034665182465687394
1772618142256942800,7.85094287109375,0.001693294383585453,-0.0005530235357582569,0.0027106571942567825
1772618142266974700,7.860974609375,0.0017224035691469908,-0.0018436014652252197,0.0003993813879787922
1772618142277006600,7.871006591796875,-0.001655283384025097,0.0014358148910105228,0.0004787435755133629
1772618142287038500,7.88103857421875,-0.0006225379183888435,0.00010065501555800438,-0.0008880661334842443
1772618142297070800,7.89107080078125,0.00003473041579127312,0.0026018964126706123,-0.0006262774113565683
1772618142307101700,7.901101806640625,0.0012978983577340841,-0.0010680733248591423,0.000049602705985307693
1772618142317133600,7.911133544921875,0.0011008242145180702,0.0014448855072259903,-0.000973317539319396
1772618142327165700,7.921165771484375,0.0007927319966256618,-0.0016560624353587627,-0.00023374386364594102
1772618142337197600,7.931197509765625,0.00022334838286042213,-0.000799856148660183,0.00045681383926421404
1772618142347229700,7.941229736328125,0.002922328654676676,-0.0020100357942283154,-0.0036306751426309347
1772618142357261600,7.951261474609375,-0.0013525774702429771,0.001292283646762371,-0.0026072224136441946
1772618142367293700,7.961293701171875,0.000029135029762983322,-0.0005399500951170921,-0.0008468866581097245
1772618142377325600,7.97132568359375,-0.0010632937774062157,-0.0006611240096390247,-0.0001320941955782473
1772618142387357700,7.981357666015625,-0.000027427449822425842,-0.0001063900999724865,-0.001564359525218606
1772618142397388800,7.991388916015625,0.001988318981602788,0.001434248872101307,-0.0003976287553086877
1772618142407420700,8.001420654296876,-0.0008054757490754128,-0.00019532348960638046,0.0014436638448387384
1772618142417452500,8.01145263671875,0.0016169354785233736,0.0008257320150732994,-0.001621101750060916
1772618142427484700,8.021484619140624,0.00015318021178245544,-0.00036082230508327484,0.000984524143859744
1772618142437516800,8.031516845703125,-0.001872420310974121,-0.002374704461544752,-0.00011589395580813289
1772618142447548700,8.041548583984374,-0.0012945253401994705,-0.0011753831058740616,-0.0012066514464095235
1772618142457580500,8.05158056640625,0.001043730415403843,-0.0012558107264339924,-0.0010849449317902327
1772618142467612700,8.06161279296875,0.000426336657255888,0.0009888517670333385,0.0018835726659744978
1772618142477644800,8.071644775390626,0.0010971869342029095,-0.0022831084206700325,0.0009109862148761749
1772618142487676700,8.0816767578125,-0.0021437383256852627,0.00027186842635273933,0.0001746138441376388
1772618142497707500,8.09170751953125,0.0005931919440627098,-0.0006461231969296932,0.0019589317962527275
1772618142507739600,8.10173974609375,-0.001455430407077074,0.0014716191217303276,-0.0003498989390209317
1772618142517771800,8.111771728515626,0.00020025717094540596,-0.0005894014611840248,-0.0036037489771842957
1772618142527803600,8.1218037109375,0.0001296219415962696,0.00045886775478720665,0.0005023317062295973
1772618142537835500,8.13183544921875,-0.002976689487695694,-0.0007928181439638138,-0.0013810558011755347
1772618142547867600,8.14186767578125,-0.0018679485656321049,0.0002715885639190674,0.0026282845064997673
1772618142557899800,8.151899658203124,-0.0004916265606880188,-0.00021523749455809593,-0.00013421254698187113
1772618142567931600,8.161931640625,-0.0011585704050958157,-0.0011654910631477833,-0.0006881398148834705
1772618142577962800,8.171962646484374,0.0024228484835475683,-0.003523453837260604,0.0019981907680630684
1772618142587994600,8.18199462890625,0.0008822646923363209,0.0004992545582354069,0.0012827669270336628
1772618142598026800,8.19202685546875,-0.0005260147154331207,0.0009378767572343349,0.0014177891425788403
1772618142608058600,8.20205859375,0.0013408651575446129,0.0011976244859397411,-0.0013425035867840052
1772618142618090800,8.2120908203125,-0.0023255087435245514,0.0009094704873859882,-0.0009073431137949228
1772618142628122600,8.22212255859375,0.0018708445131778717,-0.0016450113616883755,0.000024791050236672163
1772618142638154800,8.23215478515625,0.00023806048557162285,0.00003970460966229439,0.000866349961142987
1772618142648186600,8.2421865234375,-0.0007199924439191818,0.0013486389070749283,-0.001453851698897779
1772618142658218500,8.252218505859375,-0.0038444134406745434,-0.0000023827888071537018,-0.0005566327599808574
1772618142668250600,8.262250732421874,0.00039777113124728203,-0.000898673664778471,0.0012537294533103704
1772618142678281500,8.272281494140625,0.0011104331351816654,-0.0023346501402556896,0.001760795246809721
1772618142688313600,8.282313720703126,-0.00036244699731469154,-0.0007981122471392155,0.00032356276642531157
1772618142698345700,8.292345703125,-0.0018223919905722141,-0.0007744100876152515,0.0016564748948439956
1772618142708377600,8.302377685546874,-0.001534116454422474,0.00014705071225762367,0.0023568414617329836
1772618142718409500,8.312409423828125,-0.0005700518377125263,-0.00013657612726092339,0.00027584738563746214
1772618142728441600,8.322441650390624,-0.0017184014432132244,0.001919703558087349,0.0011046569561585784
1772618142738473700,8.3324736328125,-0.00001264689490199089,0.0001963721588253975,0.0024082744494080544
1772618142748505600,8.342505615234375,-0.0008605546317994595,0.00017980393022298813,0.0008986164466477931
1772618142758537500,8.352537353515626,0.0012643816880881786,-0.0005283304490149021,-0.0001051289145834744
1772618142768568800,8.36256884765625,0.0021549710072577,-0.0019002901390194893,0.0010500632924959064
1772618142778600700,8.3726005859375,0.00132832583039999,0.00039109354838728905,-0.000008543313015252352
1772618142788632600,8.382632568359375,0.0014851521700620651,0.0022500045597553253,0.0015219668857753277
1772618142798664400,8.39266455078125,0.0011442676186561584,-0.0025037378072738647,-0.00024424155708402395
1772618142808696800,8.40269677734375,0.0005364273674786091,0.00013291044160723686,-0.0011136288521811366
1772618142818728700,8.412728759765624,-0.00154909398406744,0.0005600815638899803,0.000931945163756609
1772618142828760600,8.422760498046875,0.0015906644985079765,0.0004464150406420231,-0.0033489016350358725
1772618142838792400,8.43279248046875,0.0008148858323693275,0.00013935286551713943,0.0013646271545439959
1772618142848824800,8.442824951171875,-0.00048126932233572006,0.0010441765189170837,-0.000811612990219146
1772618142858855700,8.452855712890624,0.0006705480627715588,0.00001593027263879776,0.0010739051504060626
1772618142868887600,8.462887451171875,0.001252984395250678,-0.0013425042852759361,-0.0008317579049617052
1772618142878919700,8.472919677734374,-0.0008045737631618977,0.0011427579447627068,0.0018899926217272878
1772618142888951600,8.48295166015625,-0.0010675196535885334,-0.00009962217882275581,-0.00008475669892504811
1772618142898983700,8.492983642578125,0.0017735406290739775,0.0011376822367310524,-0.002113286405801773
1772618142909015600,8.503015625,-0.0012491028755903244,-0.0015795491635799408,0.000425984151661396
1772618142919047700,8.513047607421875,0.0009509343653917313,-0.0010826033540070057,-0.0021149376407265663
1772618142929079600,8.52307958984375,0.0019170367158949375,0.00046969763934612274,-0.00031802919693291187
1772618142939111700,8.533111572265625,-0.0008103065192699432,0.0007421392947435379,-0.001600341172888875
1772618142949143600,8.5431435546875,0.0029182794969528913,-0.0024949247017502785,0.001445097615942359
1772618142959174700,8.553174560546875,-0.00016113370656967163,-0.0003060726448893547,-0.0005557352560572326
1772618142969206500,8.56320654296875,0.0005934746004641056,-0.0013336245901882648,-0.0010161855025216937
1772618142979238700,8.57323876953125,0.0001932014711201191,0.0012704143300652504,-0.0015131314285099506
1772618142989270800,8.583270751953124,-0.002665190026164055,0.0006594634614884853,0.0003426181501708925
1772618142999302700,8.593302734375,0.0007348679937422276,0.0004767701029777527,-0.0019745982717722654
1772618143009334500,8.60333447265625,-0.0005445908755064011,-0.0020002713426947594,-0.001604444463737309
1772618143019366700,8.61336669921875,0.0011270754039287567,0.0000154753215610981,-0.0037094070576131344
1772618143029398800,8.623398681640625,-0.001539791002869606,-0.003110367339104414,-0.0004709739878308028
1772618143039430700,8.6334306640625,0.0007571852765977383,-0.00010072905570268631,-0.001097882050089538
1772618143049461500,8.64346142578125,0.0010656006634235382,-0.0006214608438313007,0.0018427253235131502
1772618143059493600,8.65349365234375,0.0004927548579871655,0.00014686072245240211,-0.0005123079754412174
1772618143069525800,8.66352587890625,0.0009646173566579819,0.0015358761884272099,0.0011907594744116068
1772618143079557600,8.6735576171875,0.0010189460590481758,-0.0023483443073928356,-0.0021099622827023268
1772618143089589500,8.683589599609375,-0.0002572033554315567,-0.0004278840497136116,0.0015669009881094098
1772618143099621600,8.69362158203125,-0.0018963790498673916,0.0008493680506944656,-0.0003609613049775362
1772618143109653800,8.70365380859375,-0.000006629154086112976,0.000671344343572855,-0.0010453512659296393
1772618143119685600,8.713685546875,0.0007047010585665703,-0.00040963245555758476,0.0014130126219242811
1772618143129717500,8.723717529296875,-0.0013589179143309593,0.001213272102177143,0.0012613744474947453
1772618143139748600,8.73374853515625,0.0006235390901565552,-0.003315966110676527,0.0004003745852969587
1772618143149780700,8.74378076171875,-0.0011711963452398777,0.00004775403067469597,-0.0002154478570446372
1772618143159812600,8.7538125,-0.0009996886365115643,-0.001032424159348011,0.0034613122697919607
1772618143169844700,8.7638447265625,0.00015611108392477036,0.002267352305352688,0.0005057698581367731
1772618143179876600,8.773876708984375,-0.0008425740525126457,0.0005211178213357925,-0.0033872388303279877
1772618143189908700,8.78390869140625,0.0007381043396890163,0.0016967235133051872,0.0009556884760968387
1772618143199940600,8.793940673828125,-0.0020251916721463203,-0.0011608484201133251,0.0015700797084718943
1772618143209972700,8.80397265625,-0.0023039313964545727,-0.0017541395500302315,-0.0030622477643191814
1772618143220004600,8.814004638671875,-0.001482346560806036,-0.001393547747284174,0.0016949566779658198
1772618143230035500,8.824035400390626,-0.00048511242493987083,0.0014757206663489342,-0.0010764189064502716
1772618143240067800,8.83406787109375,0.0007212995551526546,-0.0020806649699807167,0.0012655649334192276
1772618143250099700,8.844099609375,0.0008305925875902176,0.0014759954065084457,-0.001305428915657103
1772618143260131600,8.854131591796875,0.0003155376762151718,0.0011875750496983528,0.0005577185656875372
1772618143270163500,8.86416357421875,0.0007919566705822945,0.00002028048038482666,0.0009161678026430309
1772618143280195800,8.87419580078125,0.003409311641007662,-0.0006961100734770298,-0.0008369911811314523
1772618143290227700,8.884227783203125,0.0008377423509955406,-0.0018968898802995682,-0.0023652142845094204
1772618143300259600,8.894259521484376,-0.0029106573201715946,0.0015590940602123737,0.00003296224167570472
1772618143310290700,8.904290771484375,0.00020983954891562462,-0.0003183595836162567,-0.0017236208077520132
1772618143320322800,8.91432275390625,-0.0008341199718415737,-0.002093356568366289,-0.0018722251988947392
1772618143330354700,8.924354736328125,0.0012963300105184317,0.002975453156977892,-0.0003280423115938902
1772618143340386600,8.934386474609376,-0.0009468505159020424,-0.0013479222543537617,0.0030935867689549923
1772618143350418700,8.944418701171875,-0.001589008141309023,-0.00013033580034971237,0.00008337630424648523
1772618143360450800,8.954450927734374,0.0021175795700401068,0.002212713472545147,0.00046687154099345207
1772618143370482700,8.964482666015625,-0.0007066982798278332,0.0007609575986862183,0.0004365140339359641
1772618143380514600,8.9745146484375,0.0010485914535820484,0.00039424002170562744,0.0010442474158480763
1772618143390546700,8.984546630859375,-0.0004477044567465782,-0.0019353893585503101,-0.0019733484368771315
1772618143400578800,8.994578857421875,0.000010891817510128021,-0.0012650717981159687,0.0017601370345801115
1772618143410609700,9.004609619140625,0.0024877204559743404,-0.0012050834484398365,0.00030028936453163624
1772618143420641500,9.0146416015625,0.0009044711478054523,-0.000484964344650507,0.0010278649860993028
1772618143430673700,9.024673583984375,0.0018871177453547716,0.0010402812622487545,-0.002334535587579012
1772618143440705500,9.03470556640625,-0.0017211991362273693,0.0001888689585030079,0.0017065450083464384
1772618143450737700,9.044737548828126,-0.00253573851659894,0.001447044312953949,-0.0015078983269631863
1772618143460769500,9.05476953125,0.0014773791190236807,-0.0004190327599644661,-0.0019931262359023094
1772618143470801700,9.0648017578125,-0.0006703776307404041,0.0007326756604015827,0.002749352715909481
1772618143480833500,9.07483349609375,0.0008122040890157223,-0.0009304690174758434,-0.0008906560251489282
1772618143490864600,9.08486474609375,0.001209606183692813,-0.0010699285194277763,0.0038584666326642036
1772618143500896800,9.094896728515625,-0.0010085408575832844,0.0026278705336153507,-0.001260128803551197
1772618143510928600,9.1049287109375,0.0014740889891982079,-0.0033616002183407545,-0.0013096262700855732
1772618143520960500,9.11496044921875,-0.003989651799201965,0.002016653772443533,-0.002487276215106249
1772618143530992600,9.12499267578125,-0.00021462561562657356,-0.0006365207955241203,0.0006854826351627707
1772618143541024800,9.135024658203125,-0.001463648397475481,-0.0006831260398030281,0.0028474368155002594
1772618143551056600,9.145056640625,-0.002383692190051079,0.000300050713121891,-0.002403796184808016
1772618143561088500,9.155088623046876,0.0009857392869889736,0.0003181598149240017,0.0016450074035674334
1772618143571120600,9.16512060546875,-0.0015452872030436993,-0.001312284730374813,0.0029250956140458584
1772618143581151700,9.17515185546875,0.0001466190442442894,0.0007985364645719528,-0.0024723329115659
1772618143591183600,9.18518359375,0.0007254024967551231,-0.0004152306355535984,-0.0015411691274493933
1772618143601215500,9.195215576171876,-0.0003917939029633999,-0.0009971312247216702,0.00045540276914834976
1772618143611247600,9.20524755859375,-0.0002751387655735016,0.0006973803974688053,0.0027000755071640015
1772618143621279700,9.21527978515625,-0.0006351983174681664,0.0006720800884068012,0.000036914367228746414
1772618143631311600,9.2253115234375,-0.00012108776718378067,-0.00036033429205417633,-0.0000524229253642261
1772618143641343500,9.235343505859374,-0.000775426160544157,-0.0006080078892409801,0.0005023135454393923
1772618143651375600,9.245375732421875,-0.0013834880664944649,-0.00025164708495140076,0.0008064792491495609
1772618143661407700,9.25540771484375,-0.00082795275375247,0.0010205451399087906,-0.0020465650595724583
1772618143671438600,9.2654384765625,0.0004039485938847065,0.0016529099084436893,-0.0010947779519483447
1772618143681470700,9.275470703125,-0.0005358811467885971,0.0012246728874742985,-0.0012369907926768064
1772618143691502600,9.285502685546875,0.0016937509644776583,-0.00001912703737616539,-0.0003030890948139131
1772618143701534000,9.295533935546874,0.000835680402815342,-0.001719821710139513,0.002830119803547859
1772618143711566000,9.305566162109375,0.0022404761984944344,0.0009318599477410316,0.0008980476995930076
1772618143721598000,9.315597900390625,-0.0003057718276977539,0.0002990923821926117,-0.000003698631189763546
1772618143731630000,9.325630126953126,0.00044920435175299644,0.0005808332934975624,-0.00360623886808753
1772618143741662000,9.335661865234375,-0.001906894613057375,0.00043862080201506615,-0.001413392135873437
1772618143751694000,9.345694091796876,-0.00040123332291841507,0.001637376844882965,-0.00013254588702693582
1772618143761725000,9.355724853515625,0.0011513899080455303,0.00029008369892835617,0.0011588209308683872
1772618143771756800,9.3657568359375,0.0010699895210564137,0.0006947824731469154,-0.003588623134419322
1772618143781789200,9.3757890625,-0.0008064736612141132,0.0017392747104167938,-0.0024402679409831762
1772618143791821000,9.385821044921874,0.0010278918780386448,-0.0007884050719439983,0.0002776361652649939
1772618143801853000,9.39585302734375,-0.00005468307062983513,-0.00117403082549572,0.0017277274746447802
1772618143811884800,9.405884765625,-0.0025922521017491817,-0.0008475556969642639,-0.0012479836586862803
1772618143821917200,9.415917236328125,0.0009116688743233681,0.0007202471606433392,-0.0011036403011530638
1772618143831949000,9.425948974609375,0.0001690862700343132,-0.0012421337887644768,0.0004621255793608725
1772618143841980000,9.43597998046875,0.0010484619997441769,-0.00042294571176171303,-0.0005163198802620173
1772618143852012000,9.446011962890625,0.0018305382691323757,-0.00007514376193284988,-0.0004796832799911499
1772618143862044000,9.4560439453125,-0.0005601812154054642,0.0005882494151592255,0.0020479229278862476
1772618143872076000,9.466075927734375,0.0007378309965133667,-0.001072724349796772,0.0006082314066588879
1772618143882108000,9.47610791015625,-0.0013780505396425724,0.0007416876032948494,0.00022020889446139336
1772618143892140000,9.48614013671875,0.00006371736526489258,0.0001097419299185276,-0.002513193292543292
1772618143902172200,9.496172119140626,-0.0007908912375569344,0.0011678156442940235,-0.0005792056908831
1772618143912204000,9.5062041015625,-0.0026674349792301655,0.00019475910812616348,-0.000871807336807251
1772618143922236000,9.51623583984375,0.0009763017296791077,0.0034091942943632603,-0.0011999087873846292
1772618143932267000,9.52626708984375,0.00033620139583945274,-0.0005991370417177677,-0.001118268701247871
1772618143942299000,9.536298828125,-0.00023691123351454735,-0.0017283172346651554,-0.0013307889457792044
1772618143952331000,9.5463310546875,0.0013540612999349833,-0.00012882286682724953,0.0036003203131258488
1772618143962363000,9.55636279296875,0.0005934624932706356,0.00018116924911737442,0.00018135388381779194
1772618143972395000,9.56639501953125,0.0005310121923685074,0.001801918726414442,0.0013285113964229822
1772618143982427000,9.576427001953125,-0.002269834280014038,-0.0009507248178124428,-0.001703497488051653
1772618143992459000,9.586458984375,0.0016611148603260517,-0.0009336029179394245,0.0018326134886592627
1772618144002491000,9.596490966796875,-0.00035649584606289864,0.000544451642781496,-0.00009471626253798604
1772618144012522000,9.60652197265625,-0.002041156869381666,-0.001732642762362957,0.0047795698046684265
1772618144022553900,9.616553955078125,0.00019350135698914528,-0.0027342578396201134,-0.00023649429203942418
1772618144032586000,9.6265859375,-0.0010868939571082592,-0.0014552637003362179,0.003277312498539686
1772618144042618000,9.6366181640625,0.00031153205782175064,-0.0018882937729358673,0.0008136223768815398
1772618144052650000,9.64664990234375,0.00020509399473667145,-0.0005252426490187645,-0.000853090372402221
1772618144062681900,9.656681884765625,-0.000030329450964927673,0.000931240152567625,-0.001335122506134212
1772618144072714000,9.6667138671875,0.001252191374078393,-0.001044676173478365,-0.00033643777715042233
1772618144082746000,9.67674609375,-0.0007787351496517658,0.00018969876691699028,-0.002409975044429302
1772618144092777000,9.68677685546875,0.001260499469935894,-0.0013462826609611511,-0.00143330916762352
1772618144102808800,9.696808837890625,0.00034863315522670746,0.00035494426265358925,0.00002237467560917139
1772618144112841000,9.706841064453124,-0.0009744074195623398,0.0006582927890121937,0.0028426507487893105
1772618144122873000,9.716873046875,-0.0016718888655304909,-0.0015545273199677467,0.0000109116081148386
1772618144132905000,9.726905029296875,0.0023841271176934242,0.000999238807708025,0.0015067572239786386
1772618144142936800,9.736936767578126,0.000583830289542675,0.0010863239876925945,0.00032378087053075433
1772618144152969000,9.746968994140625,-0.0016742846928536892,0.0011511696502566338,0.001137024024501443
1772618144163001000,9.7570009765625,0.0014133844524621964,-0.0006507248617708683,0.00026111031183972955
1772618144173033000,9.767032958984375,-0.00003297021612524986,-0.0016786577180027962,0.00030379893723875284
1772618144183064000,9.77706396484375,-0.001638856716454029,-0.00015959050506353378,0.00040499900933355093
1772618144193096000,9.787095947265625,0.0009443257004022598,0.0013657673262059689,0.0005141574656590819
1772618144203127800,9.7971279296875,-0.0019063218496739864,0.002333559561520815,0.000811898848041892
1772618144213160000,9.807159912109375,-0.0005614603869616985,-0.000723683275282383,-0.0009261970408260822
1772618144223192000,9.817192138671874,0.00028063124045729637,0.0009881961159408092,0.0010722388979047537
1772618144233224000,9.827223876953125,-0.0025522406212985516,-0.000985028687864542,0.000009195820894092321
1772618144243256000,9.837256103515625,0.0024734106846153736,-0.0011227140203118324,-0.0004637816164176911
1772618144253288000,9.847287841796875,0.0008158786222338676,-0.0008565569296479225,0.0008224969496950507
1772618144263319000,9.857319091796874,-0.0006773555651307106,-0.0005225967615842819,0.0009673729073256254
1772618144273351000,9.867350830078125,-0.0016904398798942566,-0.002240268513560295,0.002256941981613636
1772618144283382800,9.8773828125,0.0012861753348261118,-0.0007678065448999405,0.0027344468981027603
1772618144293415200,9.887415283203126,-0.0009540938772261143,0.001768898218870163,-0.0007047371473163366
1772618144303447000,9.897447021484375,0.0009583220817148685,0.00020775338634848595,-0.001863212208263576
1772618144313479000,9.90747900390625,-0.0005530603229999542,0.0013937554322183132,-0.0011215455597266555
1772618144323510800,9.9175107421875,-0.001938969362527132,0.0012161224149167538,-0.0019239559769630432
1772618144333543200,9.927543212890624,-0.0018896227702498436,0.0008014803752303123,0.0006480959127657115
1772618144343575000,9.937574951171875,-0.0011612479574978352,0.002790329046547413,-0.0009255658951587975
1772618144353606000,9.94760595703125,-0.00022702710703015327,0.0010108062997460365,0.00017355603631585836
1772618144363638000,9.957637939453125,-0.0014848378486931324,0.0024340003728866577,-0.002198521513491869
1772618144373670000,9.967669921875,-0.00009885057806968689,0.00022759521380066872,-0.0016182810068130493
1772618144383702000,9.977701904296875,-0.0010368158109486103,0.00041588069871068,0.0014219838194549084
1772618144393734000,9.98773388671875,0.0036107865162193775,-0.0003454163670539856,0.0006204156670719385
1772618144403766000,9.99776611328125,-0.0008968799374997616,0.002714022994041443,-0.002605471294373274
1772618144413798100,10.007798095703125,-0.0007799752056598663,0.0007383315823972225,-0.0003240452497266233
1772618144423830000,10.017830078125,-0.00026997970417141914,-0.0008997791446745396,0.0012349693570286036
1772618144433861000,10.027861083984375,0.00003690691664814949,0.002728900406509638,0.001305360347032547
1772618144443893000,10.03789306640625,0.001247580163180828,0.0034061414189636707,0.0016734092496335506
1772618144453924900,10.0479248046875,-0.0006869747303426266,-0.0000284658744931221,-0.0001860764459706843
1772618144463957000,10.05795703125,0.0011737761087715626,0.00189540209248662,0.00044216320384293795
1772618144473989000,10.067989013671875,0.000068719033151865,-0.0006630481220781803,0.0019753065425902605
1772618144484021000,10.07802099609375,-0.001781112514436245,0.0002964888699352741,-0.0012447214685380459
1772618144494052900,10.088052978515625,0.0000929604284465313,0.0007726387120783329,-0.0031523676589131355
1772618144504085000,10.0980849609375,-0.0002540494315326214,0.0007199081592261791,-0.00030944321770220995
1772618144514116000,10.1081162109375,-0.001111919991672039,-0.00044283969327807426,-0.00022241100668907166
1772618144524148000,10.11814794921875,-0.0012610568664968014,-0.0013818698935210705,0.0024559299927204847
1772618144534179800,10.128179931640625,-0.0005784216336905956,-0.000570045318454504,0.0032434856984764338
1772618144544212000,10.1382119140625,0.0022690303158015013,-0.0009498121216893196,0.002081548562273383
1772618144554244000,10.148244140625,0.0008176229894161224,-0.0002075694501399994,-0.000742237432859838
1772618144564276000,10.15827587890625,0.00021601514890789986,-0.0016078595072031021,0.002882591215893626
1772618144574307800,10.168307861328126,-0.002753801643848419,-0.0012238137423992157,0.0025280178524553776
1772618144584340000,10.178340087890625,0.0012505268678069115,-0.0019455300644040108,0.001477933139540255
1772618144594372000,10.1883720703125,0.0009837723337113857,-0.0004062186926603317,-0.0005123413866385818
1772618144604403000,10.19840283203125,0.0013054818846285343,-0.0013897242024540901,-0.0004628066089935601
1772618144614435000,10.20843505859375,0.00025017140433192253,0.0001247716136276722,0.0016101046930998564
1772618144624467000,10.218467041015625,-0.0001532970927655697,-0.002498974557965994,0.0027438125107437372
1772618144634499000,10.2284990234375,0.002271573292091489,-0.00006424449384212494,-0.0003802345017902553
1772618144644531000,10.238531005859375,-0.000846189446747303,0.002348313108086586,0.00036944530438631773
1772618144654563000,10.24856298828125,0.0014904020354151726,0.00008364161476492882,0.0005439082160592079
1772618144664595000,10.258594970703125,0.003318395931273699,0.0009678113274276257,-0.0012537254951894283
1772618144674627000,10.268626953125,0.00009603239595890045,-0.000015838071703910828,0.0014495643554255366
1772618144684658200,10.278658203125,-0.000001705717295408249,0.00010427087545394897,0.0015342527767643332
1772618144694690000,10.28868994140625,-0.0027333120815455914,0.0021057985723018646,0.0017523099668323994
1772618144704723000,10.298722900390626,0.001424681395292282,0.00019924156367778778,0.0003741239779628813
1772618144714754800,10.3087548828125,-0.0003721751272678375,-0.0003673555329442024,0.0009078034199774265
1772618144724786700,10.31878662109375,-0.0016092131845653057,0.0019615786150097847,-0.0024813353084027767
1772618144734818800,10.32881884765625,-0.002073893789201975,-0.00004150485619902611,0.0020573954097926617
1772618144744851000,10.338850830078124,-0.004455558955669403,0.18538694083690643,0.04056350886821747
1772618144754882800,10.3488828125,-0.007720778696238995,0.3404656946659088,0.054003722965717316
1772618144764914000,10.358913818359374,0.005713270511478186,-0.21424758434295654,-0.027895672246813774
1772618144774945800,10.36894580078125,0.005263584200292826,-0.15564846992492676,-0.03194566071033478
1772618144784978000,10.37897802734375,-0.0007245335727930069,0.032462578266859055,0.005299448035657406
1772618144795009800,10.389009765625,-0.0013173678889870644,0.09312260895967484,0.017283417284488678
1772618144805041700,10.399041748046875,-0.00008006347343325615,0.025406140834093094,0.005081613082438707
1772618144815074000,10.409073974609376,0.003545232582837343,-0.13658469915390015,-0.022934505715966225
1772618144825106000,10.41910595703125,0.004718621261417866,-0.23451019823551178,-0.05575929954648018
1772618144835137800,10.4291376953125,0.0013286422472447157,-0.11811013519763947,-0.027043726295232773
1772618144845169000,10.4391689453125,-0.002422686666250229,0.07811130583286285,0.016681384295225143
1772618144855200800,10.44920068359375,-0.0026564314030110836,0.12918081879615784,0.03244748339056969
1772618144865233000,10.45923291015625,-0.002285453025251627,0.08854284882545471,0.021241435781121254
