time,seconds_elapsed,z,y,x
1772619284661767200,0.07576708984375,-0.4846130702137947,0.25993586143031716,0.23263803159482777
1772619284671798300,0.08579833984375,-0.4951058226555586,0.24220190568864344,0.21428996254280208
1772619284681829000,0.0958291015625,-0.37620939411818977,0.20972207010537386,0.22508440134488045
1772619284691860200,0.105860107421875,-0.14057400733828543,0.11850859826356172,0.23606457197740674
1772619284701890300,0.115890380859375,0.11536766988933085,0.03753127375394106,0.2415069091618061
1772619284711921200,0.125921142578125,0.35418227122724055,-0.07217851650416851,0.20781718633212148
1772619284721952300,0.1359521484375,0.5333621958136558,-0.15703721249178051,0.1540155265830457
1772619284731983000,0.145983154296875,0.669475716611743,-0.24551073797568676,0.1362525639425963
1772619284742014200,0.15601416015625,0.7053782201200723,-0.2934424097128212,0.09582242694199085
1772619284752045000,0.166045166015625,0.6928016471415758,-0.31058702125921844,0.06415376161113381
1772619284762076200,0.176076171875,0.5977747544914483,-0.31063173718377945,0.06825403653681278
1772619284772107000,0.18610693359375,0.4305979869097471,-0.2913889843143523,0.052405748411267994
1772619284782138000,0.19613818359375,0.23011983822882173,-0.2371399461239576,0.01713423628285527
1772619284792169200,0.206169189453125,0.05270400070548057,-0.18420096761882304,0.00972607891820371
1772619284802200300,0.216200439453125,-0.08354512917101382,-0.17413740037456155,-0.018878230405971405
1772619284812231400,0.2262314453125,-0.15303367593884468,-0.17498291128799318,-0.061546940113604065
1772619284822262300,0.23626220703125,-0.22260756290256975,-0.15878113354966045,-0.10344956081956624
1772619284832293400,0.24629345703125,-0.27960779949724673,-0.14179785004481674,-0.11599595785550773
1772619284842324200,0.25632421875,-0.31177871526181694,-0.10325462276935576,-0.1258128568623215
1772619284852355300,0.266355224609375,-0.2994593319147825,-0.061100803781300776,-0.06789886642359197
1772619284862386200,0.27638623046875,-0.25740181290805336,0.02173427742421627,-0.019735724018141627
1772619284872417300,0.286417236328125,-0.1681248620867729,0.06545359216332436,0.03453596439547837
1772619284882448100,0.2964482421875,-0.07119710425138473,0.03892448167800903,0.04194923632666468
1772619284892479200,0.306479248046875,0.02687807005345821,-0.03041647331267595,-0.00837758691869676
1772619284902510000,0.316510009765625,0.0836468359798193,-0.11260960335284471,-0.05674677329026162
1772619284912540200,0.3265400390625,0.15851064604520798,-0.16269523825347423,-0.09179477886110543
1772619284922571300,0.3365712890625,0.19013386479914188,-0.19071897121071815,-0.07345328568033874
1772619284932602000,0.34660205078125,0.23583470874428747,-0.18579437429010867,-0.022566709660366176
1772619284942633200,0.35663330078125,0.32460604813098903,-0.20706308002918958,-0.020240020278468728
1772619284952664000,0.3666640625,0.37998832813501354,-0.23916326864510773,-0.024739158328622578
1772619284962695200,0.376695068359375,0.41012686128914355,-0.2635033446535468,0.0021392039857804773
1772619284972726000,0.38672607421875,0.44391573364436626,-0.2981561403617263,0.008307955748587847
1772619284982757400,0.39675732421875,0.4307669137358665,-0.25697014349251984,0.0960435223467648
1772619284992788200,0.406788330078125,0.3542120818436146,-0.21425825223028658,0.17857545588724313
1772619285002819300,0.4168193359375,0.26592472658157346,-0.17373291122689843,0.2741846054047346
1772619285012850200,0.42685009765625,0.15952303795814513,-0.1621792515553534,0.33189971227049825
1772619285022881300,0.43688134765625,0.05967442423999309,-0.18677534815147517,0.34365364375449714
1772619285032912100,0.446912109375,0.03712532330155372,-0.2274799912445247,0.2925442187640816
1772619285042943200,0.456943115234375,0.07629998034834862,-0.2697527604371309,0.27691790282614526
1772619285052974300,0.466974365234375,0.11947802781760691,-0.3310920491494238,0.2570927469588816
1772619285063005200,0.477005126953125,0.12233049463927745,-0.40890009597316385,0.24102248664572834
1772619285073036300,0.487036376953125,0.11982932547330856,-0.43114042322337626,0.22640783196836708
1772619285083067100,0.497067138671875,0.10028466704785824,-0.45604792385622855,0.2013067815247923
1772619285093098200,0.50709814453125,0.07615501891970634,-0.4683361814126372,0.20804865700043737
1772619285103129000,0.517129150390625,0.05028291103839874,-0.48032004919499155,0.2143851665455848
1772619285113160200,0.52716015625,0.07850830404758453,-0.4758760753981769,0.228551346803084
1772619285123190300,0.537190185546875,0.08593173204660415,-0.500953671900928,0.22853417647257446
1772619285133221000,0.54722119140625,0.03892915785312653,-0.5135957113310694,0.23417970807887611
1772619285143252200,0.557252197265625,-0.012473112604022025,-0.5118734175831079,0.24323271004110572
1772619285153283000,0.567282958984375,-0.021363106024265287,-0.5079723184913396,0.2384211450409144
1772619285163314200,0.577314208984375,0.009319617009162902,-0.5234212320357561,0.2305591794941574
1772619285173345300,0.58734521484375,0.06908756475150585,-0.5427110389173031,0.19804843731597066
1772619285183376400,0.59737646484375,0.16213234367370605,-0.6147657829113304,0.16181874767988919
1772619285193407200,0.6074072265625,0.21904899363815783,-0.6482203087456524,0.11538147921897471
1772619285203438300,0.617438232421875,0.2376245147705078,-0.6468826304011046,0.08902436429969966
1772619285213469200,0.62746923828125,0.20126082349121568,-0.6106576169401406,0.09842128432877362
1772619285223500300,0.637500244140625,0.18314298299849033,-0.5624836608797311,0.10428513486087322
1772619285233531100,0.64753125,0.20796353600025175,-0.5416990853957832,0.11863332062177359
1772619285243562200,0.657562255859375,0.235664028352499,-0.5209023810826242,0.15330350585617125
1772619285253593000,0.667593017578125,0.305959799849987,-0.5254892704814672,0.14937339986562728
1772619285263624200,0.677624267578125,0.39813422567844386,-0.5427141076572239,0.178297807989642
1772619285273655300,0.6876552734375,0.48780397520959373,-0.5925222407907247,0.20930369856283068
1772619285283686100,0.69768603515625,0.5855436339497566,-0.6608147096417843,0.178207353227213
1772619285293717200,0.70771728515625,0.65554948258996,-0.7280206984303891,0.16753025719448922
1772619285303748000,0.717748046875,0.6611065321952104,-0.7717356292553246,0.1716286324240267
1772619285313779200,0.727779296875,0.6364566595852374,-0.8141191653460264,0.18418401648402213
1772619285323810000,0.73781005859375,0.6052759239017963,-0.8413121465675533,0.1908746001638472
1772619285333840100,0.747840087890625,0.5491401951819658,-0.8466691435560584,0.2668066970478743
1772619285343871200,0.757871337890625,0.45396541849374766,-0.8664787365280091,0.3057693187791854
1772619285353902000,0.767902099609375,0.382436305809021,-0.8845049532145262,0.3273459214236587
1772619285363933400,0.777933349609375,0.3277893543422222,-0.8939338758170604,0.30957068382352587
1772619285373964300,0.78796435546875,0.31005788281857966,-0.9595920506417751,0.27298531261757014
1772619285383995400,0.797995361328125,0.29838147355020045,-1.0249794457010923,0.2602799986928701
1772619285394026200,0.808026123046875,0.2879384054690599,-1.0519082230284809,0.24421017677113413
1772619285404057300,0.818057373046875,0.3020639614552259,-1.1031877438887954,0.2356207737326622
1772619285414088200,0.828088134765625,0.27931904568374155,-1.1288817187242208,0.24760771025493739
1772619285424119300,0.838119384765625,0.23286299945712088,-1.1309168778136371,0.2769104501720518
1772619285434150100,0.848150146484375,0.2042068138152361,-1.128705046983063,0.32272308392859994
1772619285444181200,0.85818115234375,0.1631803914219141,-1.1348897269673646,0.3362562269795686
1772619285454212000,0.868212158203125,0.12864274652600288,-1.1603886176221072,0.3419805959757417
1772619285464243500,0.878243408203125,0.1386029995262623,-1.1688066096164285,0.36031412504576144
1772619285474274300,0.8882744140625,0.1897965956687927,-1.2008758185721933,0.3657698331683874
1772619285484305400,0.898305419921875,0.2472019059330225,-1.2450681576505302,0.365330930294469
1772619285494336300,0.908336181640625,0.2741255686938763,-1.2611414867036044,0.3501093226999044
1772619285504367400,0.918367431640625,0.260940508428216,-1.2508701219275593,0.3377672891296446
1772619285514398500,0.9283984375,0.21843583017587662,-1.2482853661313653,0.3242714093491435
1772619285524429300,0.93842919921875,0.17703823638260363,-1.2247520764611661,0.31861674458831546
1772619285534459400,0.94845947265625,0.07400748549699783,-1.204753829049319,0.32206651971600947
1772619285544490200,0.958490234375,-0.016349661776423455,-1.2003439036525785,0.29650749637186524
1772619285554521300,0.968521240234375,-0.09610825814604759,-1.1926631398916243,0.3008350772473961
1772619285564552200,0.97855224609375,-0.12618600102365016,-1.1877587089762092,0.3323084392018616
1772619285574583300,0.988583251953125,-0.11456745942234993,-1.2139755386419593,0.4129540475390851
1772619285584614400,0.998614501953125,-0.01225333237349987,-1.238266660942137,0.39851803736425934
1772619285594645200,1.008645263671875,0.10452011266052723,-1.2495968871213494,0.40495442708730695
1772619285604676400,1.01867626953125,0.19515023165643214,-1.2867745251320302,0.38509244634099304
1772619285614707200,1.028707275390625,0.20251696103215217,-1.237913463590294,0.3894103095401078
1772619285624738300,1.03873828125,0.17652736425101756,-1.0863755791671574,0.3782305977474898
1772619285634769200,1.04876904296875,0.1132306578606367,-0.9264410377986728,0.3844545868288725
1772619285644800300,1.05880029296875,-0.020793781703710556,-0.7495544848464429,0.367659884698689
1772619285654831400,1.068831298828125,-0.19741116232573985,-0.5719267581380904,0.326225904417783
1772619285664862500,1.078862548828125,-0.44398178461790083,-0.22197145695611833,0.4645214454300701
1772619285674893300,1.088893310546875,-0.6920423532068729,0.13482143516093492,0.7481153919540345
1772619285684924400,1.09892431640625,-0.8462392277061939,0.4773096153326332,0.9506929971322416
1772619285694955300,1.108955322265625,-0.8906301580965519,0.7294172673553228,1.1497208008743822
1772619285704986400,1.118986328125,-0.8687643632471561,0.8180541667073965,1.2504352376416326
1772619285715017200,1.129017333984375,-0.7577958050996064,0.7898939478889108,1.152779896184057
1772619285725047300,1.13904736328125,-0.6096580845087767,0.6152934600472449,1.0234458063930272
1772619285735078400,1.149078369140625,-0.46561318618953224,0.4513872385688126,0.7910651836253703
1772619285745109200,1.159109130859375,-0.3435211764812469,0.3717586983196437,0.5173069138739258
1772619285755140400,1.169140380859375,-0.37111703941524027,0.26082491922453044,0.19727562631256879
1772619285765171200,1.179171142578125,-0.6407815370470284,0.24806772898212073,-0.04214673166014254
1772619285775202300,1.189202392578125,-1.0848942545682192,0.3539752043478191,-0.254994386440143
1772619285785233200,1.199233154296875,-1.5517039570659399,0.5369910538353025,-0.4060692564614117
1772619285795264300,1.20926416015625,-1.9286054251015186,0.7461797477163374,-0.4697974861368537
1772619285805295000,1.219295166015625,-2.140768750879168,0.8868997393965721,-0.5249415004055947
1772619285815326200,1.229326171875,-2.162407166713476,0.957441886870563,-0.606708221727237
1772619285825357300,1.239357421875,-1.9346458743095396,1.0244212272964417,-0.6468612953521311
1772619285835388200,1.24938818359375,-1.5189847597688435,0.9903500308685004,-0.7029463898632675
1772619285845419500,1.25941943359375,-0.9662766429722308,0.9095797732383012,-0.74812627867423
1772619285855450400,1.269450439453125,-0.3817787186831236,0.7993975431628525,-0.7303394967667758
1772619285865481500,1.2794814453125,0.13510697410404682,0.7326363755322992,-0.6442343809146434
1772619285875512300,1.28951220703125,0.5364747748762368,0.6981371629506349,-0.5165030501451343
1772619285885543400,1.29954345703125,0.8320096268236636,0.6628530836015939,-0.3828950824271887
1772619285895574300,1.30957421875,1.044849244427681,0.691434158180654,-0.20567242938838898
1772619285905605400,1.31960546875,1.215873919609189,0.6802873257443308,-0.05743270972780883
1772619285915636200,1.32963623046875,1.3455541924893855,0.653975365141034,0.05931311664693057
1772619285925666300,1.339666259765625,1.401691674774885,0.6487585072755814,0.12353840912431478
1772619285935697400,1.349697509765625,1.3298527654886245,0.6400634519055486,0.1918616384398192
1772619285945728300,1.359728271484375,1.16156306822896,0.6398240901917219,0.19348142166137694
1772619285955759400,1.36975927734375,0.9301508521020412,0.6355693553566932,0.16886749714761973
1772619285965790200,1.379790283203125,0.6900415347784757,0.593444908593595,0.08869425556249916
1772619285975821300,1.3898212890625,0.4849924249202013,0.5705076851204037,0.0018557108692824839
1772619285985852200,1.39985205078125,0.27885259721577166,0.5417223201408982,-0.06656549892798065
1772619285995883300,1.40988330078125,0.05323357753753662,0.573970392794907,-0.06589497925527393
1772619286005914000,1.4199140625,-0.21695582075119016,0.657513476139307,-0.0247507757011801
1772619286015945200,1.4299453125,-0.47981765263080595,0.7450739784315228,0.021990517207607627
1772619286025976000,1.43997607421875,-0.7415484346538782,0.7833709758609533,0.012536240968108176
1772619286036007400,1.45000732421875,-0.9353250398695468,0.8151616601362824,-0.024008286770805715
1772619286046038300,1.460038330078125,-0.9769657947689294,0.8002110515028238,-0.06257898657508194
1772619286056069400,1.4700693359375,-0.8242161964684724,0.7500859613746405,-0.10371829475834965
1772619286066100500,1.4801005859375,-0.542179708519578,0.6276479147076607,-0.18339827293381095
1772619286076131300,1.49013134765625,-0.18443126924335956,0.45294864266663787,-0.27435769694931805
1772619286086162400,1.500162353515625,0.15079028092622757,0.3006143471688032,-0.3087961923196912
1772619286096193300,1.510193359375,0.4645861812293529,0.17359101853817702,-0.33748737620972097
1772619286106224400,1.520224365234375,0.6861012727200985,0.07168401098549365,-0.32421178811639545
1772619286116254200,1.530254150390625,0.8267448381632566,0.0401785733923316,-0.3276348944328725
1772619286126285300,1.540285400390625,0.8936696719229221,0.030099662448465823,-0.26166867657229304
1772619286136316400,1.55031640625,0.9298767113357782,0.0020952187135815617,-0.25245566174276174
1772619286146347300,1.56034716796875,0.9369973569959401,0.00009293898046016692,-0.21173852449432015
1772619286156378400,1.57037841796875,0.8314777119040488,0.021684885324537752,-0.17648695917539298
1772619286166409200,1.5804091796875,0.6669751319676637,0.06784925512820482,-0.16752419277988373
1772619286176440300,1.5904404296875,0.49707156977057454,0.056980655111372465,-0.24272870604172347
1772619286186471200,1.60047119140625,0.3901391352713108,0.039542321315407754,-0.26276480124592777
1772619286196502300,1.610502197265625,0.3256850755393505,0.03229308083951473,-0.22837087566964326
1772619286206533000,1.620533203125,0.28048282876610753,0.037657822743058206,-0.22358641787208616
1772619286216564200,1.630564208984375,0.2996627455323934,0.01736409951597452,-0.21152108235135672
1772619286226595300,1.64059521484375,0.3360112392425537,-0.004958206929266453,-0.16114537846297025
1772619286236626400,1.65062646484375,0.406580566984415,-0.046723464991152285,-0.11901910506896674
1772619286246657300,1.6606572265625,0.46462008349895473,-0.09584785364419221,-0.14731288713924587
1772619286256688400,1.6706884765625,0.5251134229063987,-0.1775099455475807,-0.19026063298396764
1772619286266719200,1.68071923828125,0.5920867719829083,-0.23993776014894247,-0.23124014749564228
1772619286276750300,1.690750244140625,0.6270967105656862,-0.3171802820444107,-0.3068989073310047
1772619286286781200,1.70078125,0.6175982298582792,-0.36867198435068127,-0.34596966561190784
1772619286296812300,1.710812255859375,0.5833925933957099,-0.42616088124513624,-0.38353601067923004
1772619286306842400,1.72084228515625,0.513518262180686,-0.46770606681555504,-0.4242319590091705
1772619286316873200,1.730873291015625,0.44721477518975733,-0.46293505302146076,-0.4072370581317693
1772619286326904300,1.740904296875,0.4121113131046295,-0.44581908304765816,-0.3894622589230537
1772619286336935200,1.75093505859375,0.4195177899688482,-0.4547562766104936,-0.35066374171227216
1772619286346966300,1.76096630859375,0.4884586397260427,-0.48827714567929503,-0.2903443706322461
1772619286356997400,1.770997314453125,0.5217570982158184,-0.49932709361240263,-0.23710955098569392
1772619286367028200,1.7810283203125,0.5524795687377453,-0.5064103298716247,-0.16021145861372352
1772619286377059300,1.791059326171875,0.5226408953130245,-0.5243383468806744,-0.09848799288943409
1772619286387090200,1.801090087890625,0.4569757062256336,-0.553266189070791,-0.08008139858320355
1772619286397120800,1.811120849609375,0.37763738109469414,-0.5605835263468325,-0.07070785942971707
1772619286407151600,1.821151611328125,0.32246260636150836,-0.5736161725297569,-0.0825762110736221
1772619286417182700,1.8311826171875,0.3239823632746935,-0.6083065237693488,-0.06185176827907562
1772619286427213800,1.8412138671875,0.3918237273573875,-0.6535755521684885,-0.061499155449122184
1772619286437245000,1.851244873046875,0.47431847069263455,-0.6872508811466396,-0.04389825150258839
1772619286447275800,1.86127587890625,0.5190466702133417,-0.75937459872365,-0.02808963780030608
1772619286457307000,1.871306884765625,0.5441127224087715,-0.8227385251313447,-0.06792801945284009
1772619286467337700,1.881337646484375,0.4730751926332712,-0.8900959050893783,-0.10442023248262702
1772619286477368800,1.891368896484375,0.3135720284193754,-0.9190373374134302,-0.14662424728795886
1772619286487399000,1.90139892578125,0.043806408500671384,-0.9310890097349882,-0.22765300972387192
1772619286497429800,1.9114296875,-0.27157237707972526,-0.8901087645709514,-0.2597719761054963
1772619286507460900,1.9214609375,-0.5644821412205696,-0.8344364155791699,-0.28975867969878016
1772619286517491700,1.93149169921875,-0.8045417741835117,-0.8134088251195848,-0.3008696371041238
1772619286527522800,1.941522705078125,-0.9365449370533228,-0.7948100692421197,-0.3082691727709025
1772619286537553700,1.9515537109375,-0.9719733933091163,-0.8179927919089793,-0.3652399640753865
1772619286547584800,1.961584716796875,-0.9728910926759242,-0.8584661104641854,-0.3727637837089598
1772619286557615900,1.971615966796875,-0.9374942006021737,-0.911606456760317,-0.3414924471326172
1772619286567646700,1.981646728515625,-0.8450479720950126,-0.9350839245900511,-0.302940817354992
1772619286577677800,1.991677734375,-0.758231273907423,-0.9441250169187784,-0.25337182673960923
1772619286587708700,2.001708740234375,-0.671902066975832,-0.9697314596012234,-0.19032807219699024
1772619286597739800,2.01173974609375,-0.6639163289189338,-0.9858053731761872,-0.10280395639240741
1772619286607770600,2.0217705078125,-0.6962211001962423,-0.9695086106307804,-0.07458192438408733
1772619286617802000,2.031802001953125,-0.7277946345895528,-0.9629485214628278,-0.014608736393228173
1772619286627832800,2.041832763671875,-0.7129138763219117,-0.922662396042794,0.003292757935076952
1772619286637864000,2.051864013671875,-0.7356956169724465,-0.9261837020367384,-0.04486154357679188
1772619286647894800,2.061894775390625,-0.8107499811738729,-0.910965966899693,-0.16390687906555831
1772619286657926000,2.07192578125,-1.0019891768664122,-0.870282658855617,-0.259807924201712
1772619286667956700,2.081956787109375,-1.1950211011946201,-0.6533893819466233,-0.30283443437106905
1772619286677986800,2.09198681640625,-1.4177724564820526,-0.4303064566172659,-0.2935246811687946
1772619286688018000,2.102017822265625,-1.614047308254242,-0.1609964715115726,-0.24388174853436648
1772619286698048800,2.112048828125,-1.741810933858156,0.0947102279163897,-0.18459442391581832
1772619286708079900,2.122079833984375,-1.7107038479328154,0.32808892181068655,-0.13003865786381066
1772619286718110700,2.13211083984375,-1.5350877533078193,0.4605493269287049,-0.06345869201906025
1772619286728141800,2.142141845703125,-1.2669827600777148,0.547144345189631,-0.03147409260682762
1772619286738172700,2.152172607421875,-0.9842541982114315,0.6046737202249467,-0.04046162811741233
1772619286748203800,2.162203857421875,-0.6366431220680475,0.6061151512049138,-0.09424187975227832
1772619286758234600,2.172234619140625,-0.20697043330967424,0.532769636747986,-0.10874693657532333
1772619286768265700,2.182265625,0.2230851172864437,0.476341208691895,-0.09157412184774875
1772619286778296800,2.192296875,0.5746516530573368,0.4641517353348434,-0.029595804579555986
1772619286788327700,2.20232763671875,0.8347329143077135,0.49901028274819254,0.022055326072126624
1772619286798358800,2.21235888671875,0.9767524442791938,0.566275454378128,0.12303133638501167
1772619286808390000,2.222389892578125,0.947937853205204,0.6510609389990568,0.27162922183349725
1772619286818421000,2.2324208984375,0.7028139225900173,0.794726628742367,0.4111810465171933
1772619286828451800,2.242451904296875,0.3893757496833801,0.9695379828557371,0.49902664936110375
1772619286838483000,2.25248291015625,0.09920797772705554,1.0827519818425178,0.5344515984855592
1772619286848513800,2.262513671875,-0.11621171949803828,1.1548653241559863,0.5616572930581868
1772619286858545000,2.272544921875,-0.19461364056169986,1.1886331537231802,0.5634441764749586
1772619286868575000,2.282574951171875,-0.1511900938987732,1.2049193948745727,0.5580969702281058
1772619286878605800,2.292605712890625,-0.03467851467132568,1.159639991211891,0.5274909656926989
1772619286888637000,2.302636962890625,0.11681786869764327,1.1214572678118944,0.4355721220605075
1772619286898667800,2.312667724609375,0.2577466808229685,1.053679616615176,0.36142405904904007
1772619286908699000,2.322698974609375,0.3359650620132685,0.9962065018117428,0.26285584053024647
1772619286918729700,2.332729736328125,0.3688374040454626,0.9721449504837393,0.1974966486521065
1772619286928760800,2.3427607421875,0.3157160547107458,1.008766708177328,0.15477160564735531
1772619286938791700,2.352791748046875,0.2270838315337896,1.0905836983814834,0.20773316131047903
1772619286948822800,2.36282275390625,0.1514507906615734,1.193788344529271,0.27794856104813515
1772619286958853600,2.372853515625,0.09040098641514778,1.2993836852058767,0.3388055461362004
1772619286968884700,2.382884765625,0.026713234880566594,1.3713786618366837,0.38257878301963205
1772619286978915600,2.39291552734375,0.024801263779401776,1.3872873018473386,0.3969602865282446
1772619286988947000,2.402947021484375,0.1134007537305355,1.3072677164539694,0.3608903905637562
1772619286998977800,2.412977783203125,0.20815701274573803,1.168952009436488,0.3080499039970338
1772619287009009000,2.4230087890625,0.32232407467365265,0.9949056483462452,0.21917006273455916
1772619287019039700,2.433039794921875,0.45985038487911223,0.8242223339483141,0.14945757101774215
1772619287029070800,2.44307080078125,0.5946224279403686,0.6861269916832446,0.14890658607147633
1772619287039102000,2.45310205078125,0.7353180158317089,0.5652966724738478,0.2069128579035401
1772619287049131800,2.4631318359375,0.8194809846401214,0.46479076389074325,0.30477329347915944
1772619287059163000,2.473162841796875,0.8109113092154264,0.35810119823664427,0.3766748196728527
1772619287069193700,2.48319384765625,0.7264192545831203,0.26547142985612154,0.39079306913539763
1772619287079224800,2.493224853515625,0.5217389780372381,0.17793840009272097,0.38630233358740806
1772619287089256000,2.503255859375,0.2860480616778135,0.12819997119456528,0.37122422611676154
1772619287099286800,2.513286865234375,0.04371288499832153,0.08777385278195142,0.3153600808799267
1772619287109318000,2.52331787109375,-0.17535305977463722,0.04017097460776567,0.25249365566559134
1772619287119348700,2.5333486328125,-0.3799269533365965,-0.023714345325529573,0.1548985199626535
1772619287129379800,2.5433798828125,-0.5334732549726963,-0.051581134155392644,0.09656754622086881
1772619287139410700,2.55341064453125,-0.649501434597373,-0.06291238324791193,0.0402704163942486
1772619287149441800,2.56344189453125,-0.6837626006394625,-0.08011281663477421,0.02250584631860256
1772619287159472600,2.57347265625,-0.6737064860492944,-0.08923954142034053,0.042804464916512366
1772619287169503700,2.583503662109375,-0.625703794902563,-0.10344371560066938,0.04733794362768531
1772619287179534800,2.593534912109375,-0.5378185907006263,-0.07805266923457384,0.06980747652389109
1772619287189566000,2.60356591796875,-0.4117757975399494,-0.05290069232136011,0.11777677685767411
1772619287199596800,2.6135966796875,-0.2882861959934234,-0.022784078738093374,0.17726393489725886
1772619287209628000,2.6236279296875,-0.21846973244547843,0.01752104364335537,0.2586635764721781
1772619287219658800,2.63365869140625,-0.17478198188841343,0.04452332459837198,0.30966362280398607
1772619287229688800,2.643688720703125,-0.10148585953116417,0.043270401927828786,0.2989402764767408
1772619287239720000,2.653719970703125,-0.024813538739085195,0.016940905667841434,0.30335707000568507
1772619287249750800,2.663750732421875,0.07097966210842133,0.008895546378195285,0.29780184703134
1772619287259782000,2.673781982421875,0.20015256998836992,-0.02706979323327541,0.2812439493317157
1772619287269812700,2.683812744140625,0.34568624556064603,-0.060981999707221984,0.25859905986860393
1772619287279843800,2.69384375,0.4672533546119928,-0.11959522445648908,0.24763920137174425
1772619287289874700,2.703874755859375,0.5442278732210397,-0.19816841043382882,0.1973528562672436
1772619287299905800,2.71390576171875,0.6071925711780786,-0.29835867719650266,0.15795038181394339
1772619287309936600,2.7239365234375,0.6333885041862726,-0.3993482776433229,0.11250212439037859
1772619287319967700,2.7339677734375,0.6452765103787184,-0.5070101954609155,0.024766557792201636
1772619287329998800,2.743998779296875,0.6057219141036272,-0.5811296168997884,-0.03606463526748121
1772619287340029700,2.75402978515625,0.5614005418181419,-0.6580696487173437,-0.07561959686875343
1772619287350060800,2.764060791015625,0.5043734172165394,-0.6980956618964672,-0.13808715895861387
1772619287360091600,2.774091552734375,0.4077227227568626,-0.7486898308411241,-0.19439415259212253
1772619287370123000,2.784123046875,0.3415443234503269,-0.7721390954896807,-0.22896540749669073
1772619287380153900,2.79415380859375,0.2843541172415018,-0.7836635290667414,-0.25469912982061504
1772619287390185000,2.80418505859375,0.23333763123154638,-0.7761445317387581,-0.26602935599982735
1772619287400216300,2.81421630859375,0.20718495284318922,-0.7626704253986477,-0.25729995996877547
1772619287410246400,2.824246337890625,0.28816870709359643,-0.7767723082482815,-0.2747759223613888
1772619287420277200,2.83427734375,0.35954584408700463,-0.8495099199399352,-0.24650844377614556
1772619287430308400,2.844308349609375,0.42271980088055133,-0.8638821441635489,-0.17885412669815123
1772619287440339200,2.854339111328125,0.4986614693105221,-0.8435629942342638,-0.08542517076395452
1772619287450370300,2.864370361328125,0.5082628258705139,-0.7896133773818612,0.05871149749197065
1772619287460401400,2.8744013671875,0.49399055489003657,-0.7007812477186321,0.21427366899512706
1772619287470432500,2.8844326171875,0.43392508550584313,-0.5609878693640232,0.33526356268040836
1772619287480463600,2.894463623046875,0.3150800948947668,-0.4391878283396363,0.4513961525276303
1772619287490494500,2.904494384765625,0.15178221457302568,-0.3434048566251993,0.5736937678106129
1772619287500525600,2.914525634765625,-0.02567570852637291,-0.26724253118187186,0.6247776930335909
1772619287510556400,2.924556396484375,-0.2004594439804554,-0.232118610830605,0.7115784629996865
1772619287520587500,2.93458740234375,-0.36095687992870806,-0.22665888411998747,0.7936724435143172
1772619287530618400,2.944618408203125,-0.44981940473020077,-0.23463965374082327,0.8174900300186126
1772619287540649500,2.9546494140625,-0.4813672201603651,-0.3323395649924874,0.8864625170230865
1772619287550680300,2.964680419921875,-0.4783522562533617,-0.44381110422611236,0.9073426618359982
1772619287560711400,2.97471142578125,-0.4106996927410364,-0.5752689081728458,0.8432151306446641
1772619287570742300,2.9847421875,-0.363215472510457,-0.7142205750063061,0.7851443422090262
1772619287580773400,2.9947734375,-0.4429232154756784,-0.8031427210405468,0.7730209928907453
1772619287590804200,3.00480419921875,-0.6594570114225149,-0.7812894934117793,0.7508653482493013
1772619287600834300,3.014834228515625,-1.0325555800437927,-0.6110135907709598,0.7726241025276481
1772619287610865400,3.024865478515625,-1.4964561170965431,-0.37176527419090266,0.7697891713626682
1772619287620896300,3.034896240234375,-1.9871990683674812,-0.057767129313945766,0.8225596614331007
1772619287630927400,3.04492724609375,-2.443558688521385,0.181196525105834,0.7576713019371032
1772619287640958200,3.054958251953125,-2.6784429646730423,0.42123745336830615,0.6886323986329138
1772619287650989600,3.064989501953125,-2.6508383339107033,0.586408141824603,0.7430299053832888
1772619287661020400,3.0750205078125,-2.360104744765162,0.7319669518381356,0.7133919421624392
1772619287671051500,3.085051513671875,-1.854589756298065,0.800514710624516,0.6628406625114381
1772619287681082400,3.095082275390625,-1.2531027032852171,0.776459881298244,0.6794191646076738
1772619287691113500,3.105113525390625,-0.6955214274942875,0.732846657282114,0.6826295780215412
1772619287701144600,3.11514453125,-0.19722060818970202,0.6839677678227424,0.6207528944969177
1772619287711175400,3.125175537109375,0.21749358088970183,0.6545195550203323,0.5288495406948029
1772619287721206500,3.13520654296875,0.5680085617810487,0.5850552659109235,0.39653395087495447
1772619287731237400,3.1452373046875,0.8302887943804264,0.5266533458247781,0.2802636330574751
1772619287741268500,3.1552685546875,0.9240279853075742,0.5142077057495713,0.1199369505662471
1772619287751299300,3.16529931640625,0.8231506130635738,0.5216928008079529,-0.10144231265038252
1772619287761330400,3.175330322265625,0.6262678585261107,0.5679486482873559,-0.3050995297588408
1772619287771361300,3.185361328125,0.41004269013702865,0.6404825541004538,-0.4884167002804577
1772619287781391400,3.195391357421875,0.25276421623528,0.7054381336137652,-0.586914118585363
1772619287791422500,3.20542236328125,0.16170096651911733,0.7897484019383788,-0.6001696868039668
1772619287801453300,3.215453369140625,0.08739011416137218,0.888082227179408,-0.6442057393420487
1772619287811484400,3.225484375,0.08608136965036392,0.9418646707713604,-0.6073503190230578
1772619287821515300,3.235515380859375,0.1678109738320112,0.9841045606076717,-0.5416978432867676
1772619287831546400,3.24554638671875,0.2769125690639019,0.9581047346934676,-0.45112025819569823
1772619287841577500,3.255577392578125,0.3285731981962919,0.9483747833177447,-0.3254379689104855
1772619287851608600,3.265608642578125,0.28001579577624797,0.9573141688376664,-0.20455760001428425
1772619287861639400,3.275639404296875,0.1705430291444063,0.9772872818082571,-0.09974171927757561
1772619287871670500,3.28567041015625,0.038543373405933376,1.0033820925295351,0.018010361530259252
1772619287881701400,3.295701416015625,-0.08415303193628787,1.034166230110824,0.06190422911867499
1772619287891732500,3.305732421875,-0.2146761853814125,1.089118886525929,0.11356215483732521
1772619287901763300,3.315763427734375,-0.30375790589153767,1.0983978792637585,0.1356071787111461
1772619287911794400,3.32579443359375,-0.38695173740684985,1.0942226394057273,0.10971665839031337
1772619287921825500,3.335825439453125,-0.38358781393170355,1.0511474677890538,0.09351568436957895
1772619287931856400,3.3458564453125,-0.3183902423560619,0.9680141342893243,0.038181115964800116
1772619287941887500,3.355887451171875,-0.16179565906524657,0.823293820926547,-0.03568257714733481
1772619287951918300,3.36591845703125,-0.021616788524389266,0.7214058103352785,-0.12625197893194853
1772619287961948400,3.375948486328125,0.0745581051170826,0.6226815244719386,-0.19202588909082113
1772619287971979300,3.385979248046875,0.14106032955050468,0.594927548366785,-0.2636755594152957
1772619287982010400,3.39601025390625,0.1345890877097845,0.5746522375792265,-0.31840938544794917
1772619287992041500,3.40604150390625,0.1384229667842388,0.5810749641031027,-0.36160036546401675
1772619288002072300,3.416072265625,0.10941899061799049,0.609864420735836,-0.3824359404828399
1772619288012103400,3.426103515625,0.0827098473906517,0.6307540640294551,-0.40981896438375115
1772619288022134300,3.43613427734375,0.07374971134364605,0.6187316178023815,-0.43226708916574713
1772619288032165600,3.44616552734375,0.16016718108057976,0.5559522132843733,-0.4667792342942208
1772619288042196500,3.456196533203125,0.3350087842017412,0.4544304056569934,-0.5150811275832354
1772619288052227600,3.4662275390625,0.5790256303578615,0.3102309012979269,-0.5915107256606221
1772619288062258400,3.476258544921875,0.8170166403532028,0.1542868908703327,-0.6372195337165146
1772619288072289500,3.48628955078125,0.989044355097413,0.04997194539308548,-0.711577220890671
1772619288082320400,3.4963203125,1.1429326020389794,-0.03391337551772594,-0.7585420934222639
1772619288092351500,3.5063515625,1.2333639835923909,-0.13146160333901644,-0.739160516604036
1772619288102382300,3.51638232421875,1.2368027258694172,-0.1843105654731393,-0.7455459798574448
1772619288112413400,3.526413330078125,1.1121282984524965,-0.18515081568956374,-0.7430109814871102
1772619288122444300,3.5364443359375,0.9426929382890462,-0.16318886698931453,-0.7123460133060813
1772619288132475400,3.546475341796875,0.78826342407763,-0.10978665488660334,-0.6389492070533335
1772619288142505500,3.55650537109375,0.662726242351532,-0.06814034702926874,-0.5746865782402455
1772619288152536300,3.566536376953125,0.5834890395075082,-0.023641572350263595,-0.5056796044442803
1772619288162567400,3.5765673828125,0.5727449426531791,-0.02016308258473873,-0.4304055330775678
1772619288172598300,3.586598388671875,0.5777659856855869,-0.03849368904531002,-0.38514593009389936
1772619288182629400,3.59662939453125,0.6049526832967996,-0.08062865720242261,-0.32270949379466474
1772619288192660200,3.60666015625,0.6503717876911163,-0.14081103096455336,-0.26942352848276496
1772619288202691300,3.61669140625,0.6732470518440008,-0.20607816064506768,-0.23295791119895873
1772619288212722400,3.626722412109375,0.7119663663387298,-0.27150369575768707,-0.2076904912125319
1772619288222753500,3.63675341796875,0.7259732643812894,-0.3218412595927715,-0.18449914684779942
1772619288232784400,3.646784423828125,0.686273706677556,-0.38032530500441786,-0.16270027975477278
1772619288242815500,3.6568154296875,0.6304939517885446,-0.4109253181904554,-0.14672485811822117
1772619288252846600,3.6668466796875,0.5417769729375839,-0.42131168764829635,-0.1575564140602946
1772619288262877400,3.67687744140625,0.47583588951826095,-0.4374000681400299,-0.1374973033066839
1772619288272908500,3.686908447265625,0.4237310237497091,-0.4688283488437533,-0.1162307895246893
1772619288282939400,3.696939453125,0.3695160339593887,-0.4715776475518942,-0.1177766307272017
1772619288292970500,3.706970458984375,0.367363239839673,-0.5057403216555715,-0.10701653258614241
1772619288303001300,3.71700146484375,0.3273579771876335,-0.573334432978928,-0.07733911413773893
1772619288313032400,3.727032470703125,0.27778642928898334,-0.6353387614712118,-0.12054353815726936
1772619288323062500,3.7370625,0.21672084295153615,-0.6831769097059964,-0.1621994906257838
1772619288333093400,3.74709326171875,0.12622282590270043,-0.7272066055685281,-0.17711648925058543
1772619288343124500,3.75712451171875,0.07105857256352902,-0.7510559754505753,-0.16807736968323586
1772619288353155300,3.7671552734375,0.05985504150390625,-0.7693538486853242,-0.15008271717876195
1772619288363186400,3.7771865234375,0.08610475052595139,-0.782267398533225,-0.11780483390837906
1772619288373217300,3.78721728515625,0.1197311257958412,-0.7844146396949887,-0.09393953580483794
1772619288383248400,3.797248291015625,0.14697510655224322,-0.8065101516470312,-0.07996193692199885
1772619288393278700,3.80727880859375,0.1412245802015066,-0.8166653426975011,-0.08125351110249757
1772619288403309800,3.817309814453125,0.14589724818766117,-0.8292612048983573,-0.09120938018858432
1772619288413341000,3.8273408203125,0.14937982960641383,-0.8184367362841963,-0.0850766495872289
1772619288423371800,3.837371826171875,0.15262567965984344,-0.7988023537486791,-0.13279782037883997
1772619288433403000,3.84740283203125,0.10721651213765143,-0.7949620449334382,-0.21274105260036885
1772619288443433700,3.857433837890625,-0.002757774275541305,-0.7807368279650807,-0.2980226501751691
1772619288453464800,3.86746484375,-0.23731354912519453,-0.745974434402585,-0.2918538253471255
1772619288463495700,3.87749560546875,-0.537996285355091,-0.6638456017702817,-0.28775530398711563
1772619288473527000,3.887527099609375,-0.8120067032366991,-0.5846601291134953,-0.2527310446180403
1772619288483558000,3.897557861328125,-0.9614081601530313,-0.470585713905096,-0.23856267240345477
1772619288493589000,3.907589111328125,-1.0206038609653711,-0.40700814474672076,-0.16540793127827344
1772619288503619800,3.917619873046875,-0.9441174181342125,-0.38035949953496456,-0.052559404603019354
1772619288513650000,3.92764990234375,-0.7573276030659675,-0.3967977163776755,0.012374693730846046
1772619288523681000,3.937680908203125,-0.5611982972443104,-0.4279416271820664,0.03592559212297201
1772619288533712000,3.9477119140625,-0.4435702812075615,-0.5343763412922621,0.13593597227409482
1772619288543743000,3.957742919921875,-0.2925426843941212,-0.6040992813378572,0.21614296999834476
1772619288553773800,3.96777392578125,-0.17385259208381176,-0.64400517526865,0.25826354430392384
1772619288563805000,3.977804931640625,-0.07850713500380516,-0.6808969820752739,0.2721548531427979
1772619288573835800,3.987835693359375,-0.052238136759400366,-0.7181301496654748,0.2355474162355065
1772619288583867000,3.997866943359375,-0.10912731419503688,-0.7181748655900358,0.17246318355202675
1772619288593897700,4.007897705078125,-0.27307635190188884,-0.6527879089221358,0.08551423728689551
1772619288603928800,4.0179287109375,-0.5799485904216766,-0.5309931285947561,0.032424159873276945
1772619288613959700,4.027959716796875,-0.9355898282855749,-0.30695874775946136,0.005355462618544697
1772619288623990800,4.03799072265625,-1.2218822201132773,-0.09622662382870913,0.0020936843436211348
1772619288634021600,4.048021728515625,-1.4189549442648888,0.10532821417301892,0.015945026498287915
1772619288644052700,4.058052734375,-1.4554595053195953,0.32137218077629803,0.024914587960764765
1772619288654083800,4.068083740234375,-1.3493033158898353,0.44000002150535583,0.02747903162129223
1772619288664115000,4.078114990234375,-1.173234216800332,0.5123848742365836,0.05636661486625671
1772619288674146000,4.08814599609375,-0.9400187506437301,0.5803033952087163,0.08427125148847699
1772619288684177000,4.098177001953125,-0.706268446958065,0.6286585530549288,0.09384360114969313
1772619288694208000,4.1082080078125,-0.48417234070897097,0.6434779365241527,0.08840031411722302
1772619288704237800,4.11823779296875,-0.3022679595947265,0.6191060040727258,0.04787058919966221
1772619288714269000,4.12826904296875,-0.15888474005460737,0.5929790446475148,-0.01656958813741803
1772619288724300000,4.138300048828125,-0.04711480239629745,0.5888710248067974,-0.08095730463489889
1772619288734331000,4.148330810546875,0.02216565457880497,0.6115908061370253,-0.10164696837700903
1772619288744362000,4.158362060546875,0.024471593433618544,0.6407637091293931,-0.13572868619896472
1772619288754392800,4.168392822265625,-0.00982815105319023,0.694755703818798,-0.16872100134901702
1772619288764424000,4.178423828125,-0.03633563422858715,0.7550693027451634,-0.13335969204530118
1772619288774454800,4.188454833984375,-0.03034428485929966,0.8362506253942846,-0.09405359063856303
1772619288784486000,4.19848583984375,-0.00066401686668396,0.9252598651900887,-0.059334890087321394
1772619288794516700,4.208516845703125,0.05241232428252697,1.0027268434911967,0.007017477546632289
1772619288804547800,4.2185478515625,0.12724106303453445,1.0178969400942326,0.042841362860798836
1772619288814578700,4.22857861328125,0.2203051311790943,1.0135866756796836,0.054790963047370314
1772619288824609800,4.23860986328125,0.2901958290070295,0.9944447528362274,0.08891549709774553
1772619288834640600,4.248640625,0.34620296291112895,0.9287234496474266,0.09724902567900717
1772619288844671700,4.258671630859375,0.3718967916160822,0.8715589624017477,0.07114340130276978
1772619288854702800,4.268702880859375,0.3921954832792282,0.8445558046638965,0.04414316617436707
1772619288864734000,4.27873388671875,0.3754150288701057,0.8403273733139037,0.02908230209946632
1772619288874763800,4.288763671875,0.2897206127107143,0.8250923947811126,0.002903685552254319
1772619288884795000,4.298794921875,0.18449147499799728,0.8111725905001163,-0.027255598128959536
1772619288894826000,4.308825927734375,0.007910919255018235,0.8502677525699138,-0.017178806076943873
1772619288904856800,4.31885693359375,-0.20850421874821184,0.9039771309256553,0.055213207047432655
1772619288914888000,4.328887939453125,-0.4104419185876846,0.9311419089660048,0.11401822804175317
1772619288924918800,4.338918701171875,-0.48724166515171524,0.9518865908309817,0.18288287075757978
1772619288934950000,4.348949951171875,-0.5150432797908783,0.9192065565004944,0.22330511671267447
1772619288944980700,4.358980712890625,-0.4730144023567438,0.8714929114282131,0.2092478036571294
1772619288955011800,4.36901171875,-0.3957037836611271,0.7798848873108625,0.1625242656007409
1772619288965043000,4.37904296875,-0.2728378669708967,0.6431564494848251,0.09610328970998525
1772619288975073800,4.38907373046875,-0.15847557473182677,0.5145107803493738,-0.012133870712295174
1772619288985105000,4.39910498046875,-0.07342705526053905,0.3992912867590785,-0.06771634946353733
1772619288995135700,4.4091357421875,-0.056200610649585724,0.3590817337065935,-0.07968458128534257
1772619289005166800,4.419166748046875,-0.07600771940350533,0.36248803501874205,-0.057574529351294035
1772619289015197700,4.42919775390625,-0.08770166432857512,0.35630963864475484,-0.012496785740554331
1772619289025228800,4.439228759765625,-0.1066606318205595,0.37577655565887685,0.026595819045975803
1772619289035259600,4.449259765625,-0.14999240854680537,0.38547552737444635,-0.00453808182105422
1772619289045291000,4.459291015625,-0.258506559279561,0.3733496207728982,-0.02915850914083421
1772619289055321900,4.46932177734375,-0.3954512702047825,0.37713060061633585,-0.05295417607426643
1772619289065351700,4.4793515625,-0.6165408297598362,0.333809929805994,-0.12698847651295364
1772619289075383000,4.489383056640625,-0.8278700428009033,0.23823943179845808,-0.24005839085392652
1772619289085414000,4.499413818359375,-0.8193775242656469,0.29301410129815336,-0.2143926557322964
1772619289095445000,4.509445068359375,-0.6034118835955858,0.35324908203035593,-0.13490352395381777
1772619289105475800,4.519475830078125,-0.3140413994967937,0.3536421730011701,-0.03740107150301337
1772619289115507000,4.5295068359375,-0.03169453042447567,0.3448746369168162,0.05326280363202095
1772619289125537800,4.539537841796875,0.19041677339375018,0.2855599858999252,0.09447842845451086
1772619289135569000,4.54956884765625,0.32126959718465803,0.27468729422986504,0.11669891849309205
1772619289145599700,4.559599853515625,0.39413492690920826,0.217987501886487,0.11651157922744751
1772619289155630800,4.569630859375,0.3939724298238754,0.1494815364152193,0.1317489689130336
1772619289165661700,4.57966162109375,0.3872007437318563,0.11293927369862794,0.12411350559853017
1772619289175692800,4.58969287109375,0.41486733381450175,0.06101531745493412,0.11211568235605955
1772619289185724000,4.599723876953125,0.5222159478992223,0.020268004263937472,0.1296110070362687
1772619289195754800,4.609754638671875,0.6789578307062387,-0.0004921674311161041,0.10638678331524133
1772619289205785900,4.619785888671875,0.8546119192540645,-0.05583820707798004,0.08200520625263452
1772619289215816700,4.629816650390625,0.9673276133298874,-0.10387567727714776,0.0676898267827928
1772619289225847800,4.639847900390625,0.9644500120669602,-0.1729313855856657,0.04165120322816074
1772619289235879000,4.64987890625,0.8973609276562928,-0.25056845975667236,-0.006330079804360866
1772619289245908700,4.65990869140625,0.8101222046643495,-0.2856143464356661,-0.0313504662271589
1772619289255939800,4.66993994140625,0.7138660624802112,-0.2947860794067383,-0.03740253280773759
1772619289265971000,4.679970947265625,0.5850199023365974,-0.2721250425264239,0.0297052563033998
1772619289276002000,4.690001953125,0.4081295499920845,-0.22162176673561335,0.14432882982715964
1772619289286033000,4.700032958984375,0.2751549117416143,-0.15909516793489456,0.2640845055423677
1772619289296064000,4.71006396484375,0.22145956191122532,-0.1473658594354987,0.384378160591796
1772619289306094800,4.7200947265625,0.15204524942338465,-0.17201719335019588,0.525976469476521
1772619289316126000,4.7301259765625,0.11900924126207828,-0.1747609391003847,0.5699144684676081
1772619289326156800,4.74015673828125,0.1332335814476013,-0.21731325588673353,0.6309442528393119
1772619289336188000,4.75018798828125,0.10928455058336257,-0.2781333430305123,0.6806020177166908
1772619289346218800,4.76021875,0.045154315978288645,-0.2979723082274198,0.7033637384925038
1772619289356249900,4.770249755859375,0.002570142748951912,-0.3112333563387394,0.7193953472957014
1772619289366280700,4.78028076171875,-0.057038230517506595,-0.32060616483986376,0.7112681549414992
1772619289376311800,4.790311767578125,-0.12052549104392528,-0.3495905595228076,0.6762114546075463
1772619289386342700,4.8003427734375,-0.17215455599427223,-0.37963440013080835,0.6260054081976414
1772619289396374300,4.810374267578125,-0.21046002899110317,-0.4062324841991067,0.6124936001956462
1772619289406405000,4.820405029296875,-0.198999892821908,-0.4503340762540698,0.6211567991226912
1772619289416436200,4.830436279296875,-0.09665595515668392,-0.5063447172895074,0.6272955941386521
1772619289426466300,4.84046630859375,0.04166530481874942,-0.5779197149425744,0.6657482935864478
1772619289436497200,4.8504970703125,0.1450631354510784,-0.6564063916802406,0.7298824006490409
1772619289446528300,4.8605283203125,0.23649755656719207,-0.7286024438410997,0.7670351964794099
1772619289456559000,4.87055908203125,0.25572540412843225,-0.7870479108080267,0.8144442325819283
1772619289466590500,4.880590576171875,0.18164660696089266,-0.8458107731610536,0.8273211767464875
1772619289476621300,4.890621337890625,0.08356266482770443,-0.8789706999629735,0.8202844099774956
1772619289486652400,4.90065234375,-0.026229250755906104,-0.8847828933730721,0.8156993472095578
1772619289496683300,4.910683349609375,-0.1285159052759409,-0.9262357244849204,0.8194883642289787
1772619289506714400,4.92071435546875,-0.2781131770253181,-0.9496247833788395,0.7592488534521311
1772619289516745200,4.9307451171875,-0.43000294362604613,-0.9317293534651399,0.6751312581554055
1772619289526776300,4.9407763671875,-0.6293932970702648,-0.9141346600636839,0.5449208239212632
1772619289536807400,4.950807373046875,-0.8470511286109685,-0.8583703950047492,0.4010268053147942
1772619289546838300,4.96083837890625,-1.066734913021326,-0.7800318945661187,0.2159373278910294
1772619289556869400,4.970869384765625,-1.278334759697318,-0.6583148556500673,0.09869421951863915
1772619289566900200,4.980900146484375,-1.47816642716825,-0.5023854582697153,0.0025379209797829387
1772619289576931300,4.990931396484375,-1.6100754820138214,-0.30686873138844967,-0.029311836539022623
1772619289586962200,5.000962158203125,-1.6793869186490773,-0.11566402248740196,-0.0289390211712569
1772619289596993300,5.0109931640625,-1.6307751556932926,0.06056582012176513,-0.01059990261066705
1772619289607023400,5.0210234375,-1.4120844739735126,0.19819822105020282,0.03859788007214665
1772619289617054200,5.03105419921875,-1.0207020606428385,0.2689966813728213,0.09489384085498749
1772619289627085300,5.041085205078125,-0.543130725634098,0.2973310877144337,0.18890099853593856
1772619289637116200,5.0511162109375,-0.08879588930606841,0.2810539066523313,0.2714932474289089
1772619289647147300,5.061147216796875,0.3088853319078684,0.21499504207223652,0.3006108400374651
1772619289657178400,5.071178466796875,0.6100701724410057,0.13068068209439515,0.2735946766875684
1772619289667209500,5.08120947265625,0.8856073614984751,0.047533027808368204,0.21239728066399693
1772619289677240300,5.091240234375,1.0795125615298748,-0.012088789461553097,0.1610585769623518
1772619289687271400,5.101271484375,1.166260870656371,-0.10865940442234277,0.028873043262958524
1772619289697302300,5.11130224609375,1.1297083788067102,-0.17290742018818855,-0.07765716711096465
1772619289707333400,5.12133349609375,0.8650321909815073,-0.14288169975876808,-0.16689919274933634
1772619289717364200,5.1313642578125,0.4737924009919166,0.010926467683911322,-0.23361681349910796
1772619289727395300,5.141395263671875,0.09051613722741603,0.24783903479278085,-0.2956075518574566
1772619289737426200,5.15142626953125,-0.24078151749670504,0.5265446247532963,-0.2552968034528196
1772619289747457300,5.161457275390625,-0.4747638763725757,0.7960434104293584,-0.14484196698106824
1772619289757488000,5.171488037109375,-0.6828659440606832,0.9866764569222927,-0.08069858063347637
1772619289767519200,5.181519287109375,-0.812221222770214,1.1499185154035687,-0.07437832810338586
1772619289777550300,5.19155029296875,-0.8305442304462194,1.3090090071633458,0.04358648213967681
1772619289787580200,5.201580078125,-0.7491109788626432,1.3870762894451618,0.14886618099585175
1772619289797611300,5.211611328125,-0.49883974848687646,1.4066013663873076,0.23278759613335132
1772619289807642000,5.22164208984375,-0.16523381682038307,1.305916301845014,0.2944087705269456
1772619289817673200,5.231673095703125,0.09947451970875262,1.1463953097134827,0.27199491334073245
1772619289827704000,5.2417041015625,0.25532851376533505,0.9783636788681149,0.18963709425814448
1772619289837735400,5.2517353515625,0.36294366983175275,0.8108066797971725,0.13104337792694568
1772619289847766300,5.261766357421875,0.4720417579323053,0.674385992746055,0.11829532083906233
1772619289857797400,5.27179736328125,0.5186088633179664,0.6187050220564008,0.17837123855203388
1772619289867828500,5.281828369140625,0.5035790519684553,0.5964449671924114,0.24797522839307784
1772619289877859300,5.291859375,0.45581543027460575,0.587006984500587,0.31228564187064767
1772619289887890400,5.301890380859375,0.3299123378455639,0.593866348876059,0.35230617515705526
1772619289897921300,5.31192138671875,0.19488778132796286,0.5849412841424345,0.3873289001561701
1772619289907952400,5.321952392578125,0.027127076378464697,0.5143304553464054,0.39202655645310874
1772619289917983200,5.331983154296875,-0.21077099463641644,0.47778293193280696,0.37910643073394895
1772619289928014300,5.342014404296875,-0.4288292236715555,0.47034518314749,0.35810602054223417
1772619289938045200,5.352045166015625,-0.578218990150094,0.4570318203270435,0.3251301450703293
1772619289948076300,5.362076171875,-0.6532312687754631,0.44715603073984383,0.29613208718821404
1772619289958106400,5.3721064453125,-0.5984358487486839,0.4484437324628234,0.26951186435334384
1772619289968137200,5.38213720703125,-0.45701545371413227,0.44672143871486186,0.23103593016043303
1772619289978168300,5.392168212890625,-0.2327437569916248,0.4137801230996847,0.2359907030235976
1772619289988199200,5.40219921875,0.0018880057036876677,0.34657354978919025,0.2133983474653214
1772619289998230300,5.412230224609375,0.22280805391073225,0.27398995961546896,0.18026004797331988
1772619290008261000,5.42226123046875,0.3668108666539192,0.2209828843101859,0.13471914383023975
1772619290018292200,5.432292236328125,0.4817325463414192,0.18040800507664678,0.05149667074233293
1772619290028323300,5.4423232421875,0.5498667558908462,0.13121844223290682,0.0034163843147456646
1772619290038354400,5.4523544921875,0.5564309367120266,0.122762164054811,-0.043193537299335
1772619290048385300,5.46238525390625,0.49018707095384595,0.15506898115873335,-0.08831336648613214
1772619290058416400,5.47241650390625,0.3658177639633417,0.24269465764164924,-0.14540033151619136
1772619290068447200,5.482447265625,0.25967677210271356,0.35072803912013767,-0.18870193229988216
1772619290078478300,5.492478271484375,0.1284592066526413,0.4731555643931031,-0.16007248853445052
1772619290088509400,5.502509521484375,0.05195113651156425,0.563203791847825,-0.15506613161452112
1772619290098540300,5.512540283203125,0.03755903854370117,0.6006713527157902,-0.16548106957972047
1772619290108571400,5.5225712890625,0.03547346444129944,0.6047413786336779,-0.18308650357089937
1772619290118602200,5.532602294921875,0.08162906641662121,0.5647755712091922,-0.21964527903087436
1772619290128633300,5.54263330078125,0.10524725789129734,0.5026294961586595,-0.2606640295743942
1772619290138663200,5.5526630859375,0.15390987425148486,0.4397925162345171,-0.26285416002981365
1772619290148694300,5.5626943359375,0.17634090176820755,0.35408319476693867,-0.28473398340456185
1772619290158725400,5.572725341796875,0.17066636326313017,0.26798019780665633,-0.284233924927935
1772619290168756200,5.582756103515625,0.1238444063335657,0.19700696543902158,-0.2547082629751414
1772619290178787300,5.592787353515625,0.08311784366965293,0.14329758708328008,-0.2249173011496663
1772619290188818200,5.602818115234375,0.022404139509797093,0.1211953531295061,-0.14767828638553618
1772619290198849300,5.612849365234375,-0.04776712882518768,0.10452888048887252,-0.07103226907849311
1772619290208880000,5.622880126953125,-0.08340075226426125,0.07638911993652582,-0.008440861413255334
1772619290218911500,5.632911376953125,-0.07505553324520588,0.0421370139837265,0.04967288938127458
1772619290228942300,5.6429423828125,-0.049777299603819845,-0.004585281963646412,0.061000046820566055
1772619290238973400,5.652973388671875,-0.035409751555323596,-0.053152621255815026,0.05005867382846772
1772619290249004300,5.66300439453125,-0.003810498198866844,-0.1174073590233922,-0.017143515567854047
1772619290259035400,5.673035400390625,0.0456271941870451,-0.2078051305681467,-0.0533448558922857
1772619290269066200,5.683066162109375,0.0996107133090496,-0.2701090265288949,-0.1360059687703848
1772619290279097300,5.693097412109375,0.2022889974951744,-0.33961510895341634,-0.16091149664185941
1772619290289128200,5.703128173828125,0.33300504316389556,-0.3947749783784151,-0.17136815485693513
1772619290299158300,5.713158203125,0.4411591284126043,-0.4518739991724491,-0.2068156080741435
1772619290309189400,5.723189453125,0.5315840802252292,-0.5576052411884069,-0.23187260018028316
1772619290319220200,5.73322021484375,0.5277490321069955,-0.629389205417037,-0.28682890985719856
1772619290329251300,5.743251220703125,0.48209144278168675,-0.6520531649067998,-0.3511073207613081
1772619290339282200,5.7532822265625,0.41688159624636173,-0.6332400356262922,-0.38432423844747243
1772619290349313300,5.763313232421875,0.34165129095613955,-0.6025766018152237,-0.38286256839707494
1772619290359344000,5.77334423828125,0.29180092611610886,-0.5576730457276106,-0.38029739408418534
1772619290369375200,5.783375244140625,0.2048901199042797,-0.5138181219100952,-0.380004767813161
1772619290379406300,5.79340625,0.11814648695290088,-0.47349634065479035,-0.3594540010850876
1772619290389437200,5.803437255859375,0.10203881723880767,-0.43002369415313,-0.3324981896203011
1772619290399468000,5.813468017578125,0.03976619319915771,-0.4322276339381933,-0.3531605269640684
1772619290409499000,5.823498779296875,-0.10169862549901008,-0.4350657799735665,-0.35489399969317015
1772619290419530200,5.8335302734375,-0.17357903583943843,-0.40438860989809033,-0.3626496553212404
1772619290429561000,5.84356103515625,-0.15092530548274516,-0.4068886100202799,-0.4006630135037005
1772619290439592200,5.85359228515625,-0.07279694066345692,-0.4000651937410235,-0.4112139989387244
1772619290449623000,5.863623046875,-0.0403156437754631,-0.36011370710283513,-0.4300250093273818
1772619290459654100,5.873654052734375,-0.006034603989124298,-0.30908699195981026,-0.43311238088347015
1772619290469685000,5.88368505859375,-0.008261632388830185,-0.2706432795360684,-0.4007911699280143
1772619290479715000,5.893715087890625,0.005468786799907684,-0.2364525483816862,-0.4248676265642047
1772619290489746200,5.90374609375,0.033599487262964245,-0.25891455555856224,-0.4151937892898917
1772619290499777000,5.913777099609375,0.11652210062146186,-0.2997650368630886,-0.38486053728125985
1772619290509808000,5.92380810546875,0.22853286129832268,-0.36494273469448085,-0.31902722508534787
1772619290519839000,5.9338388671875,0.3532464516818523,-0.4227189240977168,-0.2712288974042982
1772619290529870000,5.9438701171875,0.46184944974184033,-0.4735810963287949,-0.18928711177669463
1772619290539901000,5.95390087890625,0.4848486325353384,-0.49316696354746814,-0.16350370509214698
1772619290549932000,5.96393212890625,0.4676742103725671,-0.47123102607131,-0.10475779387392103
1772619290559963000,5.973962890625,0.4010001365035772,-0.4447261732444167,-0.047954614221304655
1772619290569994000,5.983993896484375,0.30490415331721304,-0.4179667611345649,0.040537762093544004
1772619290580024800,5.99402490234375,0.18042729429900645,-0.40247459297031163,0.10894318979978561
1772619290590056000,6.004055908203125,0.050291094344854355,-0.4417074099451303,0.16592187214978038
1772619290600087000,6.014087158203125,-0.0748363375365734,-0.4961500710114836,0.14657171338312328
1772619290610118100,6.0241181640625,-0.20732231548726557,-0.5504965782269835,0.1068571042407304
1772619290620149200,6.034149169921875,-0.364271119043231,-0.5661570886954664,0.02920994706712663
1772619290630180000,6.04418017578125,-0.5270756628900766,-0.5523875065401196,-0.051057256411761044
1772619290640211200,6.054211181640625,-0.6708113491296768,-0.47435208070129153,-0.09799531400166452
1772619290650242000,6.064241943359375,-0.8188748354405164,-0.382286960466206,-0.11417721799574791
1772619290660273200,6.074273193359375,-0.9013701632976532,-0.3039148500189185,-0.16156937602870167
1772619290670303200,6.08430322265625,-1.008169911327958,-0.2373442365244031,-0.17891097145192325
1772619290680334000,6.094333984375,-1.1575263600587844,-0.1613812330454588,-0.20224822709336876
1772619290690365200,6.104365234375,-1.291426880982518,-0.08769728041440247,-0.2183690485499799
1772619290700396000,6.11439599609375,-1.3353881877839564,-0.04022621192634106,-0.17881364855729043
1772619290710427100,6.12442724609375,-1.2784873199105262,-0.02426788755506277,-0.18181538765653968
1772619290720458000,6.1344580078125,-1.0620774426043034,0.011335048484802246,-0.11501111153662204
1772619290730489000,6.144489013671875,-0.8137555927306414,0.03496639170199632,-0.05794855029545724
1772619290740520000,6.15452001953125,-0.6161597214877605,0.027539748832583425,-0.04852057754099369
1772619290750551000,6.164551025390625,-0.39814182446300983,-0.01698328350484371,-0.10626520276218653
1772619290760582000,6.174581787109375,-0.2159048503935337,-0.04428425514549017,-0.10556808734349905
1772619290770613000,6.184613037109375,-0.0405728334069252,-0.042998306988179684,-0.12561448474600911
1772619290780643800,6.194643798828125,0.14520166713893412,-0.032894553864002224,-0.08846621896028518
1772619290790675200,6.20467529296875,0.2877279775887728,0.009515431842207909,-0.014021145763620733
1772619290800706000,6.2147060546875,0.38166941308975216,0.07321399703174829,0.08258300614058971
1772619290810737200,6.224737060546875,0.4067003939718008,0.14252251105755567,0.12266776376962661
1772619290820768000,6.23476806640625,0.3769067287325859,0.21843962956815957,0.13648995289504529
1772619290830799000,6.244799072265625,0.34041327359378337,0.241445534363389,0.09862455181591212
1772619290840829200,6.2548291015625,0.24315233828127383,0.3098138449296355,0.12653707948364318
1772619290850860000,6.264860107421875,0.11741817267835139,0.404642876920104,0.13654723604023455
1772619290860891100,6.27489111328125,-0.04029343194365501,0.5075558466449379,0.10792948271259664
1772619290870922000,6.284921875,-0.21532383563518523,0.610823036634922,0.07293364572040736
1772619290880953000,6.294953125,-0.39771746157109733,0.714644061115384,0.07054514314867556
1772619290890984000,6.30498388671875,-0.5730927331775426,0.8323281912535428,0.05421798546500504
1772619290901015000,6.31501513671875,-0.6606073505014181,0.9015186318576336,0.044911739394068714
1772619290911046100,6.325046142578125,-0.661398208618164,0.950145884643495,0.05290719512738287
1772619290921077000,6.335076904296875,-0.5448942281752824,0.9641419690310955,0.10141242896877228
1772619290931108000,6.345108154296875,-0.36268121950328347,0.9179647397458552,0.09711012866497039
1772619290941139000,6.355138916015625,-0.10501169556975364,0.8489408878803253,0.11107903278470038
1772619290951170000,6.365170166015625,0.1381190154016018,0.7289256844460964,0.09212349935881793
1772619290961201000,6.375200927734375,0.3252542829066515,0.6411731667131185,-0.03472776064053178
1772619290971232000,6.38523193359375,0.4939437931388616,0.5609656575322151,-0.09625373103134334
1772619290981263000,6.39526318359375,0.6379471904039382,0.48000528415739535,-0.12335479618571699
1772619290991294200,6.405294189453125,0.7264134093642234,0.4119026387900114,-0.1593080800332129
1772619291001325000,6.415324951171875,0.6794640266627073,0.40370647285282607,-0.16027305260784924
1772619291011356200,6.425356201171875,0.5051216052353382,0.4780056347727775,-0.1421650028567761
1772619291021386200,6.43538623046875,0.2439028643876314,0.5758332640573383,-0.05279343255460262
1772619291031417000,6.4454169921875,0.0069505497902631755,0.6671423052281141,0.01328501350879669
1772619291041448200,6.4554482421875,-0.18317104004919527,0.7444327579185366,0.051149683935567736
1772619291051479000,6.46547900390625,-0.2098871975392103,0.727257166711986,0.1030212524048984
1772619291061510100,6.47551025390625,-0.06442249554991722,0.6757277627438306,0.07916852152198553
1772619291071541000,6.485541015625,0.1682949579566717,0.5736202641829848,0.05115099910981953
1772619291081572000,6.495572021484375,0.38144787929356094,0.47234512479305263,0.02758198053911328
1772619291091603000,6.50560302734375,0.6318804377108812,0.3909820158362388,-0.03476663134619593
1772619291101634000,6.515634033203125,0.848491975069046,0.28496085096299645,-0.024364187536388634
1772619291111665000,6.525664794921875,0.8982575842350721,0.21271160731017588,-0.0000234539408236742
1772619291121696000,6.535696044921875,0.718183925679326,0.1963341807439923,0.03354103507399559
1772619291131727000,6.54572705078125,0.3128191642254591,0.2489551793411374,0.02295395541228354
1772619291141758000,6.555758056640625,-0.13473989435732364,0.28120792817026374,-0.05214848571456968
1772619291151789000,6.5657890625,-0.4816068741351366,0.24401129319816825,-0.09879201733730733
1772619291161820000,6.57581982421875,-0.6636036097079515,0.2795078462541103,-0.13607216587439178
1772619291171851300,6.585851318359375,-0.723228934109211,0.30855595382302997,-0.1265245122630149
1772619291181882000,6.595882080078125,-0.5872030915945768,0.30379443850964305,-0.07193499007187783
1772619291191913200,6.605913330078125,-0.3332353447884321,0.27875527432113884,-0.03736797295100987
1772619291201943000,6.615943115234375,-0.05653554169237613,0.20856383998095987,0.011147416958212851
1772619291211974100,6.62597412109375,0.13283902917206286,0.1405649472489953,0.0599971533883363
1772619291222005200,6.636005126953125,0.25105799683928487,0.04964782800525427,0.08030497820600867
1772619291232036000,6.6460361328125,0.2747217810213566,0.004147182807326316,0.08558744865357876
1772619291242067200,6.656067138671875,0.2951549127191305,-0.0014545827224850653,0.10967610718421637
1772619291252098000,6.66609814453125,0.3333861514359712,-0.029840134729444977,0.12033822484351694
1772619291262129200,6.676129150390625,0.3864619080632925,-0.035948096215724944,0.16331176271662115
1772619291272160000,6.686159912109375,0.4371446320742368,-0.01659428418725729,0.1773802547533065
1772619291282191000,6.696191162109375,0.5105126506239176,-0.06939210065603256,0.1517876214005053
1772619291292222000,6.706221923828125,0.5980968260526657,-0.15687369249314068,0.12710413878187538
1772619291302253000,6.716253173828125,0.6367816537559032,-0.22987813842743635,0.11947832007855176
1772619291312284000,6.726283935546875,0.628900545117259,-0.2563628252491355,0.1262854428101331
1772619291322315000,6.73631494140625,0.5552285751849413,-0.28296938488483425,0.15055449940897522
1772619291332345900,6.746345947265625,0.5137263519734144,-0.2961944848999381,0.09618687634021043
1772619291342377000,6.756376953125,0.45618075645565986,-0.3176438079029322,0.06426942388005555
1772619291352407800,6.76640771484375,0.36675884420573707,-0.31707857523560523,0.09323818260245025
1772619291362439200,6.776439208984375,0.274303263348341,-0.3114928840577602,0.10238624243699014
1772619291372470000,6.786469970703125,0.18960019631385802,-0.3267585499897599,0.1102710043374449
1772619291382499800,6.796499755859375,0.11063304258286952,-0.35012510479092596,0.10772745733447373
1772619291392531200,6.80653125,0.027553777357935905,-0.3654600365668535,0.11179156496822833
1772619291402562300,6.816562255859375,-0.028544541960954663,-0.42706893600076434,0.11427885173931718
1772619291412593400,6.826593505859375,-0.062300681090354915,-0.49859249572753905,0.12794731160774825
1772619291422624300,6.836624267578125,-0.08641980782449245,-0.5231605352729559,0.1392830176796764
1772619291432655600,6.846655517578125,-0.1032967083454132,-0.546458116491139,0.19265644207932053
1772619291442686500,6.8566865234375,-0.1370809045255184,-0.553847057698667,0.22918460320532322
1772619291452717600,6.866717529296875,-0.12250818929374217,-0.5887360002502798,0.2581650523655116
1772619291462748400,6.87674853515625,-0.09222235662341118,-0.6782584502652287,0.2396207300890237
1772619291472779500,6.886779541015625,-0.05100947174727916,-0.7460565597280859,0.2604443954743445
1772619291482810600,6.896810546875,-0.04231587768197059,-0.8109525180086493,0.25397753754779695
1772619291492841500,6.906841552734375,-0.03331307153701782,-0.8485419516906142,0.2561960173148662
1772619291502872600,6.91687255859375,-0.04897592009305954,-0.846766758711636,0.30210085939951237
1772619291512903400,6.9269033203125,-0.05520692343711853,-0.855073399285972,0.3222184223420918
1772619291522934500,6.9369345703125,-0.11714169382452964,-0.8347881516262888,0.3552884058382362
1772619291532965400,6.94696533203125,-0.2237128937959671,-0.7781278145104646,0.3878608150757849
1772619291542996500,6.95699658203125,-0.3084954558074474,-0.6863514480888843,0.4521873029053211
1772619291553026600,6.967026611328125,-0.35279636982679363,-0.5918658227086067,0.5188710944507271
1772619291563057400,6.977057373046875,-0.31843992671668525,-0.5126104996860027,0.570838743705675
1772619291573088500,6.987088623046875,-0.3637520636051893,-0.44125323643684383,0.5915094104863703
1772619291583119400,6.997119384765625,-0.36350071919262406,-0.49338089855909345,0.7025895392496139
1772619291593150500,7.007150390625,-0.31919220638871193,-0.48880496894568204,0.6547791558045893
1772619291603181300,7.017181396484375,-0.2606540927022695,-0.5118088279142976,0.645941111767292
1772619291613212400,7.02721240234375,-0.1875882719695568,-0.5532157740578055,0.6520449816003442
1772619291623243500,7.037243408203125,-0.14586217687427996,-0.5563771606981754,0.6044118544183671
1772619291633274600,7.047274658203125,-0.24546003070175645,-0.5601309602737427,0.6047489774182438
1772619291643305500,7.057305419921875,-0.376617390397191,-0.49197541567534203,0.6072666593275964
1772619291653336600,7.067336669921875,-0.3865963480979204,-0.4328600866228342,0.6335268166784197
1772619291663367400,7.077367431640625,-0.3313870865732431,-0.4103352433428168,0.6499664217606187
1772619291673398500,7.0873984375,-0.36927462641894815,-0.40472967842072244,0.6288431158415972
1772619291683429400,7.097429443359375,-0.4748088845580816,-0.40233196962922807,0.612111249814555
1772619291693460500,7.10746044921875,-0.5401520020842552,-0.4538751098617911,0.6784144445445388
1772619291703491300,7.1174912109375,-0.7439122411757707,-0.338054727768898,0.4078413076352328
1772619291713522400,7.1275224609375,-0.8144225322067737,-0.34620763908624647,0.20128197587709873
1772619291723553500,7.137553466796875,-0.781133426067233,-0.4074339689433574,0.07563691332973539
1772619291733583400,7.147583251953125,-0.7723901476413011,-0.3883899535164237,-0.0878182399129495
1772619291743614500,7.157614501953125,-0.9442337379902601,-0.2911936078727245,-0.07306603992842138
1772619291753645300,7.167645263671875,-1.1555220344990491,-0.10413637403994798,-0.19126166325267402
1772619291763676400,7.177676513671875,-1.5381535706192253,0.05481003307402134,-0.2358416134091094
1772619291773707300,7.187707275390625,-1.607786494293809,0.30743630214333534,-0.10661854624450207
