time,seconds_elapsed,z,y,x
1772619284661767200,0.07576708984375,0.007400273345410824,-0.006786399520933628,0.08833522349596024
1772619284671798300,0.08579833984375,0.030104096978902817,0.034100815653800964,0.17945627868175507
1772619284681829000,0.0958291015625,0.04911693558096886,0.0565485954284668,0.2469722032546997
1772619284691860200,0.105860107421875,0.05718039721250534,0.06193799525499344,0.2758536636829376
1772619284701890300,0.115890380859375,0.066487617790699,0.05201691761612892,0.27452394366264343
1772619284711921200,0.125921142578125,0.06910049915313721,0.032289598137140274,0.24720284342765808
1772619284721952300,0.1359521484375,0.06879343837499619,0.013108180835843086,0.19419634342193604
1772619284731983000,0.145983154296875,0.06309341639280319,-0.004554340615868568,0.13116508722305298
1772619284742014200,0.15601416015625,0.048974666744470596,-0.020673921331763268,0.0720200166106224
1772619284752045000,0.166045166015625,0.042761944234371185,-0.047153592109680176,0.01868492178618908
1772619284762076200,0.176076171875,0.031163077801465988,-0.07931339740753174,-0.017313292250037193
1772619284772107000,0.18610693359375,0.020745160058140755,-0.09648440778255463,-0.02680368535220623
1772619284782138000,0.19613818359375,0.00828875694423914,-0.10982497781515121,-0.009659051895141602
1772619284792169200,0.206169189453125,-0.001639773603528738,-0.12240201979875565,0.01563085801899433
1772619284802200300,0.216200439453125,-0.02123424783349037,-0.12996992468833923,0.04197271913290024
1772619284812231400,0.2262314453125,-0.03619210422039032,-0.1252088099718094,0.05432918295264244
1772619284822262300,0.23626220703125,-0.053016889840364456,-0.10250828415155411,0.06454320251941681
1772619284832293400,0.24629345703125,-0.06925535202026367,-0.06398721784353256,0.06596469134092331
1772619284842324200,0.25632421875,-0.07961104810237885,-0.02707580104470253,0.07293844223022461
1772619284852355300,0.266355224609375,-0.08069154620170593,0.0021059559658169746,0.07733312994241714
1772619284862386200,0.27638623046875,-0.07003357261419296,0.026867497712373734,0.08067619800567627
1772619284872417300,0.286417236328125,-0.062065672129392624,0.0474107451736927,0.0782623365521431
1772619284882448100,0.2964482421875,-0.05715959891676903,0.050972189754247665,0.07248806953430176
1772619284892479200,0.306479248046875,-0.06150251626968384,0.05265212804079056,0.06611215323209763
1772619284902510000,0.316510009765625,-0.0725887268781662,0.05424576252698898,0.060807935893535614
1772619284912540200,0.3265400390625,-0.08239230513572693,0.05151727795600891,0.0532119981944561
1772619284922571300,0.3365712890625,-0.09294267743825912,0.053938623517751694,0.04930327460169792
1772619284932602000,0.34660205078125,-0.09778020530939102,0.0553910955786705,0.04046003147959709
1772619284942633200,0.35663330078125,-0.11078841984272003,0.055104538798332214,0.024897316470742226
1772619284952664000,0.3666640625,-0.12640877068042755,0.04571026936173439,-0.006690911948680878
1772619284962695200,0.376695068359375,-0.13885025680065155,0.05113619565963745,-0.034110818058252335
1772619284972726000,0.38672607421875,-0.1477741301059723,0.0586988665163517,-0.0611187107861042
1772619284982757400,0.39675732421875,-0.1431247740983963,0.050242796540260315,-0.08656787872314453
1772619284992788200,0.406788330078125,-0.12792903184890747,0.03174899145960808,-0.09592900425195694
1772619285002819300,0.4168193359375,-0.10997667908668518,0.0009420765563845634,-0.08546917140483856
1772619285012850200,0.42685009765625,-0.08982975035905838,-0.028274165466427803,-0.06031007692217827
1772619285022881300,0.43688134765625,-0.07918749749660492,-0.04810885339975357,-0.028954287990927696
1772619285032912100,0.446912109375,-0.06800020486116409,-0.05977332592010498,-0.008777929469943047
1772619285042943200,0.456943115234375,-0.06389281153678894,-0.06798997521400452,-0.0038468209095299244
1772619285052974300,0.466974365234375,-0.06414900720119476,-0.08041415363550186,-0.008932659402489662
1772619285063005200,0.477005126953125,-0.06529416888952255,-0.0813867449760437,-0.020512616261839867
1772619285073036300,0.487036376953125,-0.06934579461812973,-0.07704273611307144,-0.03385109081864357
1772619285083067100,0.497067138671875,-0.0765584334731102,-0.07048097252845764,-0.053611211478710175
1772619285093098200,0.50709814453125,-0.07466737926006317,-0.060508012771606445,-0.06778483837842941
1772619285103129000,0.517129150390625,-0.07808607816696167,-0.04896800220012665,-0.07752614468336105
1772619285113160200,0.52716015625,-0.07583895325660706,-0.05089006945490837,-0.09135125577449799
1772619285123190300,0.537190185546875,-0.07151477783918381,-0.05371328815817833,-0.10190430283546448
1772619285133221000,0.54722119140625,-0.0672488659620285,-0.04605134204030037,-0.09652695059776306
1772619285143252200,0.557252197265625,-0.0655127540230751,-0.03390439972281456,-0.08173495531082153
1772619285153283000,0.567282958984375,-0.05696529150009155,-0.019393570721149445,-0.06940892338752747
1772619285163314200,0.577314208984375,-0.059092625975608826,-0.008785133250057697,-0.05867478623986244
1772619285173345300,0.58734521484375,-0.05958126485347748,-0.00624322472140193,-0.057726506143808365
1772619285183376400,0.59737646484375,-0.06528841704130173,-0.01203746348619461,-0.06415378302335739
1772619285193407200,0.6074072265625,-0.07419051229953766,-0.017664393410086632,-0.07048452645540237
1772619285203438300,0.617438232421875,-0.08029074966907501,-0.021584033966064453,-0.07027866691350937
1772619285213469200,0.62746923828125,-0.08050575852394104,-0.022077254951000214,-0.05507856607437134
1772619285223500300,0.637500244140625,-0.07887137681245804,-0.021723587065935135,-0.044709015637636185
1772619285233531100,0.64753125,-0.07264326512813568,-0.021158259361982346,-0.028040247038006783
1772619285243562200,0.657562255859375,-0.06531211733818054,-0.009339948184788227,-0.013651454821228981
1772619285253593000,0.667593017578125,-0.05478586629033089,-0.001277634408324957,-0.007503582164645195
1772619285263624200,0.677624267578125,-0.046894654631614685,0.01078861579298973,-0.013093290850520134
1772619285273655300,0.6876552734375,-0.043339818716049194,0.015208037570118904,-0.028474552556872368
1772619285283686100,0.69768603515625,-0.04114697128534317,0.0194560457020998,-0.039880070835351944
1772619285293717200,0.70771728515625,-0.04661533236503601,0.004528633318841457,-0.058826569467782974
1772619285303748000,0.717748046875,-0.05515768751502037,-0.012801621109247208,-0.07679411768913269
1772619285313779200,0.727779296875,-0.060116663575172424,-0.030340680852532387,-0.08461949974298477
1772619285323810000,0.73781005859375,-0.06284666806459427,-0.049654990434646606,-0.08975114673376083
1772619285333840100,0.747840087890625,-0.05987202376127243,-0.0686640739440918,-0.09748650342226028
1772619285343871200,0.757871337890625,-0.05338749662041664,-0.07511424273252487,-0.09526782482862473
1772619285353902000,0.767902099609375,-0.04901894927024841,-0.06073540076613426,-0.09165900200605392
1772619285363933400,0.777933349609375,-0.047234632074832916,-0.04538547247648239,-0.08180024474859238
1772619285373964300,0.78796435546875,-0.04887567460536957,-0.05356643721461296,-0.07675222307443619
1772619285383995400,0.797995361328125,-0.05142416059970856,-0.059261057525873184,-0.06958384066820145
1772619285394026200,0.808026123046875,-0.057458244264125824,-0.060748182237148285,-0.06363082677125931
1772619285404057300,0.818057373046875,-0.06019357591867447,-0.061826497316360474,-0.061437711119651794
1772619285414088200,0.828088134765625,-0.06448004394769669,-0.05529147759079933,-0.05701113119721413
1772619285424119300,0.838119384765625,-0.057659685611724854,-0.047671105712652206,-0.04881179332733154
1772619285434150100,0.848150146484375,-0.05541639029979706,-0.043519020080566406,-0.03446364402770996
1772619285444181200,0.85818115234375,-0.05174948275089264,-0.038395896553993225,-0.01653684303164482
1772619285454212000,0.868212158203125,-0.041433826088905334,-0.035966549068689346,0.010313626378774643
1772619285464243500,0.878243408203125,-0.03672189265489578,-0.027589576318860054,0.030199984088540077
1772619285474274300,0.8882744140625,-0.029924985021352768,-0.03594563528895378,0.04397377744317055
1772619285484305400,0.898305419921875,-0.02414672262966633,-0.05715451389551163,0.05921638011932373
1772619285494336300,0.908336181640625,-0.028020460158586502,-0.08281674981117249,0.07515305280685425
1772619285504367400,0.918367431640625,-0.027307264506816864,-0.0990055724978447,0.08700491487979889
1772619285514398500,0.9283984375,-0.02502518892288208,-0.1131959781050682,0.09960369020700455
1772619285524429300,0.93842919921875,-0.02719086967408657,-0.12632137537002563,0.11320152133703232
1772619285534459400,0.94845947265625,-0.02476101741194725,-0.14137354493141174,0.13328133523464203
1772619285544490200,0.958490234375,-0.02969372272491455,-0.13611459732055664,0.15386010706424713
1772619285554521300,0.968521240234375,-0.030582793056964874,-0.10911194980144501,0.1653057336807251
1772619285564552200,0.97855224609375,-0.02688286080956459,-0.06699246168136597,0.16640561819076538
1772619285574583300,0.988583251953125,-0.03005921095609665,-0.028027115389704704,0.16216878592967987
1772619285584614400,0.998614501953125,-0.03784176707267761,-0.01067209243774414,0.13113602995872498
1772619285594645200,1.008645263671875,-0.06673578917980194,-0.02174782007932663,0.07298129051923752
1772619285604676400,1.01867626953125,-0.09499672055244446,-0.04648991674184799,-0.009900541976094246
1772619285614707200,1.028707275390625,-0.1319751739501953,-0.04502848908305168,-0.10449471324682236
1772619285624738300,1.03873828125,-0.16635818779468536,-0.02360042743384838,-0.21075297892093658
1772619285634769200,1.04876904296875,-0.2001330554485321,0.015496833249926567,-0.31773898005485535
1772619285644800300,1.05880029296875,-0.2356385886669159,0.07046181708574295,-0.40714022517204285
1772619285654831400,1.068831298828125,-0.25555697083473206,0.1402692049741745,-0.4780828058719635
1772619285664862500,1.078862548828125,-0.22945477068424225,0.20936012268066406,-0.4982493221759796
1772619285674893300,1.088893310546875,-0.16526752710342407,0.2725161910057068,-0.4859601557254791
1772619285684924400,1.09892431640625,-0.06869545578956604,0.3492487668991089,-0.43415555357933044
1772619285694955300,1.108955322265625,0.04491867870092392,0.43929845094680786,-0.3412691056728363
1772619285704986400,1.118986328125,0.14567351341247559,0.46756312251091003,-0.22397978603839874
1772619285715017200,1.129017333984375,0.2189699411392212,0.4036790430545807,-0.1170957162976265
1772619285725047300,1.13904736328125,0.27281105518341064,0.2652263641357422,-0.04179909825325012
1772619285735078400,1.149078369140625,0.3084598779678345,0.06956084817647934,0.005961472634226084
1772619285745109200,1.159109130859375,0.3095693290233612,-0.1649443358182907,0.03956976532936096
1772619285755140400,1.169140380859375,0.28663143515586853,-0.4155132472515106,0.06979049742221832
1772619285765171200,1.179171142578125,0.2541864216327667,-0.6367007493972778,0.10903164744377136
1772619285775202300,1.189202392578125,0.22287461161613464,-0.7601931691169739,0.17184250056743622
1772619285785233200,1.199233154296875,0.2012617290019989,-0.7780949473381042,0.26547229290008545
1772619285795264300,1.20926416015625,0.1831270307302475,-0.7231847643852234,0.3728477954864502
1772619285805295000,1.219295166015625,0.1587979942560196,-0.5888552069664001,0.48350638151168823
1772619285815326200,1.229326171875,0.1372515857219696,-0.3770751655101776,0.5686014294624329
1772619285825357300,1.239357421875,0.11288154125213623,-0.1256389170885086,0.6125862002372742
1772619285835388200,1.24938818359375,0.08297416567802429,0.1062687486410141,0.6095414161682129
1772619285845419500,1.25941943359375,0.04306535795331001,0.2868843376636505,0.5628138780593872
1772619285855450400,1.269450439453125,0.006194137968122959,0.40862783789634705,0.5035495758056641
1772619285865481500,1.2794814453125,-0.03247655928134918,0.4694800078868866,0.45247286558151245
1772619285875512300,1.28951220703125,-0.066457599401474,0.47512122988700867,0.4150993525981903
1772619285885543400,1.29954345703125,-0.08779777586460114,0.44153156876564026,0.3851960301399231
1772619285895574300,1.30957421875,-0.10642913728952408,0.38150322437286377,0.36046940088272095
1772619285905605400,1.31960546875,-0.11649934947490692,0.28693702816963196,0.3216700851917267
1772619285915636200,1.32963623046875,-0.12171116471290588,0.17339292168617249,0.26371610164642334
1772619285925666300,1.339666259765625,-0.11744663864374161,0.07242342829704285,0.1947186440229416
1772619285935697400,1.349697509765625,-0.10606876760721207,-0.0010408959351480007,0.12721790373325348
1772619285945728300,1.359728271484375,-0.09398680180311203,-0.041403766721487045,0.06218351796269417
1772619285955759400,1.36975927734375,-0.0851636454463005,-0.06047721579670906,0.009096456691622734
1772619285965790200,1.379790283203125,-0.08313697576522827,-0.06593748927116394,-0.04208390414714813
1772619285975821300,1.3898212890625,-0.07847632467746735,-0.05902530625462532,-0.08558680862188339
1772619285985852200,1.39985205078125,-0.0762224942445755,-0.0566103532910347,-0.11901108175516129
1772619285995883300,1.40988330078125,-0.06318633258342743,-0.04798901081085205,-0.13517138361930847
1772619286005914000,1.4199140625,-0.03838351368904114,-0.04556260257959366,-0.11528928577899933
1772619286015945200,1.4299453125,-0.008143847808241844,-0.048955220729112625,-0.07373662292957306
1772619286025976000,1.43997607421875,0.02797820419073105,-0.03792867064476013,0.0012915508123114705
1772619286036007400,1.45000732421875,0.06858852505683899,0.0034047188237309456,0.0936327800154686
1772619286046038300,1.460038330078125,0.09800367802381516,0.06548327207565308,0.1761026233434677
1772619286056069400,1.4700693359375,0.12084870785474777,0.10682285577058792,0.23382879793643951
1772619286066100500,1.4801005859375,0.13584817945957184,0.12351607531309128,0.26603469252586365
1772619286076131300,1.49013134765625,0.13559962809085846,0.124323271214962,0.2589145302772522
1772619286086162400,1.500162353515625,0.1255382001399994,0.1283840388059616,0.22926025092601776
1772619286096193300,1.510193359375,0.11791177839040756,0.12444206327199936,0.17320246994495392
1772619286106224400,1.520224365234375,0.10643967986106873,0.11521367728710175,0.1063387542963028
1772619286116254200,1.530254150390625,0.09943155944347382,0.10193078964948654,0.030648017302155495
1772619286126285300,1.540285400390625,0.09694096446037292,0.07971256971359253,-0.03642316162586212
1772619286136316400,1.55031640625,0.09989846497774124,0.03699059411883354,-0.10542041063308716
1772619286146347300,1.56034716796875,0.10749299824237823,-0.02434093877673149,-0.1561640053987503
1772619286156378400,1.57037841796875,0.11906608194112778,-0.07176738977432251,-0.19080035388469696
1772619286166409200,1.5804091796875,0.12473195791244507,-0.09458056092262268,-0.20544907450675964
1772619286176440300,1.5904404296875,0.12421472370624542,-0.08636116981506348,-0.20971432328224182
1772619286186471200,1.60047119140625,0.13550172746181488,-0.06205769255757332,-0.21889716386795044
1772619286196502300,1.610502197265625,0.14933334290981293,-0.018993515521287918,-0.22148127853870392
1772619286206533000,1.620533203125,0.16123101115226746,0.028434984385967255,-0.22376839816570282
1772619286216564200,1.630564208984375,0.1751469373703003,0.062905453145504,-0.21876472234725952
1772619286226595300,1.64059521484375,0.18830294907093048,0.07185740768909454,-0.21431110799312592
1772619286236626400,1.65062646484375,0.20003612339496613,0.06561046093702316,-0.19749122858047485
1772619286246657300,1.6606572265625,0.2076471745967865,0.033899929374456406,-0.18200601637363434
1772619286256688400,1.6706884765625,0.2015983611345291,-0.002569706179201603,-0.16921494901180267
1772619286266719200,1.68071923828125,0.19318516552448273,-0.05416712164878845,-0.1625722348690033
1772619286276750300,1.690750244140625,0.17645229399204254,-0.0896836444735527,-0.16268335282802582
1772619286286781200,1.70078125,0.15929755568504333,-0.10197706520557404,-0.16791167855262756
1772619286296812300,1.710812255859375,0.13908469676971436,-0.08973492681980133,-0.17561212182044983
1772619286306842400,1.72084228515625,0.12048917263746262,-0.06467270851135254,-0.18497979640960693
1772619286316873200,1.730873291015625,0.10347721725702286,-0.021166060119867325,-0.1959366500377655
1772619286326904300,1.740904296875,0.09334255754947662,0.03402369096875191,-0.19933803379535675
1772619286336935200,1.75093505859375,0.0883660688996315,0.07972437143325806,-0.20316040515899658
1772619286346966300,1.76096630859375,0.08987367898225784,0.10557487607002258,-0.21620003879070282
1772619286356997400,1.770997314453125,0.09929760545492172,0.10826883465051651,-0.2234211266040802
1772619286367028200,1.7810283203125,0.10495389252901077,0.09875974804162979,-0.21623165905475616
1772619286377059300,1.791059326171875,0.11566860973834991,0.07389859110116959,-0.19456720352172852
1772619286387090200,1.801090087890625,0.12756334245204926,0.04646030440926552,-0.15936395525932312
1772619286397120800,1.811120849609375,0.13239708542823792,0.03972208499908447,-0.12066090106964111
1772619286407151600,1.821151611328125,0.1461603045463562,0.04649929702281952,-0.08831334859132767
1772619286417182700,1.8311826171875,0.15722258388996124,0.06952638924121857,-0.06848359853029251
1772619286427213800,1.8412138671875,0.1746138334274292,0.08866199851036072,-0.06712990999221802
1772619286437245000,1.851244873046875,0.18937262892723083,0.10087178647518158,-0.0776340588927269
1772619286447275800,1.86127587890625,0.1997767984867096,0.10281111299991608,-0.09414565563201904
1772619286457307000,1.871306884765625,0.20357783138751984,0.07725807279348373,-0.11459995806217194
1772619286467337700,1.881337646484375,0.20568892359733582,0.04027422517538071,-0.13486768305301666
1772619286477368800,1.891368896484375,0.19982686638832092,0.011335236951708794,-0.1397681087255478
1772619286487399000,1.90139892578125,0.19464516639709473,-0.005035214591771364,-0.12270311266183853
1772619286497429800,1.9114296875,0.1913570612668991,-0.010581811890006065,-0.09441027790307999
1772619286507460900,1.9214609375,0.19028806686401367,0.002996315248310566,-0.050895288586616516
1772619286517491700,1.93149169921875,0.19361945986747742,0.04095453768968582,-0.011301876977086067
1772619286527522800,1.941522705078125,0.1928330361843109,0.1025228202342987,0.018377721309661865
1772619286537553700,1.9515537109375,0.19326293468475342,0.17318667471408844,0.036788541823625565
1772619286547584800,1.961584716796875,0.18476611375808716,0.24090686440467834,0.03790653496980667
1772619286557615900,1.971615966796875,0.18224579095840454,0.3029697835445404,0.029569260776042938
1772619286567646700,1.981646728515625,0.17408347129821777,0.33251863718032837,0.019455375149846077
1772619286577677800,1.991677734375,0.16753822565078735,0.3311135470867157,0.007877281866967678
1772619286587708700,2.001708740234375,0.16388143599033356,0.3138543963432312,-0.0008573538507334888
1772619286597739800,2.01173974609375,0.1618160605430603,0.3005076050758362,-0.009995478205382824
1772619286607770600,2.0217705078125,0.16189968585968018,0.28536859154701233,-0.020218022167682648
1772619286617802000,2.031802001953125,0.16271094977855682,0.2659592628479004,-0.036692969501018524
1772619286627832800,2.041832763671875,0.1629282534122467,0.2464318871498108,-0.06855050474405289
1772619286637864000,2.051864013671875,0.14950613677501678,0.21294990181922913,-0.11100494861602783
1772619286647894800,2.061894775390625,0.1257914900779724,0.19273358583450317,-0.15097713470458984
1772619286657926000,2.07192578125,0.10213126987218857,0.18538016080856323,-0.175094336271286
1772619286667956700,2.081956787109375,0.08485134690999985,0.18058568239212036,-0.17706400156021118
1772619286677986800,2.09198681640625,0.08129122108221054,0.17981365323066711,-0.1561061441898346
1772619286688018000,2.102017822265625,0.09086368978023529,0.2016957849264145,-0.10692954063415527
1772619286698048800,2.112048828125,0.11556323617696762,0.25338950753211975,-0.03272153437137604
1772619286708079900,2.122079833984375,0.1548062562942505,0.310563862323761,0.040823791176080704
1772619286718110700,2.13211083984375,0.19339938461780548,0.36040207743644714,0.11145099997520447
1772619286728141800,2.142141845703125,0.229393869638443,0.4139667749404907,0.17932458221912384
1772619286738172700,2.152172607421875,0.25974470376968384,0.4626161456108093,0.24505195021629333
1772619286748203800,2.162203857421875,0.27879267930984497,0.4894978404045105,0.2918463349342346
1772619286758234600,2.172234619140625,0.2792813181877136,0.4766329824924469,0.3179723024368286
1772619286768265700,2.182265625,0.27760088443756104,0.429440438747406,0.32253962755203247
1772619286778296800,2.192296875,0.27177122235298157,0.35714828968048096,0.29566559195518494
1772619286788327700,2.20232763671875,0.26122990250587463,0.2637674808502197,0.257000207901001
1772619286798358800,2.21235888671875,0.2563922107219696,0.148268923163414,0.21039853990077972
1772619286808390000,2.222389892578125,0.2654746472835541,0.040257230401039124,0.1710231751203537
1772619286818421000,2.2324208984375,0.28513622283935547,-0.024331634864211082,0.17350593209266663
1772619286828451800,2.242451904296875,0.3090170621871948,-0.04639406129717827,0.20163770020008087
1772619286838483000,2.25248291015625,0.3375740647315979,-0.05145224928855896,0.24808934330940247
1772619286848513800,2.262513671875,0.3621039092540741,-0.05751200392842293,0.299153596162796
1772619286858545000,2.272544921875,0.38086560368537903,-0.062224939465522766,0.34727126359939575
1772619286868575000,2.282574951171875,0.3919083774089813,-0.07156437635421753,0.37913280725479126
1772619286878605800,2.292605712890625,0.39392656087875366,-0.09412993490695953,0.3908771276473999
1772619286888637000,2.302636962890625,0.3813535273075104,-0.1185910701751709,0.3737788200378418
1772619286898667800,2.312667724609375,0.35253408551216125,-0.14028631150722504,0.3407379388809204
1772619286908699000,2.322698974609375,0.313696950674057,-0.15447989106178284,0.2929730713367462
1772619286918729700,2.332729736328125,0.2769102454185486,-0.15328027307987213,0.24336235225200653
1772619286928760800,2.3427607421875,0.23994185030460358,-0.11763758957386017,0.1926025003194809
1772619286938791700,2.352791748046875,0.21470168232917786,-0.06790591776371002,0.1590225100517273
1772619286948822800,2.36282275390625,0.2025078684091568,-0.016095180064439774,0.13961312174797058
1772619286958853600,2.372853515625,0.19959485530853271,0.018109330907464027,0.14068438112735748
1772619286968884700,2.382884765625,0.2058761864900589,0.029965724796056747,0.16096702218055725
1772619286978915600,2.39291552734375,0.21188704669475555,0.024757083505392075,0.1982770562171936
1772619286988947000,2.402947021484375,0.20663529634475708,-0.004498807713389397,0.22740671038627625
1772619286998977800,2.412977783203125,0.18945567309856415,-0.01634758710861206,0.23815269768238068
1772619287009009000,2.4230087890625,0.16505445539951324,-0.010420190170407295,0.23203888535499573
1772619287019039700,2.433039794921875,0.13364315032958984,0.006403313018381596,0.2007700651884079
1772619287029070800,2.44307080078125,0.1044037863612175,0.010636141523718834,0.15238548815250397
1772619287039102000,2.45310205078125,0.07965440303087234,0.0031103119254112244,0.09503442794084549
1772619287049131800,2.4631318359375,0.05761221796274185,-0.02633466199040413,0.029421867802739143
1772619287059163000,2.473162841796875,0.034455861896276474,-0.06435875594615936,-0.029635541141033173
1772619287069193700,2.48319384765625,0.013123943470418453,-0.1155172809958458,-0.07110601663589478
1772619287079224800,2.493224853515625,-0.015460658818483353,-0.1737118661403656,-0.0970897376537323
1772619287089256000,2.503255859375,-0.036729998886585236,-0.2397819608449936,-0.10454845428466797
1772619287099286800,2.513286865234375,-0.06351134181022644,-0.2903086841106415,-0.10117830336093903
1772619287109318000,2.52331787109375,-0.09671483188867569,-0.3210386335849762,-0.09897853434085846
1772619287119348700,2.5333486328125,-0.1256784200668335,-0.32419553399086,-0.09819375723600388
1772619287129379800,2.5433798828125,-0.16065528988838196,-0.2899603247642517,-0.09298700839281082
1772619287139410700,2.55341064453125,-0.1904020756483078,-0.23357366025447845,-0.08999662846326828
1772619287149441800,2.56344189453125,-0.2179064005613327,-0.16807134449481964,-0.09393224865198135
1772619287159472600,2.57347265625,-0.2505286633968353,-0.10946653038263321,-0.09568964689970016
1772619287169503700,2.583503662109375,-0.27123820781707764,-0.03603013604879379,-0.11024489253759384
1772619287179534800,2.593534912109375,-0.28777775168418884,0.04333852231502533,-0.13122382760047913
1772619287189566000,2.60356591796875,-0.29265958070755005,0.09564194083213806,-0.150417760014534
1772619287199596800,2.6135966796875,-0.29221367835998535,0.11239258944988251,-0.1560819447040558
1772619287209628000,2.6236279296875,-0.28904932737350464,0.10809185355901718,-0.13986143469810486
1772619287219658800,2.63365869140625,-0.2833922803401947,0.08444705605506897,-0.10971810668706894
1772619287229688800,2.643688720703125,-0.27540919184684753,0.061504460871219635,-0.08114691823720932
1772619287239720000,2.653719970703125,-0.26657602190971375,0.045002058148384094,-0.050678301602602005
1772619287249750800,2.663750732421875,-0.2536626160144806,0.03576035425066948,-0.028288839384913445
1772619287259782000,2.673781982421875,-0.23529765009880066,0.029567815363407135,-0.024406354874372482
1772619287269812700,2.683812744140625,-0.21844330430030823,0.02869696170091629,-0.023891566321253777
1772619287279843800,2.69384375,-0.20164364576339722,0.02263963408768177,-0.023978326469659805
1772619287289874700,2.703874755859375,-0.1862252801656723,0.002848086878657341,-0.026750409975647926
1772619287299905800,2.71390576171875,-0.1766723096370697,-0.0428660586476326,-0.019450882449746132
1772619287309936600,2.7239365234375,-0.17524592578411102,-0.1157168298959732,-0.003234629053622484
1772619287319967700,2.7339677734375,-0.17967118322849274,-0.20106077194213867,0.020619885995984077
1772619287329998800,2.743998779296875,-0.18860849738121033,-0.2851839065551758,0.05306597426533699
1772619287340029700,2.75402978515625,-0.2010403871536255,-0.35750138759613037,0.08389347046613693
1772619287350060800,2.764060791015625,-0.22078078985214233,-0.40521135926246643,0.11424019187688828
1772619287360091600,2.774091552734375,-0.24756772816181183,-0.42016735672950745,0.1365511566400528
1772619287370123000,2.784123046875,-0.2735828459262848,-0.39160096645355225,0.14333289861679077
1772619287380153900,2.79415380859375,-0.29961827397346497,-0.34223321080207825,0.14347228407859802
1772619287390185000,2.80418505859375,-0.3244037926197052,-0.2774001359939575,0.1418650597333908
1772619287400216300,2.81421630859375,-0.3528723418712616,-0.20394057035446167,0.13797567784786224
1772619287410246400,2.824246337890625,-0.3896138668060303,-0.16399821639060974,0.1344778835773468
1772619287420277200,2.83427734375,-0.4290529489517212,-0.16414234042167664,0.12738417088985443
1772619287430308400,2.844308349609375,-0.469115674495697,-0.18110507726669312,0.12363683432340622
1772619287440339200,2.854339111328125,-0.5112482905387878,-0.2256324589252472,0.12142202258110046
1772619287450370300,2.864370361328125,-0.5407640933990479,-0.28028610348701477,0.11639849841594696
1772619287460401400,2.8744013671875,-0.5660995244979858,-0.3201836347579956,0.10779182612895966
1772619287470432500,2.8844326171875,-0.5792728066444397,-0.3477654457092285,0.08880987763404846
1772619287480463600,2.894463623046875,-0.5775959491729736,-0.3574230968952179,0.07157650589942932
1772619287490494500,2.904494384765625,-0.5784716010093689,-0.3573594391345978,0.06059496849775314
1772619287500525600,2.914525634765625,-0.568017303943634,-0.35390520095825195,0.06136055290699005
1772619287510556400,2.924556396484375,-0.5542604923248291,-0.3333682119846344,0.07102596014738083
1772619287520587500,2.93458740234375,-0.537090003490448,-0.32155734300613403,0.08436041325330734
1772619287530618400,2.944618408203125,-0.5199368596076965,-0.3275209665298462,0.09774493426084518
1772619287540649500,2.9546494140625,-0.5089589953422546,-0.34201332926750183,0.09462115168571472
1772619287550680300,2.964680419921875,-0.5053014159202576,-0.35383883118629456,0.07153261452913284
1772619287560711400,2.97471142578125,-0.5123994946479797,-0.383600115776062,0.0060324412770569324
1772619287570742300,2.9847421875,-0.5339897871017456,-0.41139233112335205,-0.08676353842020035
1772619287580773400,2.9947734375,-0.5556600689888,-0.42781201004981995,-0.20235218107700348
1772619287590804200,3.00480419921875,-0.5626404881477356,-0.4290269613265991,-0.3036106526851654
1772619287600834300,3.014834228515625,-0.5576814413070679,-0.4296179711818695,-0.3646160364151001
1772619287610865400,3.024865478515625,-0.5337857007980347,-0.4322337210178375,-0.368888795375824
1772619287620896300,3.034896240234375,-0.49409082531929016,-0.41877299547195435,-0.2971075177192688
1772619287630927400,3.04492724609375,-0.4489068388938904,-0.34265345335006714,-0.17519544064998627
1772619287640958200,3.054958251953125,-0.3864927887916565,-0.2023395150899887,-0.03576991707086563
1772619287650989600,3.064989501953125,-0.3084262013435364,0.0020663533359766006,0.08988653868436813
1772619287661020400,3.0750205078125,-0.22544576227664948,0.23146852850914001,0.19856436550617218
1772619287671051500,3.085051513671875,-0.137857586145401,0.4194794297218323,0.27724266052246094
1772619287681082400,3.095082275390625,-0.05566364899277687,0.5244635939598083,0.34264713525772095
1772619287691113500,3.105113525390625,0.019938170909881592,0.5577102303504944,0.4101009964942932
1772619287701144600,3.11514453125,0.07987085729837418,0.5237202048301697,0.4717329740524292
1772619287711175400,3.125175537109375,0.11682568490505219,0.4277193248271942,0.5244518518447876
1772619287721206500,3.13520654296875,0.1450325846672058,0.26471051573753357,0.5601516366004944
1772619287731237400,3.1452373046875,0.15144044160842896,0.04391208663582802,0.5879222750663757
1772619287741268500,3.1552685546875,0.13837352395057678,-0.16586624085903168,0.6047292351722717
1772619287751299300,3.16529931640625,0.11273952573537827,-0.3021945059299469,0.6203768849372864
1772619287761330400,3.175330322265625,0.07892917096614838,-0.35754528641700745,0.6321381330490112
1772619287771361300,3.185361328125,0.0366072840988636,-0.36632040143013,0.6350415349006653
1772619287781391400,3.195391357421875,-0.006640759762376547,-0.34659409523010254,0.623394787311554
1772619287791422500,3.20542236328125,-0.05311078950762749,-0.2901233732700348,0.5960494875907898
1772619287801453300,3.215453369140625,-0.09336276352405548,-0.17435471713542938,0.5367775559425354
1772619287811484400,3.225484375,-0.12182289361953735,-0.04218709468841553,0.45350101590156555
1772619287821515300,3.235515380859375,-0.1492542028427124,0.0892128050327301,0.34330886602401733
1772619287831546400,3.24554638671875,-0.1692955642938614,0.19119909405708313,0.22618144750595093
1772619287841577500,3.255577392578125,-0.1834793984889984,0.23905423283576965,0.13477745652198792
1772619287851608600,3.265608642578125,-0.19236209988594055,0.2396092414855957,0.0726698637008667
1772619287861639400,3.275639404296875,-0.19212296605110168,0.2073848843574524,0.04225313663482666
1772619287871670500,3.28567041015625,-0.1814814954996109,0.14349031448364258,0.03743494674563408
1772619287881701400,3.295701416015625,-0.1691238284111023,0.08423715829849243,0.04838816449046135
1772619287891732500,3.305732421875,-0.14355269074440002,0.045075904577970505,0.06095775216817856
1772619287901763300,3.315763427734375,-0.1149386316537857,0.03424816578626633,0.07841601967811584
1772619287911794400,3.32579443359375,-0.0803910419344902,0.06085580959916115,0.09230200946331024
1772619287921825500,3.335825439453125,-0.04993293434381485,0.09918525815010071,0.0944262370467186
1772619287931856400,3.3458564453125,-0.022821955382823944,0.13140764832496643,0.08061961084604263
1772619287941887500,3.355887451171875,-0.004764391575008631,0.1516050547361374,0.04954291880130768
1772619287951918300,3.36591845703125,0.007619402837008238,0.1581857055425644,0.01737331598997116
1772619287961948400,3.375948486328125,0.011766373179852962,0.15174181759357452,-0.013440119102597237
1772619287971979300,3.385979248046875,0.021249357610940933,0.13889287412166595,-0.03344232216477394
1772619287982010400,3.39601025390625,0.031076809391379356,0.12480030208826065,-0.03490465134382248
1772619287992041500,3.40604150390625,0.04498890042304993,0.10798963159322739,-0.028368720784783363
1772619288002072300,3.416072265625,0.0663163810968399,0.09516970068216324,-0.006935812532901764
1772619288012103400,3.426103515625,0.0915900468826294,0.0900774672627449,0.02847517468035221
1772619288022134300,3.43613427734375,0.11416164040565491,0.09677990525960922,0.0656946673989296
1772619288032165600,3.44616552734375,0.13537079095840454,0.10200049728155136,0.09468691051006317
1772619288042196500,3.456196533203125,0.14278393983840942,0.1045820415019989,0.10209601372480392
1772619288052227600,3.4662275390625,0.1433706432580948,0.09031202644109726,0.08978687971830368
1772619288062258400,3.476258544921875,0.13688313961029053,0.08160170167684555,0.055798888206481934
1772619288072289500,3.48628955078125,0.11737734824419022,0.07026249170303345,0.003881095675751567
1772619288082320400,3.4963203125,0.0974678099155426,0.04658127948641777,-0.053956713527441025
1772619288092351500,3.5063515625,0.07604453712701797,0.027285613119602203,-0.1208055168390274
1772619288102382300,3.51638232421875,0.056859340518713,0.013790919445455074,-0.17638295888900757
1772619288112413400,3.526413330078125,0.03762173280119896,0.008738369680941105,-0.20978006720542908
1772619288122444300,3.5364443359375,0.02502065896987915,-0.002756677567958832,-0.22171370685100555
1772619288132475400,3.546475341796875,0.016823450103402138,-0.006521588657051325,-0.2116357684135437
1772619288142505500,3.55650537109375,0.015624504536390305,-0.0031472397968173027,-0.20025040209293365
1772619288152536300,3.566536376953125,0.021510887891054153,0.003976449836045504,-0.19503912329673767
1772619288162567400,3.5765673828125,0.0274195559322834,0.0191948302090168,-0.1900859773159027
1772619288172598300,3.586598388671875,0.03620452433824539,0.029689550399780273,-0.19842486083507538
1772619288182629400,3.59662939453125,0.04618287831544876,0.04273686558008194,-0.20838919281959534
1772619288192660200,3.60666015625,0.05577824264764786,0.0585818737745285,-0.2274044305086136
1772619288202691300,3.61669140625,0.05580978840589523,0.06898945569992065,-0.25170591473579407
1772619288212722400,3.626722412109375,0.06283148378133774,0.06880756467580795,-0.27841636538505554
1772619288222753500,3.63675341796875,0.06908223032951355,0.06776553392410278,-0.29833725094795227
1772619288232784400,3.646784423828125,0.07087799906730652,0.057197581976652145,-0.31205999851226807
1772619288242815500,3.6568154296875,0.07912027835845947,0.043411508202552795,-0.3132876753807068
1772619288252846600,3.6668466796875,0.08655262738466263,0.037805818021297455,-0.3098639249801636
1772619288262877400,3.67687744140625,0.09798962622880936,0.032376743853092194,-0.30054551362991333
1772619288272908500,3.686908447265625,0.11464051157236099,0.024904178455471992,-0.2941851019859314
1772619288282939400,3.696939453125,0.12993095815181732,0.016959328204393387,-0.2882932424545288
1772619288292970500,3.706970458984375,0.14569686353206635,0.009009525179862976,-0.2802281379699707
1772619288303001300,3.71700146484375,0.15890716016292572,0.0026011159643530846,-0.2766709327697754
1772619288313032400,3.727032470703125,0.16737601161003113,-0.003671959973871708,-0.2694585621356964
1772619288323062500,3.7370625,0.17167355120182037,-0.003381941933184862,-0.25894784927368164
1772619288333093400,3.74709326171875,0.17622941732406616,0.009694444946944714,-0.2473447471857071
1772619288343124500,3.75712451171875,0.18022233247756958,0.03844839334487915,-0.2392914891242981
1772619288353155300,3.7671552734375,0.1938372105360031,0.06174546107649803,-0.2363971620798111
1772619288363186400,3.7771865234375,0.2052541822195053,0.07918383181095123,-0.23861345648765564
1772619288373217300,3.78721728515625,0.22149387001991272,0.08279295265674591,-0.2302260845899582
1772619288383248400,3.797248291015625,0.23473145067691803,0.06445859372615814,-0.217576801776886
1772619288393278700,3.80727880859375,0.2398654818534851,0.028533613309264183,-0.200579434633255
1772619288403309800,3.817309814453125,0.25046753883361816,-0.017050117254257202,-0.18040253221988678
1772619288413341000,3.8273408203125,0.26016145944595337,-0.06278378516435623,-0.16811950504779816
1772619288423371800,3.837371826171875,0.26273006200790405,-0.10343468189239502,-0.15836958587169647
1772619288433403000,3.84740283203125,0.25365883111953735,-0.13985979557037354,-0.15562281012535095
1772619288443433700,3.857433837890625,0.253625750541687,-0.17384085059165955,-0.14456501603126526
1772619288453464800,3.86746484375,0.25027814507484436,-0.17753678560256958,-0.11925221234560013
1772619288463495700,3.87749560546875,0.25157472491264343,-0.14887088537216187,-0.07679051905870438
1772619288473527000,3.887527099609375,0.2681797742843628,-0.08573239296674728,-0.03307180106639862
1772619288483558000,3.897557861328125,0.2880566120147705,0.01544767152518034,0.013410145416855812
1772619288493589000,3.907589111328125,0.3102189004421234,0.1114056259393692,0.0575118288397789
1772619288503619800,3.917619873046875,0.3359973430633545,0.17334872484207153,0.08412119001150131
1772619288513650000,3.92764990234375,0.349819153547287,0.20690296590328217,0.08568020910024643
1772619288523681000,3.937680908203125,0.36810576915740967,0.24412287771701813,0.08085810393095016
1772619288533712000,3.9477119140625,0.38151878118515015,0.2580097019672394,0.06524904817342758
1772619288543743000,3.957742919921875,0.3951317369937897,0.23577795922756195,0.0375482439994812
1772619288553773800,3.96777392578125,0.40000930428504944,0.1679360717535019,-0.0018439018167555332
1772619288563805000,3.977804931640625,0.39693450927734375,0.08559098839759827,-0.05452418327331543
1772619288573835800,3.987835693359375,0.3880339562892914,-0.009126205928623676,-0.11610179394483566
1772619288583867000,3.997866943359375,0.36632484197616577,-0.09164411574602127,-0.18289092183113098
1772619288593897700,4.007897705078125,0.34926465153694153,-0.1443701684474945,-0.2410769909620285
1772619288603928800,4.0179287109375,0.34201887249946594,-0.14630092680454254,-0.2759387791156769
1772619288613959700,4.027959716796875,0.33444029092788696,-0.13423281908035278,-0.272682249546051
1772619288623990800,4.03799072265625,0.3397620916366577,-0.09081942588090897,-0.22875723242759705
1772619288634021600,4.048021728515625,0.3597017228603363,-0.03594738990068436,-0.14827197790145874
1772619288644052700,4.058052734375,0.3645162284374237,0.015586423687636852,-0.05899454653263092
1772619288654083800,4.068083740234375,0.3747507631778717,0.038447532802820206,0.02802157774567604
1772619288664115000,4.078114990234375,0.3804577589035034,0.04113011807203293,0.10259013622999191
1772619288674146000,4.08814599609375,0.3875555992126465,0.03768664970993996,0.1572485864162445
1772619288684177000,4.098177001953125,0.3861703872680664,0.044925812631845474,0.19345945119857788
1772619288694208000,4.1082080078125,0.3803124725818634,0.06425423920154572,0.20199808478355408
1772619288704237800,4.11823779296875,0.36618784070014954,0.10429520159959793,0.18474645912647247
1772619288714269000,4.12826904296875,0.34899261593818665,0.1459031105041504,0.1530841439962387
1772619288724300000,4.138300048828125,0.32816454768180847,0.17932191491127014,0.12128033488988876
1772619288734331000,4.148330810546875,0.3100894093513489,0.19456717371940613,0.10118172317743301
1772619288744362000,4.158362060546875,0.28780460357666016,0.1918719857931137,0.09007211029529572
1772619288754392800,4.168392822265625,0.2632598280906677,0.1750200241804123,0.1016206368803978
1772619288764424000,4.178423828125,0.24367868900299072,0.15228749811649323,0.1245957762002945
1772619288774454800,4.188454833984375,0.23053546249866486,0.1269315481185913,0.14988276362419128
1772619288784486000,4.19848583984375,0.22161522507667542,0.11129423975944519,0.17420342564582825
1772619288794516700,4.208516845703125,0.21771982312202454,0.09231096506118774,0.19471322000026703
1772619288804547800,4.2185478515625,0.21669544279575348,0.07713380455970764,0.20360241830348969
1772619288814578700,4.22857861328125,0.2148922234773636,0.05426816642284393,0.19262488186359406
1772619288824609800,4.23860986328125,0.20748640596866608,0.029792645946145058,0.1710541844367981
1772619288834640600,4.248640625,0.19383637607097626,0.007389336358755827,0.13345620036125183
1772619288844671700,4.258671630859375,0.177117720246315,-0.009761495515704155,0.08642780035734177
1772619288854702800,4.268702880859375,0.1614127904176712,-0.01707107201218605,0.028211364522576332
1772619288864734000,4.27873388671875,0.13951049745082855,-0.018530722707509995,-0.028534840792417526
1772619288874763800,4.288763671875,0.11787976324558258,-0.021829048171639442,-0.07897590845823288
1772619288884795000,4.298794921875,0.09489918500185013,-0.025660961866378784,-0.12335576117038727
1772619288894826000,4.308825927734375,0.08078177273273468,-0.028650891035795212,-0.14188231527805328
1772619288904856800,4.31885693359375,0.07561571896076202,-0.02525874599814415,-0.1291603147983551
1772619288914888000,4.328887939453125,0.07788845896720886,-0.018438655883073807,-0.09603139758110046
1772619288924918800,4.338918701171875,0.08664380013942719,-0.022110916674137115,-0.057614926248788834
1772619288934950000,4.348949951171875,0.09264630079269409,-0.032283391803503036,-0.022615132853388786
1772619288944980700,4.358980712890625,0.09726348519325256,-0.04169243574142456,0.01230618730187416
1772619288955011800,4.36901171875,0.08832245320081711,-0.04934822395443916,0.02679671347141266
1772619288965043000,4.37904296875,0.07053354382514954,-0.04462728649377823,0.029222311452031136
1772619288975073800,4.38907373046875,0.04805539920926094,-0.03958459198474884,0.005235751625150442
1772619288985105000,4.39910498046875,0.020359110087156296,-0.018145956099033356,-0.024641787633299828
1772619288995135700,4.4091357421875,-0.004322001710534096,0.009364763274788857,-0.05159537494182587
1772619289005166800,4.419166748046875,-0.02262328378856182,0.029923362657427788,-0.06074950098991394
1772619289015197700,4.42919775390625,-0.03685947507619858,0.036584995687007904,-0.05529108643531799
1772619289025228800,4.439228759765625,-0.05231881141662598,0.023019306361675262,-0.04197108745574951
1772619289035259600,4.449259765625,-0.07266829162836075,-0.025483783334493637,-0.010648053139448166
1772619289045291000,4.459291015625,-0.10063473880290985,-0.10329394042491913,0.0395679697394371
1772619289055321900,4.46932177734375,-0.1417587399482727,-0.20163488388061523,0.11670136451721191
1772619289065351700,4.4793515625,-0.19520923495292664,-0.28349319100379944,0.2112758755683899
1772619289075383000,4.489383056640625,-0.2395058572292328,-0.277921587228775,0.3019104301929474
1772619289085414000,4.499413818359375,-0.27586469054222107,-0.1976449340581894,0.3457257151603699
1772619289095445000,4.509445068359375,-0.2837660312652588,-0.09512200951576233,0.3361300826072693
1772619289105475800,4.519475830078125,-0.28709882497787476,0.0003852229565382004,0.28080809116363525
1772619289115507000,4.5295068359375,-0.28067633509635925,0.07811836898326874,0.2003398984670639
1772619289125537800,4.539537841796875,-0.27483221888542175,0.14376181364059448,0.12273303419351578
1772619289135569000,4.54956884765625,-0.27072614431381226,0.18635055422782898,0.05293264985084534
1772619289145599700,4.559599853515625,-0.26676273345947266,0.18170598149299622,0.01644153520464897
1772619289155630800,4.569630859375,-0.2687651813030243,0.14778238534927368,0.01116208452731371
1772619289165661700,4.57966162109375,-0.2749578654766083,0.09986484795808792,0.02583305351436138
1772619289175692800,4.58969287109375,-0.2824506461620331,0.044967249035835266,0.04085035249590874
1772619289185724000,4.599723876953125,-0.2902790606021881,0.0020751082338392735,0.03750156983733177
1772619289195754800,4.609754638671875,-0.29727703332901,-0.03567200526595116,0.00908990390598774
1772619289205785900,4.619785888671875,-0.3079657554626465,-0.06079889461398125,-0.041677072644233704
1772619289215816700,4.629816650390625,-0.32141444087028503,-0.07355863600969315,-0.10383099317550659
1772619289225847800,4.639847900390625,-0.3409172594547272,-0.06717126071453094,-0.16613750159740448
1772619289235879000,4.64987890625,-0.36284732818603516,-0.04459165409207344,-0.21493327617645264
1772619289245908700,4.65990869140625,-0.3890972137451172,-0.01693725772202015,-0.2602967619895935
1772619289255939800,4.66993994140625,-0.41252076625823975,-0.014271966181695461,-0.278563916683197
1772619289265971000,4.679970947265625,-0.43388262391090393,-0.04569727182388306,-0.26449862122535706
1772619289276002000,4.690001953125,-0.44782987236976624,-0.08344145119190216,-0.22627267241477966
1772619289286033000,4.700032958984375,-0.45079585909843445,-0.11919370293617249,-0.18723174929618835
1772619289296064000,4.71006396484375,-0.44676488637924194,-0.1505633443593979,-0.15741953253746033
1772619289306094800,4.7200947265625,-0.43738409876823425,-0.15368077158927917,-0.13201898336410522
1772619289316126000,4.7301259765625,-0.43256112933158875,-0.1614833027124405,-0.12935476005077362
1772619289326156800,4.74015673828125,-0.427868127822876,-0.17376135289669037,-0.13557399809360504
1772619289336188000,4.75018798828125,-0.42466914653778076,-0.18806412816047668,-0.1489846110343933
1772619289346218800,4.76021875,-0.4141541123390198,-0.1946837604045868,-0.15532220900058746
1772619289356249900,4.770249755859375,-0.4039057493209839,-0.19277215003967285,-0.151022806763649
1772619289366280700,4.78028076171875,-0.3942214548587799,-0.20178067684173584,-0.13686630129814148
1772619289376311800,4.790311767578125,-0.3866916298866272,-0.21658146381378174,-0.11908465623855591
1772619289386342700,4.8003427734375,-0.3844940960407257,-0.22154930233955383,-0.08751852810382843
1772619289396374300,4.810374267578125,-0.38229644298553467,-0.21504053473472595,-0.05098048597574234
1772619289406405000,4.820405029296875,-0.3821358382701874,-0.185072660446167,-0.021241426467895508
1772619289416436200,4.830436279296875,-0.37931981682777405,-0.1507362574338913,-0.011144849471747875
1772619289426466300,4.84046630859375,-0.37422430515289307,-0.12441105395555496,-0.01744590885937214
1772619289436497200,4.8504970703125,-0.3668915629386902,-0.09449230134487152,-0.039934173226356506
1772619289446528300,4.8605283203125,-0.3578764796257019,-0.08675941824913025,-0.06153633072972298
1772619289456559000,4.87055908203125,-0.3527243137359619,-0.10717707872390747,-0.0717703178524971
1772619289466590500,4.880590576171875,-0.3483525812625885,-0.14515052735805511,-0.07294472306966782
1772619289476621300,4.890621337890625,-0.34297940135002136,-0.18417063355445862,-0.06823278963565826
1772619289486652400,4.90065234375,-0.3310757279396057,-0.2257656753063202,-0.07279063016176224
1772619289496683300,4.910683349609375,-0.3217261731624603,-0.26932647824287415,-0.09466397017240524
1772619289506714400,4.92071435546875,-0.3162890374660492,-0.3154585659503937,-0.11955077201128006
1772619289516745200,4.9307451171875,-0.3096388578414917,-0.35527390241622925,-0.1482362151145935
1772619289526776300,4.9407763671875,-0.3087104260921478,-0.37331265211105347,-0.17420662939548492
1772619289536807400,4.950807373046875,-0.3083290755748749,-0.3683282732963562,-0.19766747951507568
1772619289546838300,4.96083837890625,-0.3091253638267517,-0.3521040380001068,-0.20435282588005066
1772619289556869400,4.970869384765625,-0.3086355924606323,-0.31679877638816833,-0.1916586011648178
1772619289566900200,4.980900146484375,-0.30682608485221863,-0.26523301005363464,-0.15609772503376007
1772619289576931300,4.990931396484375,-0.29318562150001526,-0.1839325875043869,-0.09902085363864899
1772619289586962200,5.000962158203125,-0.27451226115226746,-0.06738705188035965,-0.02457442134618759
1772619289596993300,5.0109931640625,-0.24415968358516693,0.07421322166919708,0.05812259018421173
1772619289607023400,5.0210234375,-0.21020227670669556,0.22141669690608978,0.13218700885772705
1772619289617054200,5.03105419921875,-0.17248126864433289,0.33106276392936707,0.1913568526506424
1772619289627085300,5.041085205078125,-0.13331833481788635,0.39169377088546753,0.23712937533855438
1772619289637116200,5.0511162109375,-0.10470160096883774,0.40314722061157227,0.27216431498527527
1772619289647147300,5.061147216796875,-0.08214514702558517,0.3765523433685303,0.3001393973827362
1772619289657178400,5.071178466796875,-0.08175420016050339,0.3271762728691101,0.30475306510925293
1772619289667209500,5.08120947265625,-0.08565330505371094,0.24773815274238586,0.2848886549472809
1772619289677240300,5.091240234375,-0.10964492708444595,0.12743809819221497,0.254655659198761
1772619289687271400,5.101271484375,-0.156416654586792,-0.04111089929938316,0.2158074676990509
1772619289697302300,5.11130224609375,-0.21949441730976105,-0.24631677567958832,0.19041262567043304
1772619289707333400,5.12133349609375,-0.2938806414604187,-0.4156663119792938,0.1866522580385208
1772619289717364200,5.1313642578125,-0.3559719920158386,-0.5077991485595703,0.19092823565006256
1772619289727395300,5.141395263671875,-0.4111020565032959,-0.5257814526557922,0.19540664553642273
1772619289737426200,5.15142626953125,-0.43899253010749817,-0.49460938572883606,0.19061055779457092
1772619289747457300,5.161457275390625,-0.4453968405723572,-0.39870768785476685,0.18409080803394318
1772619289757488000,5.171488037109375,-0.44159412384033203,-0.25354596972465515,0.18152831494808197
1772619289767519200,5.181519287109375,-0.4181295335292816,-0.07443428039550781,0.17108872532844543
1772619289777550300,5.19155029296875,-0.37535837292671204,0.11494629830121994,0.16207392513751984
1772619289787580200,5.201580078125,-0.31832244992256165,0.2709657549858093,0.1523299515247345
1772619289797611300,5.211611328125,-0.2615039348602295,0.3351854979991913,0.14091378450393677
1772619289807642000,5.22164208984375,-0.21057066321372986,0.3114943504333496,0.1278083324432373
1772619289817673200,5.231673095703125,-0.17649871110916138,0.24858064949512482,0.12083350867033005
1772619289827704000,5.2417041015625,-0.15979953110218048,0.17269015312194824,0.11247362941503525
1772619289837735400,5.2517353515625,-0.14670290052890778,0.09635411202907562,0.08991878479719162
1772619289847766300,5.261766357421875,-0.13260821998119354,0.013098997995257378,0.056829459965229034
1772619289857797400,5.27179736328125,-0.11368298530578613,-0.05797091871500015,0.021829934790730476
1772619289867828500,5.281828369140625,-0.0883411094546318,-0.09605178236961365,-0.024543646723031998
1772619289877859300,5.291859375,-0.051270704716444016,-0.10725703835487366,-0.06865864992141724
1772619289887890400,5.301890380859375,-0.011490876786410809,-0.0987333208322525,-0.11058149486780167
1772619289897921300,5.31192138671875,0.028595291078090668,-0.0864391028881073,-0.14346620440483093
1772619289907952400,5.321952392578125,0.06455966830253601,-0.07790495455265045,-0.15484461188316345
1772619289917983200,5.331983154296875,0.09375910460948944,-0.06352441757917404,-0.14179059863090515
1772619289928014300,5.342014404296875,0.11792563647031784,-0.03606626018881798,-0.10949227213859558
1772619289938045200,5.352045166015625,0.14384324848651886,0.005305412691086531,-0.06701883673667908
1772619289948076300,5.362076171875,0.16286785900592804,0.0678267702460289,-0.027830762788653374
1772619289958106400,5.3721064453125,0.18064473569393158,0.1337282955646515,0.0056478362530469894
1772619289968137200,5.38213720703125,0.1923508644104004,0.19318237900733948,0.02170144021511078
1772619289978168300,5.392168212890625,0.2069215476512909,0.22809427976608276,0.02320106513798237
1772619289988199200,5.40219921875,0.2155447006225586,0.2396746128797531,0.013134179636836052
1772619289998230300,5.412230224609375,0.21703767776489258,0.23101747035980225,0.006041649729013443
1772619290008261000,5.42226123046875,0.2129470556974411,0.19862277805805206,0.005682122893631458
1772619290018292200,5.432292236328125,0.19756224751472473,0.1327497661113739,0.002988069085404277
1772619290028323300,5.4423232421875,0.17751666903495789,0.0490492582321167,0.0011365215759724379
1772619290038354400,5.4523544921875,0.15963754057884216,-0.01756279543042183,0.0021767523139715195
1772619290048385300,5.46238525390625,0.14032641053199768,-0.059754230082035065,-0.002808523364365101
1772619290058416400,5.47241650390625,0.13240323960781097,-0.07303968071937561,-0.010953801684081554
1772619290068447200,5.482447265625,0.13162310421466827,-0.05192011967301369,-0.023289691656827927
1772619290078478300,5.492478271484375,0.14129063487052917,-0.006637326441705227,-0.030520174652338028
1772619290088509400,5.502509521484375,0.15993309020996094,0.04500540718436241,-0.04258241876959801
1772619290098540300,5.512540283203125,0.18083730340003967,0.08118657767772675,-0.05666308477520943
1772619290108571400,5.5225712890625,0.1988075077533722,0.09654669463634491,-0.059956397861242294
1772619290118602200,5.532602294921875,0.21369138360023499,0.09360229969024658,-0.06953046470880508
1772619290128633300,5.54263330078125,0.224997416138649,0.07625173032283783,-0.07532487064599991
1772619290138663200,5.5526630859375,0.23246066272258759,0.054982129484415054,-0.08313672244548798
1772619290148694300,5.5626943359375,0.240494504570961,0.0376717746257782,-0.10077432543039322
1772619290158725400,5.572725341796875,0.245124951004982,0.04066011309623718,-0.11381129920482635
1772619290168756200,5.582756103515625,0.2513941824436188,0.05378801375627518,-0.1269662231206894
1772619290178787300,5.592787353515625,0.26085400581359863,0.06995552778244019,-0.13689476251602173
1772619290188818200,5.602818115234375,0.27469804883003235,0.09372859448194504,-0.1402047872543335
1772619290198849300,5.612849365234375,0.28948739171028137,0.11903209239244461,-0.14131797850131989
1772619290208880000,5.622880126953125,0.30984413623809814,0.13005608320236206,-0.12952856719493866
1772619290218911500,5.632911376953125,0.3265725374221802,0.13520291447639465,-0.11520767956972122
1772619290228942300,5.6429423828125,0.3413105309009552,0.12659017741680145,-0.09844688326120377
1772619290238973400,5.652973388671875,0.35108938813209534,0.12496324628591537,-0.08130677789449692
1772619290249004300,5.66300439453125,0.3603147566318512,0.12350251525640488,-0.059786356985569
1772619290259035400,5.673035400390625,0.35874852538108826,0.12430892139673233,-0.042066749185323715
1772619290269066200,5.683066162109375,0.3538426160812378,0.134085014462471,-0.028740420937538147
1772619290279097300,5.693097412109375,0.35003241896629333,0.14730706810951233,-0.023427948355674744
1772619290289128200,5.703128173828125,0.3445626199245453,0.16487014293670654,-0.04104117676615715
1772619290299158300,5.713158203125,0.33401650190353394,0.16459797322750092,-0.07420658320188522
1772619290309189400,5.723189453125,0.31781166791915894,0.14411547780036926,-0.10043187439441681
1772619290319220200,5.73322021484375,0.29748961329460144,0.13540348410606384,-0.12594015896320343
1772619290329251300,5.743251220703125,0.278001606464386,0.13095293939113617,-0.14316333830356598
1772619290339282200,5.7532822265625,0.26236459612846375,0.1184249073266983,-0.14640174806118011
1772619290349313300,5.763313232421875,0.24726372957229614,0.10135336220264435,-0.14977891743183136
1772619290359344000,5.77334423828125,0.24318936467170715,0.0929228663444519,-0.14862149953842163
1772619290369375200,5.783375244140625,0.24252188205718994,0.09044308215379715,-0.137554332613945
1772619290379406300,5.79340625,0.24535922706127167,0.09053575992584229,-0.12182198464870453
1772619290389437200,5.803437255859375,0.2500055134296417,0.07563714683055878,-0.10204483568668365
1772619290399468000,5.813468017578125,0.2549688518047333,0.04875493794679642,-0.06923975050449371
1772619290409499000,5.823498779296875,0.257125586271286,0.029548577964305878,-0.020825058221817017
1772619290419530200,5.8335302734375,0.2554542124271393,0.00991761777549982,0.021254219114780426
1772619290429561000,5.84356103515625,0.254019170999527,-0.01196794118732214,0.04669998586177826
1772619290439592200,5.85359228515625,0.25180819630622864,-0.0323224812746048,0.06094390153884888
1772619290449623000,5.863623046875,0.24728083610534668,-0.037277646362781525,0.06697679311037064
1772619290459654100,5.873654052734375,0.2467370182275772,-0.02195647731423378,0.0682271420955658
1772619290469685000,5.88368505859375,0.24869737029075623,0.012346368283033371,0.06975500285625458
1772619290479715000,5.893715087890625,0.24950245022773743,0.07055001705884933,0.06955312937498093
1772619290489746200,5.90374609375,0.24704526364803314,0.13095083832740784,0.06170177832245827
1772619290499777000,5.913777099609375,0.24600477516651154,0.18417224287986755,0.03910352662205696
1772619290509808000,5.92380810546875,0.24215596914291382,0.21263904869556427,0.009281446225941181
1772619290519839000,5.9338388671875,0.23198896646499634,0.20757712423801422,-0.023323815315961838
1772619290529870000,5.9438701171875,0.21874651312828064,0.18114835023880005,-0.04694846272468567
1772619290539901000,5.95390087890625,0.20909202098846436,0.1375923454761505,-0.07463334500789642
1772619290549932000,5.96393212890625,0.205631285905838,0.09895914047956467,-0.09805288165807724
1772619290559963000,5.973962890625,0.20477133989334106,0.08919838815927505,-0.12686854600906372
1772619290569994000,5.983993896484375,0.21544119715690613,0.0825590118765831,-0.14342209696769714
1772619290580024800,5.99402490234375,0.23180392384529114,0.08334491401910782,-0.16209910809993744
1772619290590056000,6.004055908203125,0.23783189058303833,0.06680657714605331,-0.16565720736980438
1772619290600087000,6.014087158203125,0.2391035556793213,0.03363797068595886,-0.16997472941875458
1772619290610118100,6.0241181640625,0.23397111892700195,-0.0008402541279792786,-0.1687099188566208
1772619290620149200,6.034149169921875,0.21723954379558563,-0.02877388335764408,-0.17154325544834137
1772619290630180000,6.04418017578125,0.2037108689546585,-0.04541383311152458,-0.1777985543012619
1772619290640211200,6.054211181640625,0.18939104676246643,-0.04252829775214195,-0.18421223759651184
1772619290650242000,6.064241943359375,0.1818627417087555,-0.01880609430372715,-0.18918922543525696
1772619290660273200,6.074273193359375,0.17374302446842194,0.010624231770634651,-0.19362206757068634
1772619290670303200,6.08430322265625,0.16783758997917175,0.04873696342110634,-0.18200035393238068
1772619290680334000,6.094333984375,0.15787950158119202,0.0883866399526596,-0.1473132222890854
1772619290690365200,6.104365234375,0.15750335156917572,0.13742756843566895,-0.090700663626194
1772619290700396000,6.11439599609375,0.15675394237041473,0.19382533431053162,-0.025195159018039703
1772619290710427100,6.12442724609375,0.16195732355117798,0.2359200417995453,0.030827417969703674
1772619290720458000,6.1344580078125,0.17561747133731842,0.25719496607780457,0.06785334646701813
1772619290730489000,6.144489013671875,0.19001111388206482,0.27927690744400024,0.10094685852527618
1772619290740520000,6.15452001953125,0.19430573284626007,0.29479485750198364,0.12636245787143707
1772619290750551000,6.164551025390625,0.19477324187755585,0.29999157786369324,0.13954193890094757
1772619290760582000,6.174581787109375,0.1887182742357254,0.3017079830169678,0.15226757526397705
1772619290770613000,6.184613037109375,0.17800372838974,0.3106999099254608,0.1496705263853073
1772619290780643800,6.194643798828125,0.1771049201488495,0.2989090383052826,0.13913239538669586
1772619290790675200,6.20467529296875,0.17672498524188995,0.2757343351840973,0.12207870930433273
1772619290800706000,6.2147060546875,0.18279699981212616,0.25666025280952454,0.10571012645959854
1772619290810737200,6.224737060546875,0.18935276567935944,0.23922114074230194,0.08437848091125488
1772619290820768000,6.23476806640625,0.18787550926208496,0.2151181995868683,0.06742453575134277
1772619290830799000,6.244799072265625,0.1873588263988495,0.18435364961624146,0.05541912093758583
1772619290840829200,6.2548291015625,0.18763552606105804,0.12795110046863556,0.051286425441503525
1772619290850860000,6.264860107421875,0.19406530261039734,0.0677509754896164,0.059671252965927124
1772619290860891100,6.27489111328125,0.19459660351276398,0.018249738961458206,0.08318749815225601
1772619290870922000,6.284921875,0.19912700355052948,-0.03902290388941765,0.11504709720611572
1772619290880953000,6.294953125,0.20323972404003143,-0.06736133247613907,0.16089607775211334
1772619290890984000,6.30498388671875,0.20817244052886963,-0.05316467583179474,0.21061189472675323
1772619290901015000,6.31501513671875,0.22055667638778687,-0.007637140341103077,0.24975185096263885
1772619290911046100,6.325046142578125,0.23031893372535706,0.05194376781582832,0.2737139165401459
1772619290921077000,6.335076904296875,0.24223072826862335,0.10957563668489456,0.29112568497657776
1772619290931108000,6.345108154296875,0.24519506096839905,0.13489966094493866,0.29925107955932617
1772619290941139000,6.355138916015625,0.24096304178237915,0.12000805139541626,0.292235791683197
1772619290951170000,6.365170166015625,0.22242525219917297,0.09167861938476562,0.28055477142333984
1772619290961201000,6.375200927734375,0.19264206290245056,0.053163982927799225,0.26016345620155334
1772619290971232000,6.38523193359375,0.1483006477355957,-0.00961463525891304,0.22255839407444
1772619290981263000,6.39526318359375,0.10428046435117722,-0.07014375925064087,0.16707836091518402
1772619290991294200,6.405294189453125,0.05227215960621834,-0.12622134387493134,0.10737573355436325
1772619291001325000,6.415324951171875,0.009305785410106182,-0.17330098152160645,0.050761982798576355
1772619291011356200,6.425356201171875,-0.01992693543434143,-0.1840285360813141,0.010818316601216793
1772619291021386200,6.43538623046875,-0.038675323128700256,-0.16891908645629883,-0.0021683217491954565
1772619291031417000,6.4454169921875,-0.040004074573516846,-0.12535229325294495,0.008015741594135761
1772619291041448200,6.4554482421875,-0.03402261435985565,-0.07325392961502075,0.04134759679436684
1772619291051479000,6.46547900390625,-0.03168918937444687,-0.02469462901353836,0.06963741779327393
1772619291061510100,6.47551025390625,-0.03182633966207504,-0.009331917390227318,0.08916770666837692
1772619291071541000,6.485541015625,-0.04412445053458214,-0.011463135480880737,0.08807354420423508
1772619291081572000,6.495572021484375,-0.05751509219408035,-0.011982185766100883,0.06572695821523666
1772619291091603000,6.50560302734375,-0.08277911692857742,-0.02353638783097267,0.008454549126327038
1772619291101634000,6.515634033203125,-0.09596389532089233,-0.07819563895463943,-0.06971215456724167
1772619291111665000,6.525664794921875,-0.10940668731927872,-0.13972726464271545,-0.14570340514183044
1772619291121696000,6.535696044921875,-0.11878234893083572,-0.19177554547786713,-0.1894833743572235
1772619291131727000,6.54572705078125,-0.13004671037197113,-0.21435275673866272,-0.1813543438911438
1772619291141758000,6.555758056640625,-0.14548425376415253,-0.22342455387115479,-0.1459026038646698
1772619291151789000,6.5657890625,-0.157460018992424,-0.2002919763326645,-0.09188749641180038
1772619291161820000,6.57581982421875,-0.16689880192279816,-0.1331837773323059,-0.04722389578819275
1772619291171851300,6.585851318359375,-0.16477249562740326,-0.04217120260000229,-0.017596153542399406
1772619291181882000,6.595882080078125,-0.16192211210727692,0.039022453129291534,-0.013562795706093311
1772619291191913200,6.605913330078125,-0.15538670122623444,0.08865359425544739,-0.027735823765397072
1772619291201943000,6.615943115234375,-0.15577073395252228,0.09945537894964218,-0.05173942819237709
1772619291211974100,6.62597412109375,-0.15817232429981232,0.07844375818967819,-0.06528779119253159
1772619291222005200,6.636005126953125,-0.1657373011112213,0.033822230994701385,-0.06565743684768677
1772619291232036000,6.6460361328125,-0.17468740046024323,-0.010912608355283737,-0.060312554240226746
1772619291242067200,6.656067138671875,-0.18054795265197754,-0.0443885438144207,-0.047677718102931976
1772619291252098000,6.66609814453125,-0.17866891622543335,-0.07270205020904541,-0.0449632853269577
1772619291262129200,6.676129150390625,-0.17293700575828552,-0.08625435084104538,-0.049801718443632126
1772619291272160000,6.686159912109375,-0.17219321429729462,-0.09715419262647629,-0.05811756104230881
1772619291282191000,6.696191162109375,-0.17385528981685638,-0.117497019469738,-0.07553809881210327
1772619291292222000,6.706221923828125,-0.18252718448638916,-0.15357977151870728,-0.09217339754104614
1772619291302253000,6.716253173828125,-0.19417399168014526,-0.19180864095687866,-0.11552052944898605
1772619291312284000,6.726283935546875,-0.20031020045280457,-0.2201497107744217,-0.12006430327892303
1772619291322315000,6.73631494140625,-0.21163928508758545,-0.23050647974014282,-0.12085073441267014
1772619291332345900,6.746345947265625,-0.21744363009929657,-0.22475460171699524,-0.13328887522220612
1772619291342377000,6.756376953125,-0.2253611981868744,-0.2006910890340805,-0.14985986053943634
1772619291352407800,6.76640771484375,-0.22698920965194702,-0.17427797615528107,-0.16534195840358734
1772619291362439200,6.776439208984375,-0.2251521646976471,-0.14208382368087769,-0.17436154186725616
1772619291372470000,6.786469970703125,-0.2269347757101059,-0.12761129438877106,-0.17138774693012238
1772619291382499800,6.796499755859375,-0.2289198935031891,-0.12519368529319763,-0.15669934451580048
1772619291392531200,6.80653125,-0.23410438001155853,-0.1275877058506012,-0.1330505907535553
1772619291402562300,6.816562255859375,-0.23767061531543732,-0.14122441411018372,-0.10376966744661331
1772619291412593400,6.826593505859375,-0.2449314296245575,-0.15244141221046448,-0.07683617621660233
1772619291422624300,6.836624267578125,-0.2464211881160736,-0.1645505428314209,-0.05015423148870468
1772619291432655600,6.846655517578125,-0.24462749063968658,-0.1670093834400177,-0.025273911654949188
1772619291442686500,6.8566865234375,-0.2447739690542221,-0.15918874740600586,-0.0006955976132303476
1772619291452717600,6.866717529296875,-0.24480772018432617,-0.1505071073770523,0.019344596192240715
1772619291462748400,6.87674853515625,-0.2540654242038727,-0.15045703947544098,0.026818225160241127
1772619291472779500,6.886779541015625,-0.2653781473636627,-0.1581013947725296,0.030101044103503227
1772619291482810600,6.896810546875,-0.2851579785346985,-0.16452628374099731,0.03674909472465515
1772619291492841500,6.906841552734375,-0.30024242401123047,-0.1750771403312683,0.03268825262784958
1772619291502872600,6.91687255859375,-0.31896817684173584,-0.18673458695411682,0.03612665832042694
1772619291512903400,6.9269033203125,-0.33548256754875183,-0.20068718492984772,0.03250337019562721
1772619291522934500,6.9369345703125,-0.3514136075973511,-0.1980929970741272,0.040871020406484604
1772619291532965400,6.94696533203125,-0.35818204283714294,-0.17587168514728546,0.04955723136663437
1772619291542996500,6.95699658203125,-0.34963464736938477,-0.14321094751358032,0.060057543218135834
1772619291553026600,6.967026611328125,-0.3363248109817505,-0.09782733023166656,0.06453870981931686
1772619291563057400,6.977057373046875,-0.3337945342063904,-0.07201171666383743,0.07872483879327774
1772619291573088500,6.987088623046875,-0.31222137808799744,-0.06564588099718094,0.0916079506278038
1772619291583119400,6.997119384765625,-0.30266594886779785,-0.06410923600196838,0.10462415218353271
1772619291593150500,7.007150390625,-0.3019460439682007,-0.07244076579809189,0.11672216653823853
1772619291603181300,7.017181396484375,-0.294830858707428,-0.10352092236280441,0.12403254956007004
1772619291613212400,7.02721240234375,-0.29569610953330994,-0.153248593211174,0.12784038484096527
1772619291623243500,7.037243408203125,-0.2914715111255646,-0.206243097782135,0.13426312804222107
1772619291633274600,7.047274658203125,-0.28987452387809753,-0.2224082052707672,0.1599748283624649
1772619291643305500,7.057305419921875,-0.275194376707077,-0.22016341984272003,0.18293607234954834
1772619291653336600,7.067336669921875,-0.2607625424861908,-0.21584253013134003,0.19541829824447632
1772619291663367400,7.077367431640625,-0.2421633005142212,-0.23669907450675964,0.21842986345291138
1772619291673398500,7.0873984375,-0.2503371834754944,-0.3528054356575012,0.2790886461734772
1772619291683429400,7.097429443359375,-0.23902273178100586,-0.5708642601966858,0.29624417424201965
1772619291693460500,7.10746044921875,-0.23309044539928436,-0.6693346500396729,0.3202268183231354
1772619291703491300,7.1174912109375,-0.24909791350364685,-0.6897333860397339,0.31124770641326904
1772619291713522400,7.1275224609375,-0.2746248245239258,-0.6704808473587036,0.2481631189584732
1772619291723553500,7.137553466796875,-0.31734323501586914,-0.6068435311317444,0.12167255580425262
1772619291733583400,7.147583251953125,-0.3448662757873535,-0.46801066398620605,-0.012553934007883072
1772619291743614500,7.157614501953125,-0.3691670894622803,-0.29448652267456055,-0.14226773381233215
1772619291753645300,7.167645263671875,-0.38621634244918823,-0.03806975856423378,-0.18926937878131866
1772619291763676400,7.177676513671875,-0.3812708556652069,0.23380915820598602,-0.1579652577638626
1772619291773707300,7.187707275390625,-0.3226729929447174,0.42748650908470154,-0.09615754336118698
