time,seconds_elapsed,z,y,x
1772785607221620500,0.062620361328125,0.1599170057117939,0.15661898707970975,0.23513735586358234
1772785607231636500,0.072636474609375,0.30486615939438344,0.16714425355158746,0.1709703146457672
1772785607241653500,0.082653564453125,0.4144944088488817,0.16254538145400582,0.13873369496753438
1772785607251669500,0.09266943359375,0.42847091175317764,0.21203341578766702,0.08870039304234087
1772785607261685200,0.102685302734375,0.2821919707715511,0.21051683721225709,-0.009362049645092338
1772785607271701200,0.112701171875,0.23492577720582483,0.1123448880020529,0.013348233204428106
1772785607281718500,0.122718505859375,0.2244622508585453,0.03625537206660956,0.05540648286351934
1772785607291734500,0.132734619140625,0.3266583044856787,-0.026619126856327054,0.03374174527786672
1772785607301750500,0.14275048828125,0.41250528085827826,-0.04869363255295902,0.04023216674309223
1772785607311766300,0.152766357421875,0.48732992795705793,-0.035918212534114716,0.08385445084851234
1772785607321783600,0.162783447265625,0.4344096541523933,0.05959178745783865,0.12106505954703316
1772785607331799600,0.172799560546875,0.2822615288764238,0.0933208924498409,0.08505801795199514
1772785607341815600,0.182815673828125,0.07530746217966079,0.09490158577002585,0.03273837692160159
1772785607351831600,0.19283154296875,-0.034227848294377326,0.08541669519655407,-0.04401667198417708
1772785607361848300,0.202848388671875,-0.07115268058776855,0.07223758974764495,-0.06954354662438854
1772785607371864600,0.212864501953125,-0.06210778886675834,0.10058609767984598,-0.06910455241892487
1772785607381880600,0.222880615234375,-0.03072363956570625,0.08059625277016312,-0.055653534693457185
1772785607391896600,0.232896484375,-0.12958850294351576,0.015610058922879397,-0.02921542695984244
1772785607401913300,0.242913330078125,-0.18954057508111,0.03659607526306063,-0.05242675466667861
1772785607411929300,0.252929443359375,-0.15473872629106045,0.04094133792575449,-0.128281658128649
1772785607421945300,0.2629453125,-0.08924012594223021,-0.044639461791329084,-0.16336988611202685
1772785607431962400,0.27296240234375,-0.024808278042078018,-0.022446882672980426,-0.17713607073388993
1772785607441978400,0.282978271484375,0.005290507623553276,-0.016350611624494193,-0.20795363566074518
1772785607451994400,0.292994384765625,-0.009296236133575438,-0.0852083496754989,-0.2439919309105724
1772785607462010400,0.30301025390625,-0.013368600139021873,-0.08189959045369177,-0.24963623867416754
1772785607472027600,0.313027587890625,0.018649755412340163,-0.05748363619744777,-0.24358081109272314
1772785607482043400,0.32304345703125,0.11109832200706005,-0.06364142817482352,-0.17338780584996566
1772785607492059400,0.333059326171875,0.1389981363236904,-0.033745288941822944,-0.07161282717911527
1772785607502075400,0.343075439453125,0.13108838611245155,-0.033007476186566055,-0.07082562232417985
1772785607512092400,0.353092529296875,0.09111351859867572,-0.04800170476604253,-0.05416881256103515
1772785607522108700,0.363108642578125,0.06010580139458179,0.01582245956454426,-0.007497242153901606
1772785607532124400,0.37312451171875,0.044804187366366384,0.010455854497477412,-0.011926000115275382
1772785607542140400,0.383140380859375,0.020811317360401153,0.0037610695665702223,0.02450586102940142
1772785607552157400,0.393157470703125,0.05038227975964546,0.012987820660509169,0.03402138420315459
1772785607562173400,0.40317333984375,0.08457330317497253,-0.02313252684958279,0.024369174238760023
1772785607572189700,0.413189697265625,0.09507365440130233,-0.0869663723239675,0.0322807328145951
1772785607582205400,0.423205322265625,0.09908931978344916,-0.07269848525766283,0.0739557005108334
1772785607592222500,0.433222412109375,0.06882803703248501,-0.0346421647163108,0.07133848548345267
1772785607602238500,0.443238525390625,0.007919102561473846,-0.03451568879242986,0.06477306255325675
1772785607612254500,0.45325439453125,-0.014030863440036774,-0.030942543013393876,0.020175010484550147
1772785607622270500,0.4632705078125,-0.0034556934118270873,-0.033035898563452064,0.003408529801853001
1772785607632287500,0.47328759765625,-0.0022784663259983063,-0.07216163843460381,-0.026153171578701583
1772785607642303500,0.483303466796875,0.0288175136834383,-0.09560520399473607,-0.07075518743647262
1772785607652319500,0.493319580078125,0.1741378387659788,-0.12995167370010166,-0.10859360917713493
1772785607662336300,0.503336181640625,0.34860885500907896,-0.17578480225540696,-0.0877980008425191
1772785607672352500,0.5133525390625,0.39283670379221436,-0.16981365542393176,-0.007790635609906166
1772785607682368500,0.523368408203125,0.2121317615956068,-0.1284566493693739,0.012558927723951637
1772785607692384500,0.533384521484375,-0.0037251580029726027,-0.008492335872165859,0.03970978683680296
1772785607702401300,0.5434013671875,-0.21165362268984317,0.06446553097404539,0.046986901700310404
1772785607712417300,0.553417236328125,-0.2695744812607765,0.0817998198736459,0.0009396554702892899
1772785607722433500,0.56343359375,-0.18214461961090564,0.019160956337489186,-0.06481273697651922
1772785607732449500,0.573449462890625,-0.06634089639186859,-0.06668945410121233,-0.05140581412110477
1772785607742466600,0.583466552734375,0.07969254539608955,-0.09884283420909196,-0.02460077277123928
1772785607752482300,0.593482421875,0.12092355045080184,-0.08109718802962451,-0.08118545083496718
1772785607762498300,0.603498291015625,0.0938461584329605,-0.07198960633594542,-0.08742704863827674
1772785607772514300,0.613514404296875,0.08637129250764847,-0.009948562562465667,-0.07915295862667263
1772785607782531600,0.623531494140625,-0.06725158149600029,0.009123363784700632,-0.17485110160186887
1772785607792547600,0.633547607421875,-0.22759353462159632,0.11141144307684153,-0.13549427465489133
1772785607802563300,0.643563232421875,-0.26486323482990265,0.14883911032583563,0.07562544208765029
1772785607812579300,0.653579345703125,-0.01133095683157444,0.07514160409346222,0.014324640488531439
1772785607822596600,0.6635966796875,0.26410861707031724,-0.1234467853181064,-0.04406564395874738
1772785607832612600,0.673612548828125,0.28501345793306826,-0.22623488655425608,-0.0006061491996049881
1772785607842628400,0.68362841796875,0.3087567370921373,-0.11565744661614298,0.0041025947469286615
1772785607852644400,0.693644287109375,0.3983212726831436,-0.052277226660773154,0.0040563079197891054
1772785607862661400,0.703661376953125,0.44865269903838634,0.00894924932681024,0.03229664276978001
1772785607872677600,0.713677734375,0.31705577888190745,0.07233659314271063,0.00762337101791054
1772785607882693600,0.723693603515625,0.06347790817618369,0.14129640332870186,0.014956709580682218
1772785607892709400,0.73370947265625,-0.11221358977258204,0.13409790665935725,-0.010579042485728858
1772785607902726400,0.743726318359375,-0.156897365629673,0.06834387024473398,-0.026853702797181904
1772785607912742400,0.753742431640625,-0.002967617633938789,-0.03305558964461088,-0.016460574804991482
1772785607922758400,0.76375830078125,0.11967734978199004,-0.0651865752575919,-0.044029951590858395
1772785607932774700,0.773774658203125,0.20962708529829976,-0.08811948788184672,-0.05857678346270695
1772785607942791400,0.78379150390625,0.2218523606210947,-0.07082721149306744,-0.07062262883167714
1772785607952807400,0.793807373046875,0.2147141793042421,-0.06192004774231463,-0.08761184888696298
1772785607962823400,0.803823486328125,0.16008710158169268,-0.04575454689376056,-0.05279187991833314
1772785607972839400,0.81383935546875,0.06906886005103588,-0.03854940128792077,-0.021400625023059547
1772785607982856400,0.8238564453125,-0.04392506644427776,-0.03886383753195405,-0.00639167379848659
1772785607992872400,0.83387255859375,-0.1765735414803028,0.014076784940995275,0.009724836809188127
1772785608002888400,0.843888427734375,-0.22095979569554328,0.02651789497155696,0.022799751231260598
1772785608012904400,0.853904541015625,-0.2135521497875452,0.002395662964880466,0.056895351448096335
1772785608022921500,0.86392138671875,-0.0426338575899601,-0.03699373281113803,0.022529720384534446
1772785608032937500,0.8739375,0.13786650194525718,-0.08441767422184347,0.030918504550680518
1772785608042953500,0.883953369140625,0.1863204439908266,-0.07967712863124907,-0.02180800024755299
1772785608052969500,0.893969482421875,0.20847733074128627,-0.05627597744073719,-0.13189294396098702
1772785608062986500,0.903986572265625,0.21122867527604103,-0.05554711517691612,-0.15616934361606835
1772785608073002200,0.914002197265625,0.081485858553648,-0.05651384131722152,-0.18150458640800787
1772785608083018500,0.9240185546875,-0.027616905722022054,-0.02162047831881791,-0.21479623156450686
1772785608093035500,0.934035400390625,-0.07830372138619422,-0.03424381304848939,-0.19940319465948267
1772785608103051500,0.944051513671875,-0.11964403203427791,-0.04582991368491202,-0.23358157778894528
1772785608113067300,0.9540673828125,-0.08236673304140567,-0.044531434839591384,-0.21952819198984652
1772785608123083300,0.964083251953125,0.040972061857581135,-0.0625861469682306,-0.15565087269991634
1772785608133100500,0.9741005859375,0.12717208945155142,-0.06376366631500423,-0.12737924766251815
1772785608143116500,0.984116455078125,0.22738836743831634,-0.06474438444804399,-0.0799922772613354
1772785608153132500,0.994132568359375,0.21712357853353023,-0.09208850111067295,-0.03610211773365736
1772785608163148300,1.004148193359375,0.1361930157750845,-0.02163768518194556,-0.010976152044534683
1772785608173164300,1.014164306640625,0.08098492329418659,-0.008761471669748425,0.004000431280396878
1772785608183181600,1.024181640625,-0.050806058129668236,0.054756220527552066,0.03330357305631041
1772785608193197600,1.034197509765625,-0.12759352973401547,0.10254841072876006,0.07359013686776161
1772785608203213600,1.044213623046875,-0.17491525287926196,0.0900468026826158,0.07438092191927134
1772785608213230300,1.054230224609375,-0.11871522675156593,0.0418089510731399,0.03208787712361663
1772785608223246300,1.064246337890625,0.03627192134261131,-0.013507460620440542,-0.0009517112342640757
1772785608233262600,1.0742626953125,0.21543080314099788,-0.05642177911959588,-0.011716741278767585
1772785608243278600,1.084278564453125,0.29688159038126466,-0.05719743966720998,-0.026654709626361725
1772785608253295400,1.09429541015625,0.3126221803486347,-0.06314765330851077,-0.0903572568712756
1772785608263311400,1.104311279296875,0.2655295897841453,-0.06653704001847655,-0.09240191444139927
1772785608273327400,1.114327392578125,0.16824001289904117,-0.020276333700865505,-0.0728947384821251
1772785608283343600,1.124343505859375,0.1403618258923292,0.0031501711266115305,-0.07888977764584124
1772785608293360400,1.1343603515625,0.08012392255067825,0.013810571752861142,-0.053932190793566405
1772785608303376400,1.14437646484375,0.03644961599707603,0.04418273099977523,-0.028766258420236408
1772785608313392400,1.154392333984375,-0.05153437240421772,0.02905366052687168,-0.05957827038913965
1772785608323408400,1.164408447265625,-0.044949733316898347,-0.018380948408320545,-0.14008465291876346
1772785608333425400,1.17442529296875,0.012250994285941123,-0.05440214639287442,-0.11515515964981168
1772785608343441400,1.18444140625,-0.034331308668851854,-0.03366681687813252,-0.09752627171780913
1772785608353457400,1.19445751953125,-0.04493044409453869,-0.041773185640014705,-0.12856632028892637
1772785608363473400,1.204473388671875,-0.0075718965590000145,-0.083872351831384,-0.15817834535092115
1772785608373490400,1.214490478515625,0.05194938294589519,-0.0647626142244786,-0.16603921491913495
1772785608383506400,1.22450634765625,0.12881751857101917,-0.0750705116186291,-0.15897552361059933
1772785608393522400,1.2345224609375,0.13081775247752667,-0.06473616460897028,-0.10816836950238794
1772785608403538400,1.244538330078125,0.009063011899590492,-0.03609627251476049,-0.09215261585544794
1772785608413555500,1.254555419921875,-0.24708967773020266,-0.018830555339343844,-0.0877258123891428
1772785608423571500,1.264571533203125,-0.3879331496596336,0.010508424934931098,-0.06637728287950158
1772785608433587500,1.27458740234375,-0.28923195241093635,0.011400332273356616,-0.04487217456866056
1772785608443603500,1.284603515625,0.00128010293841362,-0.016718750817142428,0.008511259768344461
1772785608453619500,1.294619384765625,0.2558013919740915,-0.06359097662921995,0.038877098872326314
1772785608463636500,1.304636474609375,0.3669382924258709,-0.07308664432503283,0.021407310492172836
1772785608473652500,1.314652587890625,0.337681802803278,-0.08559420718792825,-0.0014298866726458071
1772785608483668500,1.32466845703125,0.15016016632914542,-0.06570997807718813,-0.03684665249064564
1772785608493684500,1.3346845703125,-0.01971300072968006,0.020087898456677793,0.0009444412432610988
1772785608503701500,1.344701416015625,-0.06232113935649394,0.050088192183896894,0.01531297567244619
1772785608513717500,1.354717529296875,0.021271336087584494,0.01675900976229459,0.04281520550623536
1772785608523733500,1.3647333984375,0.1154658695667982,-0.02168229150865227,0.03744081899151206
1772785608533749200,1.374749267578125,0.11996844168305397,-0.05180544443055987,0.0384341408777982
1772785608543766500,1.3847666015625,0.044404958915710446,-0.041252120907977224,-0.0038308103345334526
1772785608553782500,1.394782470703125,-0.013037176227569579,-0.033627361650578676,-0.005120594416745007
1772785608563798500,1.404798583984375,0.034900048467516896,-0.01853785600308329,0.009334814578294753
1772785608573814300,1.414814208984375,0.0907879399061203,0.00005885404776781797,0.014911189938522874
1772785608583831600,1.42483154296875,0.02742109088897705,0.009813611071184277,-0.024453327124565837
1772785608593847600,1.43484765625,0.05190320571660995,0.0021570319034159183,-0.07556954718194901
1772785608603863600,1.444863525390625,0.02807107923030853,0.017589688432775436,-0.0881578836634755
1772785608613879600,1.454879638671875,-0.021197101807594296,0.023292357053793965,-0.12344327818676828
1772785608623896300,1.464896240234375,0.07662848165035248,0.04835698447711766,-0.1663290281785652
1772785608633912600,1.47491259765625,0.2180915467828512,-0.019299268829636274,-0.19837452746517956
1772785608643928600,1.484928466796875,0.3136316496521234,-0.07534998614713549,-0.19858261725790796
1772785608653944600,1.494944580078125,0.28589082528948784,-0.030324886039085685,-0.15853227335512637
1772785608663961300,1.50496142578125,0.19673954667448995,-0.030796302943117915,-0.12485281619112938
1772785608673977300,1.514977294921875,0.03783785548508167,-0.05165525883752852,-0.12068725747689604
1772785608683993300,1.524993408203125,-0.053107905331254,-0.07088409277945756,-0.09966759459543972
1772785608694009600,1.535009521484375,-0.07816109804511069,-0.09885372092928736,-0.10006729797013103
1772785608704026400,1.5450263671875,-0.06620178018212318,-0.11423530485853552,-0.08535254391916096
1772785608714042400,1.55504248046875,0.0017640870630741118,-0.1234588776146993,-0.06593987784292549
1772785608724058400,1.565058349609375,0.04476034822463989,-0.1097059908658266,-0.05985759878717362
1772785608734074400,1.575074462890625,0.0962730933189392,-0.08691204832084476,-0.035620983153209086
1772785608744091400,1.58509130859375,0.07252630702853202,-0.07351882519721985,0.016066205192543564
1772785608754107400,1.595107421875,0.044914662003517146,-0.033306532198376954,0.054979763617739076
1772785608764123400,1.605123291015625,0.030803134542703628,-0.03504044331889599,0.10319354023188353
1772785608774139400,1.615139404296875,-0.07675123124718666,-0.06081289021801203,0.07673902935273945
1772785608784156700,1.62515673828125,-0.11612696382403373,-0.05731112917475402,0.0017631372150033711
1772785608794172400,1.63517236328125,-0.06459259141981602,-0.03963566215466708,-0.034275596426241096
1772785608804188400,1.6451884765625,0.03590425707399845,-0.024508856704086063,-0.07696436254121362
1772785608814204400,1.655204345703125,0.1875315733462572,-0.05264280857015401,-0.11055972161833197
1772785608824221400,1.665221435546875,0.26827275101244447,-0.05840714425053447,-0.08286134815793483
1772785608834237400,1.675237548828125,0.20419979955255985,-0.009826762813702225,-0.10201777445077896
1772785608844253400,1.68525341796875,0.11462591161131858,-0.00502239473927766,-0.09590696342028678
1772785608854269400,1.69526953125,0.01741758326888084,0.018943696857616304,-0.07134228487573564
1772785608864286500,1.705286376953125,-0.03874327989220619,0.008755078461579979,-0.059810654372908174
1772785608874302500,1.715302490234375,-0.038278584989905357,-0.02122979850079864,-0.08177307799719273
1772785608884318500,1.725318359375,0.015628946286439894,-0.040315972569026054,-0.1004923915144056
1772785608894334500,1.73533447265625,0.0944914705991745,-0.06390829895008356,-0.12134089908003806
1772785608904351500,1.7453515625,0.15218845728635788,-0.06251384891699999,-0.1457192978048697
1772785608914367500,1.755367431640625,0.21547055062949655,-0.07607325892038642,-0.12888272929433733
1772785608924383500,1.765383544921875,0.25501462551057336,-0.061851147224567825,-0.08140453694574534
1772785608934399500,1.7753994140625,0.1409808345735073,-0.019304821787588296,-0.046617082007229325
1772785608944416500,1.78541650390625,0.027709260180592537,0.00671699676271528,-0.04814209961742162
1772785608954432500,1.7954326171875,-0.11330255405306816,0.02317600066512823,-0.035977687636390324
1772785608964448500,1.805448486328125,-0.20900106235444543,0.04082140134051442,0.007256364336423575
1772785608974464500,1.815464599609375,-0.16894202368855477,0.043454708986170584,0.02399758271370083
1772785608984481800,1.825481689453125,-0.07892389911115169,0.02839099536705762,0.015004676908254622
1772785608994497800,1.835497802734375,0.044341830551624294,-0.016868424953520297,-0.023323080985620616
1772785609004513800,1.845513671875,0.18298048591315746,-0.039158144303411246,-0.048343942332454024
1772785609014529800,1.85552978515625,0.29202479799985886,-0.036197687062621116,-0.06304295082502066
1772785609024546800,1.865546875,0.33446108719110484,-0.03927037250623107,-0.09110884242355823
1772785609034562800,1.875562744140625,0.29651977133154866,-0.02818151733484119,-0.12375296519044786
1772785609044578800,1.885578857421875,0.14520868140161036,-0.010301759914308786,-0.10609649513177573
1772785609054594800,1.8955947265625,-0.09823007260560988,0.028860001118294894,-0.09327793009094894
1772785609064611600,1.905611572265625,-0.22987726164460182,0.03169968152362853,-0.10106445578131824
1772785609074627600,1.915627685546875,-0.26077333516776563,-0.016550993034802376,-0.1155239198969677
1772785609084643800,1.925643798828125,-0.14636895735263825,-0.036373555086180565,-0.14641166398320346
1772785609094659800,1.935659912109375,0.006225158125162124,-0.03502663398925215,-0.1968820969503373
1772785609104676600,1.945676513671875,0.2180044530212879,-0.06236421131324023,-0.22123696866910902
1772785609114692600,1.955692626953125,0.3857739257991314,-0.07857062869407236,-0.22427604410406202
1772785609124708600,1.96570849609375,0.44241117430031296,-0.09025233519207686,-0.1880068261751905
1772785609134724900,1.975724853515625,0.33674598325788974,-0.07625599507614969,-0.10940160109177231
1772785609144740900,1.985740966796875,0.15493921729922294,-0.021214564399048685,-0.013790186551958322
1772785609154757600,1.995757568359375,-0.07787468231916427,0.03409994759839028,0.038060923651233314
1772785609164773600,2.005773681640625,-0.20490181034207341,0.04219743893407285,0.05403462825473398
1772785609174789600,2.01578955078125,-0.17463994306921957,0.01265555649884045,0.061796786688826974
1772785609184805600,2.0258056640625,-0.026644261297583578,-0.0319222747657448,0.042004327514767646
1772785609194823000,2.035822998046875,0.08695055370032787,-0.0490614064194262,0.024071743928454816
1772785609204838700,2.045838623046875,0.06316577348709106,-0.07301792647037654,-0.01483534822333604
1772785609214854700,2.055854736328125,0.019309680625796317,-0.06560881925765424,-0.08899729362968355
1772785609224870700,2.06587060546875,0.05342646976113319,-0.055854939017072315,-0.0958106269063428
1772785609234888000,2.075887939453125,0.09770751003623009,-0.06346537748817355,-0.09439144429080187
1772785609244903700,2.085903564453125,0.11293079813122749,-0.06918298794999718,-0.080569876219891
1772785609254919700,2.095919677734375,0.11195932275056839,-0.07623988419156522,-0.09414104972630738
1772785609264935700,2.105935791015625,0.08373334521949291,-0.059769007188268004,-0.07875844288375228
1772785609274952700,2.11595263671875,0.07778992664515971,-0.06555500671118497,-0.0583735707744956
1772785609284969000,2.125968994140625,-0.012817395997047424,-0.03074132135286927,-0.020482341134361922
1772785609294984700,2.135984619140625,-0.12324585591852665,0.03378689959384501,-0.04575001684911549
1772785609305000700,2.146000732421875,-0.117465518951416,0.04282857644446194,-0.05789871980436146
1772785609315017700,2.156017822265625,-0.04304185386896133,0.018850830942392347,-0.04665723135452717
1772785609325033700,2.16603369140625,0.019600772526860235,0.01895622754562646,-0.037560244120098646
1772785609335049700,2.1760498046875,0.10274199707210063,-0.03032411885410547,-0.03789904762040824
1772785609345065700,2.186065673828125,0.16099895572960377,-0.05689458426311612,-0.053360820646397765
1772785609355082800,2.196082763671875,0.2056961755901575,-0.04996756147891283,-0.08452756433710455
1772785609365098800,2.2060986328125,0.22184476183652876,-0.0775602826077491,-0.08886278052981943
1772785609375114800,2.21611474609375,0.20601707810759542,-0.08199676721785217,-0.04643843750469386
1772785609385130800,2.226130859375,0.11759586733281611,-0.04252396747469902,0.0010497282486408948
1772785609395147800,2.236147705078125,-0.04826923312842846,-0.004063486579246819,-0.0059198550356552
1772785609405163800,2.246163818359375,-0.10164952566027641,0.0010253975249826907,-0.04386752757076174
1772785609415179800,2.2561796875,-0.1394996561050415,-0.035462577721104026,-0.07924746850971132
1772785609425195800,2.26619580078125,-0.024821137523651123,-0.06914517669025808,-0.1190208586346358
1772785609435212800,2.276212890625,0.08459902213811873,-0.10130012770071625,-0.10527023690808564
1772785609445228800,2.286228759765625,0.15592296763956545,-0.08350903494432568,-0.10014920409992337
1772785609455244800,2.296244873046875,0.17222411409914493,-0.0681049103897065,-0.10455280935373157
1772785609465260800,2.3062607421875,0.17107728215157986,-0.050545215236395595,-0.06867511149309576
1772785609475277600,2.316277587890625,0.15175006586909293,-0.0015404343750327824,0.019735577887669206
1772785609485293600,2.32629345703125,0.13103051844537258,0.003141805157065391,0.06101250444334
1772785609495309800,2.336309814453125,0.10980945124030113,0.009002148557826876,0.06930595674254
1772785609505325800,2.346325927734375,0.06015431671142578,0.014560732533037662,0.0708026615737006
1772785609515342600,2.356342529296875,0.020693243938684464,-0.00033288521617650985,0.04863561875540763
1772785609525358600,2.366358642578125,-0.001679331389069557,0.011661723155900834,0.03432283310145139
1772785609535374600,2.37637451171875,0.04659633148014545,0.01499817410223186,-0.0030873715560883284
1772785609545390800,2.386390869140625,0.04741875377893447,0.01983195093423128,-0.0011280907144770025
1772785609555406800,2.39640673828125,0.04090016566514969,0.027748861538618802,-0.003945815016329288
1772785609565423600,2.406423583984375,-0.020971476358175277,0.05211480264067649,-0.013737031592614949
1772785609575439600,2.416439697265625,-0.04115618625283241,0.047128538660705085,-0.01608797863293439
1772785609585455600,2.42645556640625,-0.058822191324830055,0.014435717913880944,-0.0066421779608353965
1772785609595472000,2.436471923828125,-0.01548573842346668,-0.005097907660901546,-0.07297408732865006
1772785609605489000,2.446489013671875,0.006806757405400276,-0.033515900632739064,-0.12129037446919828
1772785609615504600,2.456504638671875,0.046048634469509124,-0.03075564213916659,-0.1259134676925838
1772785609625520600,2.466520751953125,0.053881227791309355,-0.011303411237522959,-0.11921963260974734
1772785609635536600,2.47653662109375,-0.00008124854266643523,-0.0015693682085722684,-0.11447795450799167
1772785609645554000,2.486553955078125,-0.024709493842720982,0.03917085765451193,-0.11987374913692474
1772785609655569700,2.496569580078125,0.06616846243441105,0.024183862533420322,-0.10800426498185843
1772785609665585700,2.506585693359375,0.1459095231473446,-0.028142975422739983,-0.06990728363655507
1772785609675601700,2.5166015625,0.20697861661612987,-0.03316431071609258,-0.03690313191823661
1772785609685618700,2.52661865234375,0.22723872983455656,-0.026509017545357345,-0.02317567187156528
1772785609695635000,2.536635009765625,0.1794762771844864,-0.027244126886874435,-0.011019516262225805
1772785609705650700,2.546650634765625,0.08423544952273368,-0.014434475804865359,0.014661051102355122
1772785609715666700,2.556666748046875,-0.027145196557044983,-0.004837576224282384,0.016968012870475647
1772785609725683700,2.56668359375,-0.03295885127186775,-0.05173435195572674,-0.003605879004858434
1772785609735699700,2.57669970703125,0.025308628779649733,-0.09540880463980138,-0.007319602298364042
1772785609745716000,2.586716064453125,0.060086512172222134,-0.10776150573454797,0.004853906304575503
1772785609755731700,2.596731689453125,0.09361410324275493,-0.08848755400925874,0.0003739844115450978
1772785609765748700,2.606748779296875,0.14713935720324514,-0.06982596202865242,-0.005176635452918708
1772785609775764700,2.6167646484375,0.1646709222406149,-0.08195822530575096,0.0033854777198284863
1772785609785780700,2.62678076171875,0.13049684996008873,-0.07339315299093722,0.03817855868153274
1772785609795796700,2.636796630859375,0.05859247422218322,-0.0236348503485322,0.05821458082050085
1772785609805812700,2.646812744140625,-0.013010288220643996,-0.02150909036621451,0.051963594134338195
1772785609815829800,2.656829833984375,-0.054359951218962664,-0.007079729127883911,0.03803487589452415
1772785609825845800,2.666845703125,-0.011126374170184136,-0.024382746106386185,0.03182813020888716
1772785609835861800,2.67686181640625,-0.020364158114790917,-0.027676307759061453,-0.03347352279573679
1772785609845877800,2.686877685546875,-0.042733226311206816,-0.04277735771387815,-0.06512008589264005
1772785609855894800,2.696894775390625,0.028569676402211187,-0.08627813433147967,-0.11478212508633732
1772785609865910800,2.706910888671875,0.18404431575238703,-0.08738543798625469,-0.12329513842035084
1772785609875926800,2.7169267578125,0.31824937258064745,-0.052925096110254526,-0.08617383370678872
1772785609885942800,2.72694287109375,0.24950375313460826,-0.05908354567475617,-0.040645423719100654
1772785609895959800,2.736959716796875,0.16095628563165665,0.0007993336841464042,-0.03249653098974377
1772785609905975800,2.746975830078125,0.04919686936736106,0.043633682282269,0.007477715469524264
1772785609915991800,2.75699169921875,-0.10801146190762519,-0.016520561363920567,0.031118739830516277
1772785609926007800,2.7670078125,-0.15704349610209464,0.011081877441331744,-0.03480002215914428
1772785609936024600,2.777024658203125,-0.12537176203131675,0.04638166581615805,-0.06229512813240289
1772785609946040600,2.78704052734375,0.025536007794737813,0.03809906370453536,-0.1134810889577493
1772785609956056800,2.797056884765625,0.15760171450674532,0.031267098792642355,-0.13725414220057428
1772785609966072800,2.80707275390625,0.20468787533044813,0.02670826644450426,-0.14577818838525564
1772785609976089600,2.817089599609375,0.15536241114735602,-0.003329071357473731,-0.15027754563111811
1772785609986105300,2.827105224609375,0.068994041249156,-0.0027944530241191387,-0.13497103623207657
1772785609996121300,2.837121337890625,-0.01807517039477825,0.09534450723193585,-0.10822978083342313
1772785610006137600,2.8471376953125,-0.1364320852279663,0.12186923380307853,-0.00938332989513874
1772785610016154600,2.857154541015625,-0.20264438680410385,0.12075484282039105,-0.0017161197355017065
1772785610026170400,2.86717041015625,-0.12406710917353629,0.12113441672250627,-0.033118900671787556
1772785610036186400,2.877186279296875,0.015876783567667006,0.07162680090554058,-0.012699651368893682
1772785610046202400,2.887202392578125,0.11975742928087711,0.0681670889057219,-0.03578384556472301
1772785610056218400,2.89721826171875,0.17419745999872682,0.05673676335290074,-0.05708400588799268
1772785610066235600,2.907235595703125,0.12665303401350975,0.024868702992424368,-0.06153678404577076
1772785610076251400,2.91725146484375,0.09237725492417811,-0.002059270617365837,-0.10769348199963569
1772785610086267400,2.927267333984375,0.0765273593634367,0.0360902811653912,-0.12356931571923195
1772785610096283400,2.937283447265625,0.0076233344852924345,0.0075617404911667106,-0.0915360183270648
1772785610106300700,2.94730078125,0.013588380369544028,-0.00017170330509543418,-0.09515070169288664
1772785610116316700,2.957316650390625,0.0176198278427124,-0.00888086026571691,-0.12362546635325998
1772785610126332400,2.96733251953125,0.004297404932975769,-0.06654241031333803,-0.15171864781752228
1772785610136348400,2.977348388671875,-0.09440437683761119,-0.05400821517184377,-0.17558358059488235
1772785610146365400,2.987365478515625,-0.15302549263238907,-0.035498379686847326,-0.19159743454568087
1772785610156381700,2.997381591796875,-0.10973346339464186,-0.03108319359309971,-0.19453885829243808
1772785610166397700,3.007397705078125,-0.015178864431381224,-0.023848493099212643,-0.18650891576763243
1772785610176413400,3.017413330078125,0.09523615148663521,-0.02448722939416766,-0.15101429894044993
1772785610186430500,3.027430419921875,0.1624789651542902,-0.027369141506031154,-0.13473262436632066
1772785610196446500,3.037446533203125,0.18230653217434883,-0.03619374153986573,-0.09050466598533094
1772785610206462500,3.04746240234375,0.12873627002835272,0.011504340637102723,-0.07385583859924226
1772785610216478500,3.057478515625,0.01351297704577446,0.01577149656228721,-0.034116862200573084
1772785610226494500,3.067494384765625,-0.06573182458281517,0.01796688771471381,-0.027101613143645224
1772785610236511500,3.077511474609375,-0.07304770055413246,0.014036270267516374,-0.020826514929533003
1772785610246527500,3.087527587890625,0.004223755174875259,-0.007593012412264942,-0.017632833454757926
1772785610256543500,3.09754345703125,0.1348772570014,-0.030312136155366896,-0.02361293077766895
1772785610266559500,3.1075595703125,0.24246610958278178,-0.05884922546222806,-0.031065950197353958
1772785610276576500,3.117576416015625,0.27759353706538675,-0.05266885632686317,-0.016809022916480898
1772785610286592500,3.127592529296875,0.21426585101485252,-0.02882927718646824,0.02022073105610907
1772785610296608500,3.1376083984375,0.1240887364834547,0.0020277795005589723,0.05082695478722453
1772785610306624500,3.14762451171875,0.014352350479364393,0.01315627256259322,0.05380761456582695
1772785610316641500,3.1576416015625,-0.07731471034884452,-0.018132964996621013,0.04614259636327624
1772785610326657500,3.167657470703125,-0.09299977073669433,-0.001223038988932967,0.0034076895516365765
1772785610336673500,3.177673583984375,-0.03034545390307903,-0.0022477789267897606,-0.045998438652232285
1772785610346689500,3.187689453125,0.07795593086183071,-0.013257540979981422,-0.06605802432987838
1772785610356706300,3.197706298828125,0.1628407842040062,-0.01551313788704574,-0.07620371689964085
1772785610366722600,3.20772265625,0.18610358636975288,-0.017997063657268882,-0.08493738724701105
1772785610376738600,3.217738525390625,0.1414595580011606,-0.03175765878856182,-0.04923442489877343
1772785610386754600,3.227754638671875,0.08195230702161789,-0.024165596224367616,-0.03176682847570628
1772785610396771300,3.237771240234375,0.051938277029991146,-0.01578757091425359,-0.02665156782120466
1772785610406787300,3.247787353515625,0.03094634240567684,-0.01631188704930246,-0.01749667638707906
1772785610416803600,3.257803466796875,0.013591302978992461,-0.004915756027027964,-0.007578326299786567
1772785610426819600,3.267819580078125,-0.01162497134208679,0.0052926995806396,-0.048014016258344054
1772785610436835600,3.277835693359375,0.017218845826387403,-0.005423486353456974,-0.053533510332182045
1772785610446852400,3.287852294921875,0.07811082916259765,-0.02526230541989207,-0.018188823369704187
1772785610456868400,3.297868408203125,0.09843699335455894,-0.018002543549984693,-0.0006762918263673782
1772785610466884600,3.307884521484375,0.15103344203233718,-0.015358385716751216,-0.0026045564752072096
1772785610476900600,3.317900634765625,0.1341010119318962,-0.04607961412966251,0.019718845948576928
1772785610486917400,3.32791748046875,0.08926993655860424,-0.012645619626715779,0.031087066050618884
1772785610496933400,3.337933349609375,0.12820552415251732,-0.01332403034493327,0.03298099003843963
1772785610506949400,3.347949462890625,0.15437106202244757,-0.01591974592655897,0.06287829831521957
1772785610516965400,3.35796533203125,0.12393383818268776,0.018751535286381838,0.055829512314870954
1772785610526982700,3.367982666015625,0.10784195055961608,0.004284910777583718,0.07440872324164956
1772785610536998400,3.377998291015625,0.03445522730946541,-0.0011436170771718024,0.0782873182406649
1772785610547014400,3.388014404296875,-0.05249707995653152,-0.0060651452578604215,0.02383760637901723
1772785610557030400,3.398030517578125,-0.06917056685984134,-0.006327668651565909,-0.0016230711571872233
1772785610567047700,3.408047607421875,-0.024564532414078712,-0.013688041351735592,-0.038404549457132814
1772785610577063700,3.418063720703125,0.04948854579031467,-0.08136931950189173,-0.04079838579110801
1772785610587079400,3.428079345703125,0.1599906554698944,-0.0480129933450371,-0.05748780091591179
1772785610597095400,3.438095458984375,0.17236732196211813,-0.03299925634749234,-0.08721910497602074
1772785610607111400,3.448111328125,0.12507657847702502,-0.07814991906397044,-0.07174414367489516
1772785610617128700,3.458128662109375,0.04212240093648433,-0.03495017121955752,-0.10544230553936212
1772785610627144400,3.46814453125,-0.06448620843589306,-0.01921075029596686,-0.13649919564742594
1772785610637160400,3.478160400390625,-0.13251812665462492,-0.02561265322752297,-0.11183511184900999
1772785610647176400,3.488176513671875,-0.18298223947882652,0.06287877323925495,-0.10306092682816087
1772785610657193500,3.498193359375,-0.11594576203823088,0.040197935679927466,-0.057745721199736
1772785610667209500,3.50820947265625,0.04800210662484169,-0.004661562070250511,-0.024083361301012334
1772785610677225500,3.5182255859375,0.1840419776648283,-0.04838372635357081,-0.024530885872803627
1772785610687241500,3.528241455078125,0.2003939775288105,-0.07193060615770519,-0.037810127227939666
1772785610697258500,3.538258544921875,0.14392097967863082,-0.09712919869162141,-0.047844249182008206
1772785610707274500,3.5482744140625,0.04601999289691448,-0.06056793901361525,-0.06496474920045583
1772785610717290500,3.55829052734375,-0.04431318897902965,-0.022303017222881315,-0.07047142032533883
1772785610727306500,3.568306396484375,-0.08063888633549213,-0.003970511066168547,-0.06341982131339609
1772785610737323500,3.578323486328125,-0.04711947857141494,-0.010434957839921117,-0.050267202012613414
1772785610747339500,3.588339599609375,0.024452888733148572,-0.05061579625457525,-0.05656202784050256
1772785610757355500,3.59835546875,0.06816460468769073,-0.06738697137869894,-0.06896174641475081
1772785610767371500,3.60837158203125,0.10028700513541698,-0.08307802311591804,-0.09498762008566408
1772785610777387300,3.61838720703125,0.10211422056257724,-0.08344729481972754,-0.11778989206757395
1772785610787404500,3.628404541015625,0.09326923532783984,-0.05197985114939511,-0.13630400186888872
1772785610797420500,3.638420654296875,0.10144728108644485,-0.03390658045075834,-0.05486589144710451
1772785610807436500,3.6484365234375,0.05035539175271988,-0.014187223045527934,0.005061009716615081
1772785610817452500,3.65845263671875,0.012922025415301323,-0.006992854562029242,0.013261230774410068
1772785610827469600,3.668469482421875,-0.00844224965274334,-0.027697569742798803,0.012829670956730842
1772785610837485600,3.678485595703125,-0.03005143939256668,-0.02976911531984806,-0.011278130665794014
1772785610847501600,3.68850146484375,0.007049333989620208,-0.013401406430080533,-0.013095957210101187
1772785610857517600,3.698517578125,0.08380582593381404,-0.01084543833695352,-0.02572400464750826
1772785610867534300,3.708534423828125,0.1845557724058628,-0.04714132507704198,-0.010214081630855798
1772785610877550600,3.718550537109375,0.20616437762379644,-0.05569989458583295,-0.023548414174094794
1772785610887566600,3.728566650390625,0.1685527321100235,-0.05421433220319449,-0.016724815231747923
1772785610897582600,3.73858251953125,0.10366787974536418,-0.041353827716782685,-0.023298202272690832
1772785610907599400,3.748599365234375,0.002887538135051727,-0.021335268169268964,-0.0020364742636680604
1772785610917615400,3.758615478515625,-0.06893266645073891,0.026618761530146,0.011298515866696834
1772785610927631400,3.76863134765625,-0.08765139544606208,0.022114801174402236,0.00480170119330287
1772785610937647600,3.778647705078125,-0.04611117831170559,-0.015070874012261629,-0.02483206077646464
1772785610947663600,3.78866357421875,0.09690963765680789,-0.06243592484258115,-0.0777121121685952
1772785610957680400,3.798680419921875,0.20150924529433248,-0.07177731529213488,-0.10476115487478672
1772785610967696400,3.8086962890625,0.1980488757073879,-0.06064100424982607,-0.10863690032958984
1772785610977712400,3.81871240234375,0.15079086544811723,-0.03667567983791232,-0.0911187792956829
1772785610987728600,3.828728759765625,0.08972177197933197,-0.021823709273338317,-0.08080737477019428
1772785610997745400,3.838745361328125,-0.007874678897857666,-0.005786839773133397,-0.04100300498511642
1772785611007761400,3.848761474609375,-0.05440846653580665,-0.0028436259280890225,-0.027515162380598483
1772785611017777700,3.858777587890625,-0.08227320953905581,-0.004448649971932173,-0.0034223391314968463
1772785611027793700,3.868793701171875,-0.11488894646167755,0.01781133182682097,0.03134487673658878
1772785611037810700,3.878810791015625,-0.09898235227763652,0.024490078938379883,0.016860314712300897
1772785611047826400,3.888826416015625,0.009223170897364616,0.007754267388582229,-0.02409790128301829
1772785611057842400,3.898842529296875,0.08946692043542862,-0.0235281751036644,-0.03663384999018162
1772785611067858700,3.908858642578125,0.12099836925268173,-0.023119155911356208,-0.06928261239957063
1772785611077874700,3.918874755859375,0.11193126569986343,-0.01683145394399762,-0.1320026879457757
1772785611087891500,3.928891357421875,0.07291618312895297,-0.03533800149336457,-0.15005765580274164
1772785611097907500,3.938907470703125,0.05319441457092762,-0.03280066503547132,-0.11858951801266521
1772785611107923500,3.94892333984375,0.0982645593971014,-0.006147270583361387,-0.09201949099507183
1772785611117939500,3.958939453125,0.1151741931438446,0.008046089942008257,-0.05909578410182148
1772785611127956700,3.968956787109375,0.10914484985172748,0.0349959100574255,-0.05401493717357516
1772785611137972500,3.978972412109375,0.09511281736791133,0.034181451869383456,-0.04497431976888328
1772785611147988500,3.988988525390625,0.08940729920268058,0.00720576666034758,-0.03836761498022824
1772785611158004500,3.99900439453125,0.0789934572160244,0.03217508048303425,-0.008597440214455127
1772785611168021800,4.009021728515625,0.026961656683683395,0.045249154654890295,-0.007942921828478574
1772785611178037800,4.019037841796875,-0.041783962762355804,0.0609801000110805,0.009307597777806221
1772785611188053500,4.029053466796875,-0.08510229548513888,0.0636979806676507,0.03205028505958617
1772785611198069500,4.039069580078125,-0.040132103902101514,0.06445384053625167,0.02410166414268315
1772785611208085500,4.04908544921875,0.08554419403374194,0.056621101083979004,0.007955562114343047
1772785611218102800,4.059102783203125,0.14296002569198607,0.024049860890209673,-0.02618964939787984
1772785611228118800,4.069118896484375,0.1637853715777397,0.005708440774679184,-0.06635905310306697
1772785611238134500,4.079134521484375,0.19258476508259773,-0.012594400896131992,-0.09719240012094378
1772785611248150500,4.089150634765625,0.18805062878429887,-0.020243162083625792,-0.11165445805247873
1772785611258167600,4.09916748046875,0.11189970151782035,-0.024522008446604012,-0.08206416989825666
1772785611268183600,4.10918359375,-0.009583236381411552,0.02606215056069195,-0.09396598542034626
1772785611278199600,4.119199462890625,-0.03612169921696186,0.04479673471227288,-0.10289375356771051
1772785611288215600,4.129215576171875,-0.0024584990680217743,0.011676628464087842,-0.10143993803020566
1772785611298232600,4.139232666015625,0.018197919991612434,0.009218786983191967,-0.08541172676049172
1772785611308248600,4.14924853515625,0.0895545987188816,-0.028603213345631956,-0.0655693640301004
1772785611318264600,4.1592646484375,0.15260522139370442,-0.035302710984274746,-0.053056321274489164
1772785611328280600,4.169280517578125,0.1752794100165367,-0.043311245394870634,-0.04759085894282907
1772785611338296600,4.179296630859375,0.11573416511416434,-0.02241612220853567,-0.03612180881481618
1772785611348313600,4.189313720703125,0.0890928264260292,0.019598872830718754,-0.03446841558460146
1772785611358329600,4.19932958984375,0.1095493389993906,0.014742445775493978,-0.0027240546690300107
1772785611368345600,4.209345703125,0.07177285831272602,0.02206445922665298,0.03761990188546478
1772785611378361300,4.219361328125,-0.05859072065651416,0.07110694174990058,0.035795682132989164
1772785611388378600,4.229378662109375,-0.08620236568152904,0.046885012228414416,-0.03140069857705384
1772785611398394600,4.23939453125,0.020372925943136215,-0.005928878592327237,-0.04864131784383207
1772785611408410600,4.24941064453125,0.022703999239206313,-0.006368146792426705,-0.009958609032444655
1772785611418426600,4.259426513671875,0.006205284380912781,-0.01635287664681673,-0.03874667742568999
1772785611428443600,4.269443603515625,-0.03177285635769367,-0.025693974835425615,-0.05645966344457119
1772785611438459600,4.279459716796875,-0.02073825212419033,-0.006807049666345119,-0.04884005528632551
1772785611448475600,4.2894755859375,0.018632219755649566,-0.010342749511823058,-0.04354870741255581
1772785611458491600,4.29949169921875,0.06280044730603694,-0.01355206694714725,-0.06579308978337794
1772785611468507600,4.309507568359375,0.09989888260066508,-0.016871859019622206,-0.07376403212994337
1772785611478524700,4.319524658203125,0.12451368389725684,0.0051817865520715715,-0.09579908259902149
1772785611488540700,4.329540771484375,0.14711188467442987,0.018903949369117618,-0.11360314443483949
1772785611498556700,4.339556640625,0.16573884373307227,-0.009806377612799405,-0.10855948771182447
1772785611508572700,4.34957275390625,0.14762918654680252,-0.02467171911559999,-0.09523746666088699
1772785611518589400,4.35958935546875,0.0820429079145193,-0.021191548849642274,-0.07323503981977701
1772785611528605400,4.36960546875,0.08319616960287093,-0.03612396423928439,-0.04819346447847783
1772785611538621700,4.37962158203125,0.0779039084136486,-0.03871303088441491,-0.02367982200141996
1772785611548637700,4.3896376953125,0.06616437078118324,-0.048264849214255806,-0.021108254480361938
1772785611558654500,4.399654541015625,0.02271978133022785,-0.0785932058520615,-0.006239186650514602
1772785611568670500,4.40967041015625,-0.006478840625286102,-0.05885477842018008,0.013154884323105215
1772785611578686500,4.4196865234375,0.032734979388117785,-0.06351590209901332,-0.01726904164366424
1772785611588702700,4.42970263671875,0.053100891068577766,-0.05411072569824755,-0.026450748019479213
1772785611598718700,4.43971875,0.0893108530908823,-0.044308805064857,0.015437259639240801
1772785611608735500,4.449735595703125,0.04709375960826873,-0.035871304652467365,-0.003013137276098132
1772785611618751500,4.45975146484375,0.004282791885733604,-0.029674349708482622,-0.028361111685447395
1772785611628767500,4.469767578125,0.008506547060608863,-0.04278831749930977,-0.03441237454842776
1772785611638783700,4.47978369140625,0.013842647391557692,-0.04673106377571821,-0.014493293320015073
1772785611648800500,4.489800537109375,0.01684533633887768,-0.04965272337608039,-0.009412300261296332
1772785611658816500,4.49981640625,0.043514147555828095,-0.04654752390235662,-0.028591486375220118
1772785611668832500,4.50983251953125,0.07809270898401736,-0.041912265317142004,-0.03162416860200465
1772785611678848500,4.5198486328125,0.10680150159597396,-0.0018808453105390072,-0.05046889859717339
1772785611688864500,4.529864501953125,0.09849369197785854,-0.016037454022094607,-0.0684587287960574
1772785611698881500,4.539881591796875,0.08054770092070102,-0.022360446498543022,-0.09152158794291317
1772785611708897500,4.5498974609375,0.08056056040227413,-0.03529759641773998,-0.08124054202307016
1772785611718913500,4.55991357421875,0.07963760033845901,-0.04088993653208017,-0.0524645293937996
1772785611728929500,4.569929443359375,0.08867781588435172,-0.03037453386709094,-0.05374152705967426
1772785611738946600,4.579946533203125,0.049208559805154796,-0.02440831893905997,-0.0616079495858401
1772785611748962600,4.589962646484375,0.021401099947094916,-0.01796330751813948,-0.02900817741733044
1772785611758978600,4.599978515625,-0.026247370934486387,-0.020159063996747134,-0.02005925688408315
1772785611768994600,4.60999462890625,-0.11984744565188885,0.04678155185393989,-0.05673468099366873
1772785611779011600,4.620011474609375,-0.09309212519526482,0.0741213942002505,-0.0830831742150709
1772785611789027600,4.630027587890625,-0.0014314941078424452,0.01681537959203124,-0.08111143575068563
1772785611799043600,4.640043701171875,0.1018850879818201,-0.023563392547518013,-0.08779960827771574
1772785611809059600,4.6500595703125,0.21316987247169017,-0.008204641504585742,-0.11028411954734474
1772785611819075600,4.66007568359375,0.2152075157791376,-0.030883725498244165,-0.11172401615735143
1772785611829092600,4.670092529296875,0.16129939998090267,-0.025113544598966836,-0.09152060156222433
1772785611839108400,4.6801083984375,0.05828735379576683,0.007426277543231844,-0.040358277340792115
1772785611849124600,4.69012451171875,-0.030001170510053632,0.024241145678609608,-0.007745134234055876
1772785611859140600,4.700140625,-0.06491290941536426,0.041771541672199965,-0.014348660684935748
1772785611869157600,4.71015771484375,-0.016689853516221046,0.06337992769442498,-0.00290065334495157
1772785611879173600,4.720173583984375,0.056982116416096684,0.0358167979862541,-0.046372642259486015
1772785611889189400,4.730189453125,0.10143091447353363,0.03683627722710371,-0.10663816426042466
1772785611899205600,4.74020556640625,0.14235563005805016,0.024032982820644973,-0.10605429995786397
1772785611909222700,4.75022265625,0.1745265458226204,0.00525806665867567,-0.11037198049388826
1772785611919238700,4.76023876953125,0.15171382551193235,0.016160495879873633,-0.08773640684839337
1772785611929254700,4.770254638671875,0.05273614940941333,0.04675670967362821,-0.07183171236049384
1772785611939270400,4.7802705078125,-0.0059247138738632195,0.01991020380221307,-0.0668850862711668
1772785611949286400,4.790286376953125,-0.015577508360147475,0.03301701119989157,-0.10137443504594265
1772785611959303700,4.8003037109375,-0.06223053846359253,0.0671112962424755,-0.10524404302090405
1772785611969319700,4.810319580078125,-0.033228900384902955,0.03147708828151226,-0.13389975373875349
1772785611979335400,4.82033544921875,0.04576981752812862,0.03230922825671732,-0.17065145795494316
1772785611989352200,4.830352294921875,0.10007482368946075,0.028938071323186158,-0.16475944077428428
1772785611999369200,4.840369140625,0.09313830242455005,0.042037499132007355,-0.16235840751454234
1772785612009385500,4.850385498046875,0.10367430948615074,0.04519201764017343,-0.19953586286213248
1772785612019401200,4.860401123046875,0.12480419127643108,0.020346476327627896,-0.20617237826716153
1772785612029417200,4.870417236328125,0.13318915778398513,-0.0018171324245631693,-0.18460757565833627
1772785612039433200,4.88043310546875,0.09813187292814254,-0.005315422869101166,-0.13026121457330883
1772785612049450200,4.8904501953125,0.03055295917391777,-0.007077756366506219,-0.10629019107297062
1772785612059466200,4.90046630859375,0.034168227061629294,-0.04400543820410967,-0.11316120935361831
1772785612069482200,4.910482177734375,0.026566519886255264,-0.07218962242007256,-0.058680371701344845
1772785612079498200,4.920498291015625,0.010031564670801163,-0.03764956637136638,0.04832253421824425
1772785612089515300,4.930515380859375,-0.024940964511036872,0.015303440659120678,0.07468991480320691
1772785612099531300,4.94053125,-0.06458090098202228,0.027466756661608815,0.06192545456979424
1772785612109547300,4.95054736328125,-0.025588614764809607,0.010054214894026517,0.04475910611562431
1772785612119563300,4.960563232421875,0.04530220001637936,-0.020674612303450704,0.04860734250899404
1772785612129579300,4.970579345703125,0.16790040568113326,-0.05215593836866319,0.0561100097566843
1772785612139596300,4.98059619140625,0.24889292775988578,-0.08781162750907241,0.067984827673994
1772785612149612300,4.9906123046875,0.20345102701187132,-0.04526727483347058,0.07925652859900147
1772785612159628000,5.0006279296875,0.03647825756967067,-0.002958557544648647,0.07153134117443113
1772785612169644300,5.010644287109375,-0.08727963952422141,-0.005721884778141975,0.05199643695801496
1772785612179661300,5.020661376953125,-0.14623802444934844,-0.028235549077019095,0.007756459345668554
1772785612189677300,5.03067724609375,-0.09732231011092662,-0.05228672514148056,-0.033748284616507584
1772785612199693300,5.040693359375,0.008361001110076904,-0.05237951799146831,-0.0684026877598837
1772785612209709000,5.050708984375,0.08841478103399276,-0.06646561875008046,-0.08394812048133463
1772785612219725000,5.06072509765625,0.1510235051602125,-0.049546559587866065,-0.11283537493273615
1772785612229742300,5.070742431640625,0.1746083788871765,-0.05768909564167261,-0.1401226833742112
1772785612239758300,5.08075830078125,0.1343365742534399,-0.06506773465089499,-0.12126323073394596
1772785612249774300,5.0907744140625,0.08368015372753143,-0.04570223218463361,-0.10456508431341499
1772785612259790000,5.1007900390625,0.04457096313238144,-0.019029767705872655,-0.11559022659882902
1772785612269807400,5.110807373046875,0.05413666385710239,-0.02390672609247267,-0.07326828450225294
1772785612279823400,5.1208232421875,0.0366647200524807,-0.001990662360563874,-0.06337842985708265
1772785612289839400,5.13083935546875,0.020429040044546126,0.01263780164644122,-0.0742956182559952
1772785612299855400,5.14085546875,0.04193418488800525,-0.01829078590683639,-0.09418751921653747
1772785612309871000,5.15087109375,0.046075522476434705,-0.04706014959961176,-0.10412603530902415
1772785612319888400,5.160888427734375,0.049881929022073744,-0.06532645865231752,-0.13157025134526193
1772785612329904400,5.170904296875,0.03795885151624679,-0.06629808016344904,-0.11359795680306851
1772785612339920400,5.18092041015625,0.02410042203366756,-0.05958966856598854,-0.12753737909998744
1772785612349936000,5.19093603515625,0.026439678636193273,-0.030303806718438863,-0.11595540664941072
1772785612359953200,5.200953125,0.04541618178486824,-0.026709727749228477,-0.06742467304058372
1772785612369969200,5.21096923828125,0.0564455253213644,-0.0414038774035871,-0.05348777149431407
1772785612379985400,5.2209853515625,0.04263035045862198,-0.03886091492250562,-0.028203583036176857
1772785612390001400,5.23100146484375,0.017020108383893964,-0.007322744103521108,-0.005760609353333711
1772785612400017200,5.24101708984375,0.009871990194916724,-0.00734422528296709,0.008151742273569107
1772785612410034200,5.2510341796875,0.02149286988377571,-0.02473046356551349,0.03593706336505711
1772785612420050200,5.26105029296875,0.019710078120231626,-0.015069193511828779,0.029618600933253764
1772785612430066400,5.27106640625,0.036057401809096334,-0.004644245609268546,-0.00805251968279481
1772785612440082400,5.28108251953125,0.06512392181754112,-0.02564808986708522,-0.03443140804246068
1772785612450099200,5.29109912109375,0.11031564719676971,-0.04302855599597096,-0.03181512459684163
1772785612460115200,5.301115234375,0.1271685823202133,-0.022324498402327298,-0.024142946001142262
1772785612470131200,5.311131103515625,0.12616086658239364,-0.027391499468311667,-0.007822546851821243
1772785612480147500,5.3211474609375,0.10654548100829124,-0.03571428745985031,-0.006751556619442999
1772785612490163200,5.3311630859375,0.024523031359910963,-0.022192907911911607,-0.0076162471573799845
1772785612500180200,5.34118017578125,-0.06208090085983276,-0.005808247887343168,-0.010512772316485643
1772785612510196200,5.3511962890625,-0.052092590808868404,0.028681100887432694,-0.017812866196781397
1772785612520212200,5.361212158203125,0.0022398878812789915,0.010962050453945993,-0.019597703786939383
1772785612530228200,5.371228271484375,0.07000409507453441,-0.011707535059005021,-0.054618565622530875
1772785612540245200,5.381245361328125,0.192563722294569,-0.05795731812380254,-0.04917315969821066
1772785612550261200,5.39126123046875,0.28845161568820477,-0.09313749870695173,-0.01722834430709481
1772785612560277200,5.40127734375,0.28956279180049893,-0.08493775257319211,0.024444741959311067
1772785612570293200,5.411293212890625,0.18607728288471698,-0.03291998056620359,0.0506161250481382
1772785612580309200,5.421309326171875,0.04099485821127891,0.011452464319393039,0.07369093036111443
1772785612590326300,5.431326171875,-0.08259469657838345,0.03055215545631945,0.054327656384557485
1772785612600342300,5.44134228515625,-0.06586392652988433,0.0027777941502630707,0.011538717830739915
1772785612610358300,5.451358154296875,-0.0019178163200616835,-0.016172405513375995,0.01703472143113613
1772785612620374300,5.461374267578125,0.059469257056713104,0.00038746494762599467,-0.02134396293237805
1772785612630390300,5.471390380859375,0.1372866562306881,-0.03476933475993573,-0.06499393876232207
1772785612640407300,5.4814072265625,0.12929156582355497,-0.06800882960408926,-0.06932338280137627
1772785612650423300,5.49142333984375,0.08235328903794288,-0.04218596769198775,-0.07455580356214195
1772785612660439300,5.501439208984375,0.009981880310177802,-0.044273514555767175,-0.09671097327955067
1772785612670455300,5.511455322265625,0.012733809366822241,-0.06753419782966374,-0.1240428515151143
1772785612680472000,5.52147216796875,0.030913024657964704,-0.054680999866873026,-0.10632431253828108
1772785612690488300,5.53148828125,0.046999651584029196,-0.0561572829645127,-0.08739391355365514
1772785612700504300,5.54150439453125,0.03763970256447792,-0.02038125538006425,-0.05622052092645317
1772785612710520300,5.551520263671875,0.03445230470001697,0.0027894845880568025,-0.0430416712058708
1772785612720536300,5.561536376953125,0.05987725333571434,-0.017862477492168544,-0.014752309582382439
1772785612730553000,5.571552978515625,0.03027180414497852,-0.05685702873170376,0.0200001836406067
1772785612740569300,5.5815693359375,-0.025029227316379545,-0.03192848531082272,0.011427622139081358
1772785612750585300,5.59158544921875,-0.0007926116824150085,-0.021661066057533023,0.02409939912036061
1772785612760601300,5.601601318359375,0.023958383214473723,0.006398030474036932,-0.002109868293441832
1772785612770618000,5.6116181640625,0.08267360703349114,0.015753522514179347,-0.0025879341339692472
1772785612780634000,5.621634033203125,0.1441752467006445,0.0026367051791399716,-0.0041037820570170875
1772785612790650000,5.631650146484375,0.15906360375285147,0.017436726360768078,-0.040380416107363995
1772785612800666400,5.641666259765625,0.0947661958873272,0.044774303684756156,-0.05497106885462999
1772785612810682400,5.651682373046875,-0.018252280527353285,0.048479076486825944,-0.09032401218879968
1772785612820699100,5.66169921875,-0.005810147583484649,0.035104777259379626,-0.11543912769034505
1772785612830715100,5.671715087890625,0.03988660470843315,0.005932093462720513,-0.1217407485852018
1772785612840731100,5.681731201171875,0.05175765976607799,-0.00044635552801191805,-0.14647632671725003
1772785612850747400,5.691747314453125,0.08784954836666584,-0.015895488268136977,-0.16153887129258362
1772785612860764200,5.70176416015625,0.057500002810359,0.015679361299425362,-0.13710012068264185
1772785612870780200,5.7117802734375,0.018483166673779486,0.031794483667612075,-0.12392846788782626
1772785612880796200,5.721796142578125,0.021830723536014555,0.006326718803495168,-0.09778521491494029
1772785612890812200,5.731812255859375,0.006805003839731216,-0.03183503487370908,-0.05536174867264926
1772785612900828400,5.741828369140625,0.06376666198968887,-0.02571026838310063,-0.05293203730769455
1772785612910845200,5.75184521484375,0.11980945172905921,-0.026222309558466075,-0.03798358409870416
1772785612920861200,5.761861083984375,0.14600596925914286,-0.006974953579157591,-0.03593194879852235
1772785612930877200,5.771877197265625,0.10673486610054969,0.0012100333768874406,-0.07383534380048513
1772785612940893200,5.78189306640625,0.06773848823010921,0.001516688173264265,-0.08755783541109412
1772785612950909200,5.7919091796875,-0.0025070143848657605,-0.0033481413841247557,-0.11150343220923095
1772785612960926200,5.80192626953125,0.009701894325017928,-0.023317820288613438,-0.1272123483967036
1772785612970942200,5.811942138671875,0.08639058173000812,-0.04872808281183243,-0.11652451177425682
1772785612980958200,5.821958251953125,0.14190671724677084,-0.05120791692882776,-0.11339278961978852
1772785612990974200,5.83197412109375,0.12223171043992041,-0.051012394356727594,-0.07468746711779385
1772785613000991200,5.8419912109375,0.04479717310369014,-0.05017513981498777,-0.06002173984032124
1772785613011007200,5.85200732421875,-0.024645780956745147,-0.030288243823125956,-0.05712108649536967
1772785613021023200,5.862023193359375,-0.09859013808965682,-0.039605522744730115,-0.04849986354652792
1772785613031039200,5.872039306640625,-0.11177227574586868,-0.027482977144047616,-0.051300234854780136
1772785613041055200,5.88205517578125,-0.03669862232208252,-0.033715514858067036,-0.07387147455979139
1772785613051072300,5.892072265625,0.059492053410410875,-0.07108531443998217,-0.0951969885200262
1772785613061088300,5.902088134765625,0.1201759469538927,-0.07973221981935202,-0.10777063888907432
1772785613071104300,5.912104248046875,0.14698270533680916,-0.07993621795885264,-0.136646860489808
1772785613081120300,5.922120361328125,0.1082031850874424,-0.07059029746465384,-0.12445851964391767
1772785613091136300,5.93213623046875,0.03502747423946857,-0.0729432903315872,-0.09432455306705087
1772785613101153000,5.942153076171875,-0.03749707922339439,-0.059510611980408426,-0.10428750948105006
1772785613111169300,5.952169189453125,-0.03317921602427959,-0.06002601415663957,-0.0988491543520242
1772785613121185300,5.962185302734375,0.0432698174059391,-0.06732771547213197,-0.07456818811967969
1772785613131201300,5.972201171875,0.12877484847307205,-0.06900726605691015,-0.0739715374007821
1772785613141218300,5.98221826171875,0.19273615625202656,-0.07903079355172812,-0.06472173422481864
1772785613151234000,5.992234130859375,0.2037000333368778,-0.061944049672409886,-0.06622143473066389
1772785613161250300,6.002250244140625,0.1832926206022501,-0.0478233159918338,-0.00240311561897397
1772785613171266300,6.012266357421875,0.060816580012440676,-0.01997479347102344,0.04570000369492918
1772785613181282300,6.0222822265625,-0.06025894612967968,0.015412892382964491,0.062094235265441236
1772785613191299300,6.03229931640625,-0.08378302958011627,0.003673720076680183,0.05770126100350171
1772785613201315000,6.042315185546875,-0.08337503330111504,-0.03482128414288163,0.022115604892000554
1772785613211331000,6.0523310546875,0.015991349858045577,-0.05136244990341365,-0.013695567071065305
1772785613221347300,6.062347412109375,0.15329495722353456,-0.07825206426419318,-0.01851126025710255
1772785613231363300,6.07236328125,0.27501579553186895,-0.06661613313667476,-0.009394545408897101
1772785613241380000,6.082380126953125,0.2509907768219709,-0.05100063085369765,0.007792151713557541
1772785613251396000,6.09239599609375,0.07442074247300624,-0.03903042627051472,-0.015540281622298062
1772785613261412000,6.102412109375,-0.08263853572010993,-0.04294401951767504,-0.09407646005749702
1772785613271428400,6.112428466796875,-0.08216916464269161,-0.10637114735469222,-0.12833934313263742
1772785613281445400,6.1224453125,-0.00409691392481327,-0.11737382207997142,-0.12464403227865695
1772785613291461000,6.132461181640625,0.033166356542706485,-0.08147730992101132,-0.08202679702993482
1772785613301477000,6.14247705078125,-0.0025385785669088364,-0.08749043273068964,-0.062156925238110124
1772785613311493000,6.1524931640625,-0.008386135551333426,-0.07633037548661231,-0.057818274979293344
1772785613321509400,6.16250927734375,0.03429273022413253,-0.10452296220473944,-0.022153635347448287
1772785613331526400,6.1725263671875,0.07354512868225574,-0.1089296727310866,-0.021261545345932244
1772785613341542100,6.182542236328125,0.07908931880593299,-0.06884170023165642,-0.02132511210143566
1772785613351558100,6.19255810546875,0.12484803041815758,-0.04935783208273351,0.011356785392574965
1772785613361574100,6.20257421875,0.10981120480597019,-0.03787964880019426,0.0264027076266706
1772785613371590100,6.212590087890625,0.06348083078563213,-0.061105553021654484,0.012146145671978591
1772785613381607200,6.222607177734375,0.032547932383418084,-0.09954882705397904,-0.032913696955889464
1772785613391623200,6.232623046875,0.04782324292659759,-0.1337660808891058,-0.07515610754285007
1772785613401639200,6.24263916015625,0.11300386336743831,-0.14604600900858639,-0.09562138794455677
1772785613411655200,6.2526552734375,0.14816928477287292,-0.11871588433869182,-0.06498842233698815
1772785613421672400,6.26267236328125,0.10348960056900977,-0.12905446913205088,-0.07294570148438215
1772785613431688200,6.272688232421875,0.01764262419641018,-0.0790185185920447,-0.05447407911792397
1772785613441704200,6.2827041015625,-0.06873568257391452,-0.0470793657567352,-0.05862213870808482
1772785613451720200,6.29272021484375,-0.09906009368896483,-0.0699351214915514,-0.07201459464672952
1772785613461736200,6.302736083984375,-0.05416588995158672,-0.041201852025464177,-0.039610345050320024
1772785613471753500,6.31275341796875,0.04898877957463264,-0.041608752325922246,-0.03130056267082691
1772785613481769200,6.322769287109375,0.10963818632662296,-0.045179669615253805,-0.027329320952296256
1772785613491785200,6.33278515625,0.1341746616899967,-0.033560981883481146,-0.013225173080340028
1772785613501801200,6.34280126953125,0.11958148819208145,-0.047972369073703884,-0.018113018187135458
1772785613511817200,6.352817138671875,0.0769452925145626,-0.04332059774510562,0.0021043153354898094
1772785613521834200,6.362834228515625,-0.004724690434336662,-0.014359657002985476,0.032393509006686506
1772785613531850200,6.372850341796875,-0.06013444296717643,-0.015528043195232748,0.01276296239607036
1772785613541866200,6.3828662109375,-0.007269698742032051,-0.03658347150981426,0.0031284342188388106
1772785613551882200,6.39288232421875,0.06000000293254852,-0.023241394051536916,0.01622588926628232
1772785613561898200,6.402898193359375,0.10829144789278507,-0.01450995219387114,0.0032440599551424383
1772785613571915300,6.412915283203125,0.13228782503008843,0.011720175344869493,0.002604666073061526
1772785613581931300,6.42293115234375,0.14359832359552382,0.025852014941349623,-0.058174139212258155
1772785613591947300,6.432947265625,0.16036416495740413,-0.007761720042675733,-0.14958645809441803
1772785613601963300,6.44296337890625,0.13778642244637013,-0.021571561143174767,-0.161030227650702
1772785613611980300,6.452980224609375,0.12559797200262546,-0.028904388249292968,-0.15962587727811187
1772785613621996300,6.462996337890625,0.038732173976302145,-0.013053615905717015,-0.15759828044064342
1772785613632012000,6.473011962890625,-0.10905658704638481,0.057555605455115434,-0.07321841747853905
1772785613642028300,6.4830283203125,-0.21902385919690132,0.1034836822848767,-0.06916695013064891
1772785613652044300,6.493044189453125,-0.2747784796446562,0.11034012405090034,-0.09735540866293013
1772785613662061300,6.503061279296875,-0.18507775045335292,0.07495791808962822,-0.07286934831254184
1772785613672077000,6.5130771484375,-0.04805588263869285,-0.005972863864526152,-0.08627334855850785
1772785613682093000,6.523093017578125,0.03816284965574741,-0.06985043888278306,-0.06965466058235616
1772785613692109300,6.533109375,0.1348597213447094,-0.09001651714220643,-0.09292305223867296
1772785613702125300,6.543125244140625,0.256305834364891,-0.0519325779415667,-0.15030483549684284
1772785613712142300,6.553142333984375,0.2975117049783468,-0.0199117381721735,-0.11343231791257857
1772785613722158000,6.563157958984375,0.2590121707141399,0.00770640965886414,-0.08885693531092256
1772785613732174000,6.573174072265625,0.14562018481194972,0.0201480311460793,-0.13806081894095987
1772785613742190300,6.5831904296875,0.006833060890436172,-0.015456877655163407,-0.08548292883317916
1772785613752206300,6.593206298828125,-0.0122737906396389,-0.056539779476076364,0.007433364871144294
1772785613762223400,6.603223388671875,0.10610065985023975,-0.08921995993703603,0.03569879762977361
1772785613772239000,6.613239013671875,0.20213409919440745,-0.04790471066497266,0.09241576030366122
1772785613782255000,6.623255126953125,0.36283494876027106,-0.05501483493112028,0.15717855719123033
1772785613792271000,6.63327099609375,0.4566302537888288,-0.11197481258064508,0.1801744520490989
1772785613802287400,6.643287353515625,0.3324859877258539,-0.06823423585779964,0.2502444519666955
1772785613812304400,6.653304443359375,0.08754968863725662,-0.022235724140331148,0.29597791953980923
1772785613822320000,6.663320068359375,-0.10221300476193428,0.04291917733736336,0.22790256403815
1772785613832336100,6.673336181640625,-0.23516426213681696,0.08177592754140496,0.1531264687888324
1772785613842352000,6.68335205078125,-0.3065834847062826,0.05563296682946384,0.06733586224596948
1772785613852369400,6.693369384765625,-0.24784020383656025,0.014496873516589402,-0.01932703361939639
1772785613862385200,6.70338525390625,-0.0720960989177227,0.010284224257618189,-0.14114672919232396
1772785613872401200,6.713401123046875,0.12595102322399615,0.005534910838678479,-0.20705540817938745
1772785613882417200,6.723417236328125,0.24263737449645995,-0.029339272535219788,-0.2755499389411881
1772785613892433200,6.73343310546875,0.2831009023100138,-0.056825756810605525,-0.34801666126959024
1772785613902450400,6.743450439453125,0.22216741791963576,-0.03357617945261299,-0.36449703675359485
1772785613912466200,6.753466064453125,0.09297463629543781,-0.05990845219157636,-0.34508232485074547
1772785613922482200,6.763482177734375,-0.021158523362874982,-0.07012048799581826,-0.3510476629959419
1772785613932498200,6.773498291015625,-0.0825485193490982,-0.027528423720970748,-0.27919571156501766
1772785613942514200,6.78351416015625,-0.11674071180820464,0.02140752968788147,-0.22265563982799647
1772785613952531500,6.793531494140625,-0.039786066943407056,0.02022891436256468,-0.17225213461723177
1772785613962547200,6.803547119140625,0.07372691498994827,-0.012066577629745006,-0.0862446704532951
1772785613972563200,6.813563232421875,0.09875906491577624,0.009025310237705707,-0.019478388256207107
1772785613982579200,6.8235791015625,0.11653729819059372,0.037580738918855786,0.0370130950987339
1772785613992594200,6.83359423828125,0.10465513721704482,0.03191438372023404,0.055053048049658534
1772785614002611200,6.843611083984375,0.06584463730752468,0.07808700989559292,0.09162519444786012
1772785614012627200,6.853627197265625,0.006899111863970756,0.07838402008078992,0.10818119245134293
1772785614022643200,6.863643310546875,-0.05418108752071857,0.05937251868396997,0.10176774521246552
1772785614032659200,6.8736591796875,-0.0998807624220848,0.0696853845141828,0.0754985277723521
1772785614042675200,6.88367529296875,-0.06376432390213012,0.05744513081796467,0.02490443189293146
1772785614052692200,6.893692138671875,0.04044540763497352,0.0004300619803369045,0.0000019727613776922224
1772785614062708200,6.903708251953125,0.21799977684617042,-0.016411986422911286,-0.03182400202304125
1772785614072724200,6.91372412109375,0.39557051267027854,-0.04947685535252094,-0.018851415464282036
1772785614082740200,6.923740234375,0.39772096870243545,-0.056313496439531444,-0.024404446481540797
1772785614092756200,6.933756103515625,0.276328631696105,0.0167469174657017,-0.03621792613305151
1772785614102773200,6.943773193359375,0.10346972682476042,0.05895341648906469,0.05458426149412989
1772785614112789200,6.953789306640625,-0.06037818859517574,0.09988251598775386,0.046279959007352586
1772785614122805000,6.963804931640625,-0.21259178032279014,0.08973222030811011,-0.009359218367189169
1772785614132821200,6.9738212890625,-0.23100363532602786,0.03300400558784604,-0.009347016472741962
1772785614142837200,6.983837158203125,-0.10786357786953449,-0.001847892889007926,-0.08544036833308637
1772785614152854300,6.993854248046875,-0.009663900402188301,-0.014248451713472604,-0.057468657824024556
1772785614162870300,7.003870361328125,0.044047231519222255,-0.008834829166904092,-0.07758402880951762
1772785614172886000,7.013885986328125,0.04045475998520851,0.006467296317964792,-0.13414726222641765
1772785614182902000,7.023902099609375,0.07044716266691685,-0.027807679053768512,-0.18155680978558955
1772785614192918300,7.033918212890625,0.09761340201199054,-0.030799335150420663,-0.2135224122364074
1772785614202935300,7.043935302734375,0.20046236658990382,-0.0007522796720266342,-0.20617979438863693
1772785614212951300,7.053951416015625,0.2598515441477299,0.0011952741991728543,-0.14927205838300286
1772785614222967000,7.063967041015625,0.2409837620705366,0.0006737345430999994,-0.0899967164631933
1772785614232983000,7.073983154296875,0.1780588116019964,-0.00689852734208107,-0.07138312834277749
1772785614243000300,7.084000244140625,0.12038637483417987,-0.02035400204695761,-0.05602255066893994
1772785614253016300,7.094016357421875,0.06991524774730205,-0.019737185322865843,-0.02374262157194316
1772785614263032300,7.1040322265625,-0.018613515055179594,-0.024341902639344333,-0.032772827180474993
