time,seconds_elapsed,z,y,x
1772785607221620500,0.062620361328125,-0.13105925917625427,-0.09085705876350403,0.24247731268405914
1772785607231636500,0.072636474609375,-0.11980260908603668,-0.08809588849544525,0.21176573634147644
1772785607241653500,0.082653564453125,-0.08493513613939285,-0.07524292171001434,0.17175549268722534
1772785607251669500,0.09266943359375,-0.06323036551475525,-0.041018903255462646,0.13620734214782715
1772785607261685200,0.102685302734375,-0.049758248031139374,0.004573737736791372,0.11832916736602783
1772785607271701200,0.112701171875,-0.025226540863513947,0.048301778733730316,0.10986777395009995
1772785607281718500,0.122718505859375,-0.0016457727178931236,0.07814814150333405,0.09835976362228394
1772785607291734500,0.132734619140625,0.017041893675923347,0.08325661718845367,0.07354576140642166
1772785607301750500,0.14275048828125,0.028530748561024666,0.0818101093173027,0.035580363124608994
1772785607311766300,0.152766357421875,0.030404815450310707,0.06418956816196442,-0.019234947860240936
1772785607321783600,0.162783447265625,0.032214924693107605,0.05610688775777817,-0.061769310384988785
1772785607331799600,0.172799560546875,0.034874092787504196,0.05078189820051193,-0.07805267721414566
1772785607341815600,0.182815673828125,0.04022736847400665,0.051147185266017914,-0.07878383994102478
1772785607351831600,0.19283154296875,0.052749283611774445,0.06242647394537926,-0.0678481012582779
1772785607361848300,0.202848388671875,0.055199943482875824,0.0716848373413086,-0.05641205981373787
1772785607371864600,0.212864501953125,0.05628198757767677,0.07344092428684235,-0.04727262258529663
1772785607381880600,0.222880615234375,0.056686293333768845,0.062248751521110535,-0.0438336618244648
1772785607391896600,0.232896484375,0.06032656878232956,0.041434016078710556,-0.03449741750955582
1772785607401913300,0.242913330078125,0.05797345191240311,0.019923342391848564,-0.014804737642407417
1772785607411929300,0.252929443359375,0.0553414523601532,0.004686865024268627,0.007909096777439117
1772785607421945300,0.2629453125,0.040087051689624786,-0.019563663750886917,0.01854492537677288
1772785607431962400,0.27296240234375,0.02483273111283779,-0.0411781445145607,0.025681929662823677
1772785607441978400,0.282978271484375,0.01150468923151493,-0.05143193155527115,0.029450751841068268
1772785607451994400,0.292994384765625,-0.007895107381045818,-0.06453308463096619,0.032388221472501755
1772785607462010400,0.30301025390625,-0.026461003348231316,-0.06347408145666122,0.03975411131978035
1772785607472027600,0.313027587890625,-0.03998000919818878,-0.05424409359693527,0.04696328938007355
1772785607482043400,0.32304345703125,-0.04826774075627327,-0.04860842972993851,0.04157108813524246
1772785607492059400,0.333059326171875,-0.04617636278271675,-0.04770561680197716,0.03612785041332245
1772785607502075400,0.343075439453125,-0.04824468865990639,-0.03775323927402496,0.031348153948783875
1772785607512092400,0.353092529296875,-0.053652502596378326,-0.028511004522442818,0.03041897714138031
1772785607522108700,0.363108642578125,-0.05890278145670891,-0.022400956600904465,0.03573407232761383
1772785607532124400,0.37312451171875,-0.06358461827039719,-0.01033390685915947,0.037155669182538986
1772785607542140400,0.383140380859375,-0.06391049176454544,-0.007867885753512383,0.03954952210187912
1772785607552157400,0.393157470703125,-0.06226199492812157,-0.003176727332174778,0.03913832828402519
1772785607562173400,0.40317333984375,-0.05781584233045578,0.008727026171982288,0.04063495993614197
1772785607572189700,0.413189697265625,-0.05042051151394844,0.01499850396066904,0.03389636427164078
1772785607582205400,0.423205322265625,-0.04781271517276764,0.011548484675586224,0.025524288415908813
1772785607592222500,0.433222412109375,-0.04162885621190071,0.004272994585335255,0.025110965594649315
1772785607602238500,0.443238525390625,-0.03775830939412117,0.007221410982310772,0.031659722328186035
1772785607612254500,0.45325439453125,-0.034308984875679016,0.0010945424437522888,0.04269825667142868
1772785607622270500,0.4632705078125,-0.02638547495007515,0.0019782735034823418,0.04980047792196274
1772785607632287500,0.47328759765625,-0.014470756985247135,0.006402582861483097,0.05645065754652023
1772785607642303500,0.483303466796875,0.0005167899653315544,0.028194790706038475,0.06056428328156471
1772785607652319500,0.493319580078125,0.018412966281175613,0.058456823229789734,0.049507372081279755
1772785607662336300,0.503336181640625,0.02814873680472374,0.06835627555847168,0.01700129546225071
1772785607672352500,0.5133525390625,0.03627803549170494,0.061453890055418015,-0.028455935418605804
1772785607682368500,0.523368408203125,0.03491887077689171,0.04420764744281769,-0.05416863039135933
1772785607692384500,0.533384521484375,0.025746412575244904,0.020856516435742378,-0.04884550720453262
1772785607702401300,0.5434013671875,0.008873740211129189,0.010496767237782478,-0.018781142309308052
1772785607712417300,0.553417236328125,0.001693591009825468,0.00009419326670467854,0.020902886986732483
1772785607722433500,0.56343359375,0.0030532481614500284,-0.004746474325656891,0.045514415949583054
1772785607732449500,0.573449462890625,0.013455023057758808,-0.011687470600008965,0.049745112657547
1772785607742466600,0.583466552734375,0.031184865161776543,-0.023633265867829323,0.03647996112704277
1772785607752482300,0.593482421875,0.049482110887765884,-0.02390996925532818,0.02174575813114643
1772785607762498300,0.603498291015625,0.053032539784908295,-0.031774215400218964,0.009395941160619259
1772785607772514300,0.613514404296875,0.03601920232176781,-0.05511735752224922,0.0005579753778874874
1772785607782531600,0.623531494140625,0.022549843415617943,-0.07137264311313629,0.009608585387468338
1772785607792547600,0.633547607421875,0.01789650321006775,-0.07357081770896912,0.05583387240767479
1772785607802563300,0.643563232421875,0.025512661784887314,-0.03518056124448776,0.10855168104171753
1772785607812579300,0.653579345703125,0.012943873181939125,0.00548457819968462,0.12469097971916199
1772785607822596600,0.6635966796875,0.001445371424779296,-0.00590130127966404,0.09898045659065247
1772785607832612600,0.673612548828125,0.013962228782474995,-0.00038642692379653454,0.06754264235496521
1772785607842628400,0.68362841796875,0.033939145505428314,0.022396836429834366,0.04985278099775314
1772785607852644400,0.693644287109375,0.035331446677446365,0.03950577974319458,0.019795279949903488
1772785607862661400,0.703661376953125,0.025411030277609825,0.028299812227487564,-0.018412716686725616
1772785607872677600,0.713677734375,0.008548427373170853,0.023138340562582016,-0.04067860543727875
1772785607882693600,0.723693603515625,0.0025547295808792114,0.013168185018002987,-0.036540135741233826
1772785607892709400,0.73370947265625,0.0030380934476852417,0.01785641349852085,-0.015799706801772118
1772785607902726400,0.743726318359375,0.011877619661390781,0.03134818747639656,0.0066423979587852955
1772785607912742400,0.753742431640625,0.027633681893348694,0.02057277038693428,0.005471406038850546
1772785607922758400,0.76375830078125,0.045644599944353104,0.01989177241921425,-0.00768143218010664
1772785607932774700,0.773774658203125,0.059967346489429474,0.017656583338975906,-0.023038018494844437
1772785607942791400,0.78379150390625,0.058362361043691635,0.011907017789781094,-0.040018126368522644
1772785607952807400,0.793807373046875,0.05442221462726593,0.004235516302287579,-0.05641094967722893
1772785607962823400,0.803823486328125,0.04847856983542442,-0.0013062555808573961,-0.06810462474822998
1772785607972839400,0.81383935546875,0.048248741775751114,-0.007197168655693531,-0.07337448745965958
1772785607982856400,0.8238564453125,0.04541337490081787,-0.018374521285295486,-0.06553712487220764
1772785607992872400,0.83387255859375,0.04487089067697525,-0.018958285450935364,-0.04283234477043152
1772785608002888400,0.843888427734375,0.04893607646226883,-0.011132627725601196,-0.009571904316544533
1772785608012904400,0.853904541015625,0.055412083864212036,-0.008698764257133007,0.023388441652059555
1772785608022921500,0.86392138671875,0.06350772827863693,-0.008792707696557045,0.033643536269664764
1772785608032937500,0.8739375,0.06747743487358093,-0.017718559131026268,0.021963709965348244
1772785608042953500,0.883953369140625,0.07081552594900131,-0.014524349942803383,0.005978109315037727
1772785608052969500,0.893969482421875,0.0634755939245224,-0.002374476520344615,-0.011467992328107357
1772785608062986500,0.903986572265625,0.052401989698410034,-0.002106056548655033,-0.026591064408421516
1772785608073002200,0.914002197265625,0.04207637906074524,0.0002242096234112978,-0.031448137015104294
1772785608083018500,0.9240185546875,0.025583475828170776,0.005107634700834751,-0.025674667209386826
1772785608093035500,0.934035400390625,0.00852246768772602,-0.003092771163210273,-0.015966380015015602
1772785608103051500,0.944051513671875,-0.0002423503901809454,0.004023981746286154,-0.00010967487469315529
1772785608113067300,0.9540673828125,-0.003814981086179614,0.015671050176024437,0.01474650390446186
1772785608123083300,0.964083251953125,-0.009632909670472145,0.02638007327914238,0.01982400193810463
1772785608133100500,0.9741005859375,-0.01065476518124342,0.027302060276269913,0.013435346074402332
1772785608143116500,0.984116455078125,-0.009570475667715073,0.022059783339500427,-0.0009370065527036786
1772785608153132500,0.994132568359375,-0.012178509496152401,0.012915820814669132,-0.012892203405499458
1772785608163148300,1.004148193359375,-0.015051428228616714,0.02068069390952587,-0.01672355830669403
1772785608173164300,1.014164306640625,-0.015706032514572144,0.018663883209228516,-0.014621790498495102
1772785608183181600,1.024181640625,-0.016828326508402824,0.028856534510850906,0.0018985095666721463
1772785608193197600,1.034197509765625,-0.013153697364032269,0.031229142099618912,0.025956174358725548
1772785608203213600,1.044213623046875,-0.0013345759361982346,0.02455681934952736,0.05186978355050087
1772785608213230300,1.054230224609375,0.011791612021625042,0.02341432310640812,0.06636697053909302
1772785608223246300,1.064246337890625,0.026488913223147392,0.02341817133128643,0.06345199793577194
1772785608233262600,1.0742626953125,0.042566150426864624,0.0188393983989954,0.038674209266901016
1772785608243278600,1.084278564453125,0.05183500051498413,0.024629684165120125,0.007241466548293829
1772785608253295400,1.09429541015625,0.05116868019104004,0.026361538097262383,-0.022137459367513657
1772785608263311400,1.104311279296875,0.04502766206860542,0.024263206869363785,-0.04339775815606117
1772785608273327400,1.114327392578125,0.037151094526052475,0.021539591252803802,-0.05416864901781082
1772785608283343600,1.124343505859375,0.030317753553390503,0.013898888602852821,-0.05965190753340721
1772785608293360400,1.1343603515625,0.024549879133701324,0.014926869422197342,-0.07275093346834183
1772785608303376400,1.14437646484375,0.021720560267567635,0.010714653879404068,-0.07851976901292801
1772785608313392400,1.154392333984375,0.025463899597525597,0.02281579189002514,-0.07085439562797546
1772785608323408400,1.164408447265625,0.022734947502613068,0.026851624250411987,-0.06525208801031113
1772785608333425400,1.17442529296875,0.020478717982769012,0.011652432382106781,-0.06377509981393814
1772785608343441400,1.18444140625,0.017687764018774033,0.005013768095523119,-0.05402836948633194
1772785608353457400,1.19445751953125,0.012936419807374477,0.0038225362077355385,-0.04024571180343628
1772785608363473400,1.204473388671875,0.005914180539548397,0.0021314723417162895,-0.03217126429080963
1772785608373490400,1.214490478515625,-0.0024023386649787426,0.003887027967721224,-0.028813017532229424
1772785608383506400,1.22450634765625,-0.00649133138358593,-0.00012225424870848656,-0.03767112269997597
1772785608393522400,1.2345224609375,-0.010113762691617012,-0.000439969589933753,-0.04916532710194588
1772785608403538400,1.244538330078125,-0.007726682350039482,-0.016163259744644165,-0.04678550362586975
1772785608413555500,1.254555419921875,-0.007795392069965601,-0.01222364604473114,-0.011367857456207275
1772785608423571500,1.264571533203125,-0.013792412355542183,0.003629234153777361,0.04816272109746933
1772785608433587500,1.27458740234375,-0.01731763780117035,0.002030538395047188,0.08974186331033707
1772785608443603500,1.284603515625,-0.016232045367360115,-0.0017538010142743587,0.09044735878705978
1772785608453619500,1.294619384765625,-0.007136550731956959,-0.00833154283463955,0.05936027318239212
1772785608463636500,1.304636474609375,-0.0011622568126767874,-0.006540459580719471,0.022685717791318893
1772785608473652500,1.314652587890625,0.00225085043348372,-0.010352508164942265,-0.005701449699699879
1772785608483668500,1.32466845703125,-0.0005956105887889862,-0.007608442567288876,-0.014869150705635548
1772785608493684500,1.3346845703125,-0.00195755111053586,-0.007159699685871601,-0.00641467934474349
1772785608503701500,1.344701416015625,-0.0020499774254858494,-0.006873900070786476,0.010547005571424961
1772785608513717500,1.354717529296875,0.002754631219431758,-0.013664428144693375,0.009259899146854877
1772785608523733500,1.3647333984375,0.014130564406514168,-0.01546856015920639,-0.0006759226089343429
1772785608533749200,1.374749267578125,0.024935275316238403,-0.017406275495886803,-0.01173443254083395
1772785608543766500,1.3847666015625,0.030579350888729095,-0.01437153946608305,-0.007405375596135855
1772785608553782500,1.394782470703125,0.03169894590973854,-0.006076325662434101,0.003296004608273506
1772785608563798500,1.404798583984375,0.03081359528005123,-0.005880435928702354,0.006508984137326479
1772785608573814300,1.414814208984375,0.02815443091094494,-0.009382759220898151,0.00960171315819025
1772785608583831600,1.42483154296875,0.02238762192428112,-0.004579481668770313,0.012266471982002258
1772785608593847600,1.43484765625,0.013946998864412308,-0.014055808074772358,0.010068031959235668
1772785608603863600,1.444863525390625,0.008691934868693352,-0.021108511835336685,0.009251116774976254
1772785608613879600,1.454879638671875,0.006761675700545311,-0.007329581305384636,0.01636282168328762
1772785608623896300,1.464896240234375,0.007325237616896629,0.005468266550451517,0.02224576100707054
1772785608633912600,1.47491259765625,0.009201168082654476,0.019817911088466644,0.011687127873301506
1772785608643928600,1.484928466796875,0.009912054985761642,0.028343766927719116,-0.011401922442018986
1772785608653944600,1.494944580078125,0.013074026443064213,0.02355353906750679,-0.03235354274511337
1772785608663961300,1.50496142578125,0.012960955500602722,0.01329033076763153,-0.043236762285232544
1772785608673977300,1.514977294921875,0.008799766190350056,0.017084801569581032,-0.042278558015823364
1772785608683993300,1.524993408203125,0.007932007312774658,0.016275307163596153,-0.034686557948589325
1772785608694009600,1.535009521484375,0.008416969329118729,0.019063370302319527,-0.02435455471277237
1772785608704026400,1.5450263671875,0.009613986127078533,0.023855673149228096,-0.01054796390235424
1772785608714042400,1.55504248046875,0.006680247373878956,0.023502804338932037,-0.004992876201868057
1772785608724058400,1.565058349609375,0.004622587002813816,0.01731528341770172,-0.008402995765209198
1772785608734074400,1.575074462890625,-0.00252879923209548,0.012591368518769741,-0.013938642106950283
1772785608744091400,1.58509130859375,-0.0060889022424817085,0.004616414662450552,-0.014804322272539139
1772785608754107400,1.595107421875,-0.007594653405249119,-0.002402346348389983,-0.013987531885504723
1772785608764123400,1.605123291015625,0.001865896862000227,-0.01283035334199667,-0.010789992287755013
1772785608774139400,1.615139404296875,0.016563883051276207,-0.015131059102714062,0.002039519138634205
1772785608784156700,1.62515673828125,0.022836895659565926,-0.019607167690992355,0.018035411834716797
1772785608794172400,1.63517236328125,0.025002047419548035,-0.019844722002744675,0.03183244913816452
1772785608804188400,1.6451884765625,0.02518240362405777,-0.009679834358394146,0.03447149693965912
1772785608814204400,1.655204345703125,0.02374083548784256,-0.006115725263953209,0.023618048056960106
1772785608824221400,1.665221435546875,0.020548291504383087,-0.005426247604191303,0.0005878363735973835
1772785608834237400,1.675237548828125,0.019763991236686707,0.0031166397966444492,-0.010949243791401386
1772785608844253400,1.68525341796875,0.014144844375550747,0.0031922762282192707,-0.016522470861673355
1772785608854269400,1.69526953125,0.014697716571390629,0.005320674739778042,-0.011394287459552288
1772785608864286500,1.705286376953125,0.01808977499604225,0.004992689471691847,0.00012350559700280428
1772785608874302500,1.715302490234375,0.019177675247192383,0.000955869909375906,0.008508201688528061
1772785608884318500,1.725318359375,0.021260850131511688,0.006312767043709755,0.009045295417308807
1772785608894334500,1.73533447265625,0.02107842266559601,0.011340814642608166,0.0032531870529055595
1772785608904351500,1.7453515625,0.018039871007204056,0.02210117131471634,-0.0062672230415046215
1772785608914367500,1.755367431640625,0.014549799263477325,0.02710897848010063,-0.024123718962073326
1772785608924383500,1.765383544921875,0.017050061374902725,0.021357059478759766,-0.040363457053899765
1772785608934399500,1.7753994140625,0.01991588994860649,0.01595297083258629,-0.04856093227863312
1772785608944416500,1.78541650390625,0.019565138965845108,0.0037776122335344553,-0.04320549964904785
1772785608954432500,1.7954326171875,0.018269510939717293,0.005581371486186981,-0.024977492168545723
1772785608964448500,1.805448486328125,0.02116888016462326,0.005165465176105499,0.005921650677919388
1772785608974464500,1.815464599609375,0.023707140237092972,-0.0020700774621218443,0.030929531902074814
1772785608984481800,1.825481689453125,0.023624785244464874,-0.0039688171818852425,0.04482758417725563
1772785608994497800,1.835497802734375,0.02595185488462448,-0.0012215005699545145,0.04561800882220268
1772785609004513800,1.845513671875,0.03239515796303749,-0.0038905346300452948,0.030555441975593567
1772785609014529800,1.85552978515625,0.031584758311510086,-0.0037877366412431,0.0032612355425953865
1772785609024546800,1.865546875,0.032231830060482025,-0.0007754906546324492,-0.028167828917503357
1772785609034562800,1.875562744140625,0.024659667164087296,0.0005430402234196663,-0.05202122777700424
1772785609044578800,1.885578857421875,0.015693994238972664,-0.004558471497148275,-0.06172547861933708
1772785609054594800,1.8955947265625,0.008679496124386787,-0.011570574715733528,-0.04409615322947502
1772785609064611600,1.905611572265625,0.0038213038351386786,-0.01767505519092083,-0.01251666247844696
1772785609074627600,1.915627685546875,-0.0011140662245452404,-0.02238032966852188,0.015305647626519203
1772785609084643800,1.925643798828125,-0.003805215237662196,-0.02389897219836712,0.03296390175819397
1772785609094659800,1.935659912109375,-0.0076124705374240875,-0.006577238440513611,0.03863590210676193
1772785609104676600,1.945676513671875,-0.012461185455322266,0.01016891747713089,0.02909373864531517
1772785609114692600,1.955692626953125,-0.015990406274795532,0.03128165751695633,0.0023047346621751785
1772785609124708600,1.96570849609375,-0.021664828062057495,0.04754973575472832,-0.0350685678422451
1772785609134724900,1.975724853515625,-0.027856944128870964,0.0638408288359642,-0.06062985584139824
1772785609144740900,1.985740966796875,-0.029767369851469994,0.059495653957128525,-0.07030028849840164
1772785609154757600,1.995757568359375,-0.03144409507513046,0.05592089146375656,-0.05573918670415878
1772785609164773600,2.005773681640625,-0.03167920187115669,0.051357515156269073,-0.026319844648241997
1772785609174789600,2.01578955078125,-0.03113272227346897,0.04223645478487015,-0.005312562920153141
1772785609184805600,2.0258056640625,-0.03091254085302353,0.03119298629462719,-0.0015411118511110544
1772785609194823000,2.035822998046875,-0.022570719942450523,0.024237075820565224,-0.0069960649125278
1772785609204838700,2.045838623046875,-0.02376454323530197,0.026431044563651085,-0.009090606123209
1772785609214854700,2.055854736328125,-0.02454378455877304,0.037740156054496765,-0.0011333472793921828
1772785609224870700,2.06587060546875,-0.03443271666765213,0.04317862167954445,0.00352989649400115
1772785609234888000,2.075887939453125,-0.03812013193964958,0.039540212601423264,-0.0023247969802469015
1772785609244903700,2.085903564453125,-0.03836233913898468,0.03756410628557205,-0.009576892480254173
1772785609254919700,2.095919677734375,-0.038267262279987335,0.03321196883916855,-0.01623319648206234
1772785609264935700,2.105935791015625,-0.03468620404601097,0.030016429722309113,-0.02188524790108204
1772785609274952700,2.11595263671875,-0.033501893281936646,0.02091667428612709,-0.028478436172008514
1772785609284969000,2.125968994140625,-0.03244014084339142,0.0064797308295965195,-0.02863922528922558
1772785609294984700,2.135984619140625,-0.03400927409529686,0.005634176544845104,-0.013365463353693485
1772785609305000700,2.146000732421875,-0.03550010174512863,0.0026590805500745773,0.00209490186534822
1772785609315017700,2.156017822265625,-0.03320232778787613,-0.005548516288399696,0.011177878826856613
1772785609325033700,2.16603369140625,-0.025751350447535515,-0.0029385739471763372,0.012981383129954338
1772785609335049700,2.1760498046875,-0.019140850752592087,-0.0034198074135929346,0.010595723986625671
1772785609345065700,2.186065673828125,-0.015069575048983097,-0.0021394267678260803,-0.0002567175542935729
1772785609355082800,2.196082763671875,-0.011756602674722672,0.004395970609039068,-0.014630064368247986
1772785609365098800,2.2060986328125,-0.011181561276316643,0.011970704421401024,-0.030230939388275146
1772785609375114800,2.21611474609375,-0.01640508510172367,0.008535493165254593,-0.04334593936800957
1772785609385130800,2.226130859375,-0.023610787466168404,-0.007067780941724777,-0.04843612387776375
1772785609395147800,2.236147705078125,-0.028360534459352493,-0.012273727916181087,-0.03688360005617142
1772785609405163800,2.246163818359375,-0.030742798000574112,-0.013363931328058243,-0.01539660431444645
1772785609415179800,2.2561796875,-0.028187494724988937,0.00039768731221556664,0.007422158494591713
1772785609425195800,2.26619580078125,-0.025780653581023216,0.011323300190269947,0.01706096902489662
1772785609435212800,2.276212890625,-0.02514735236763954,0.01828720048069954,0.010861661285161972
1772785609445228800,2.286228759765625,-0.02698332443833351,0.023006509989500046,-0.0004912106087431312
1772785609455244800,2.296244873046875,-0.032964784651994705,0.029005013406276703,-0.015314631164073944
1772785609465260800,2.3062607421875,-0.038989756256341934,0.03560173138976097,-0.02404734492301941
1772785609475277600,2.316277587890625,-0.03938976302742958,0.03645633906126022,-0.0319255068898201
1772785609485293600,2.32629345703125,-0.03419097140431404,0.03215989097952843,-0.04169849306344986
1772785609495309800,2.336309814453125,-0.019464753568172455,0.02723676897585392,-0.05161210894584656
1772785609505325800,2.346325927734375,-0.00705509539693594,0.019168231636285782,-0.054142601788043976
1772785609515342600,2.356342529296875,0.0017820720095187426,0.01831468753516674,-0.05132018402218819
1772785609525358600,2.366358642578125,0.007954824715852737,0.017619160935282707,-0.043529268354177475
1772785609535374600,2.37637451171875,0.012618819251656532,0.021567562595009804,-0.04355749860405922
1772785609545390800,2.386390869140625,0.013478168286383152,0.020413365215063095,-0.04539162293076515
1772785609555406800,2.39640673828125,0.010616601444780827,0.01756085455417633,-0.04602598771452904
1772785609565423600,2.406423583984375,0.006494383793324232,0.01910257153213024,-0.039994969964027405
1772785609575439600,2.416439697265625,0.002228266093879938,0.0057654595002532005,-0.029472552239894867
1772785609585455600,2.42645556640625,0.0042825136333703995,-0.009401895105838776,-0.02132580056786537
1772785609595472000,2.436471923828125,0.0039818426594138145,-0.018779417499899864,-0.015647942200303078
1772785609605489000,2.446489013671875,0.00005681510083377361,-0.02342597022652626,-0.012057851999998093
1772785609615504600,2.456504638671875,-0.007603501435369253,-0.028678523376584053,-0.012694613076746464
1772785609625520600,2.466520751953125,-0.017666175961494446,-0.03519092872738838,-0.013017280027270317
1772785609635536600,2.47653662109375,-0.023996243253350258,-0.030014805495738983,-0.010995142161846161
1772785609645554000,2.486553955078125,-0.031202131882309914,-0.01686718501150608,-0.001923287520185113
1772785609655569700,2.496569580078125,-0.031315047293901443,-0.00934535264968872,-0.001245513092726469
1772785609665585700,2.506585693359375,-0.025946127250790596,-0.00443623261526227,-0.014273276552557945
1772785609675601700,2.5166015625,-0.017982209101319313,0.000819249777123332,-0.02867831662297249
1772785609685618700,2.52661865234375,-0.014169463887810707,0.00419993419200182,-0.04032133147120476
1772785609695635000,2.536635009765625,-0.014600097201764584,0.00627773255109787,-0.05063815042376518
1772785609705650700,2.546650634765625,-0.01813068613409996,0.00837094895541668,-0.04909726232290268
1772785609715666700,2.556666748046875,-0.020741917192935944,0.013131082989275455,-0.03837324306368828
1772785609725683700,2.56668359375,-0.016459159553050995,0.020519264042377472,-0.022788384929299355
1772785609735699700,2.57669970703125,-0.013251914642751217,0.020433245226740837,-0.02022535912692547
1772785609745716000,2.586716064453125,-0.008622504770755768,0.023143570870161057,-0.02362673170864582
1772785609755731700,2.596731689453125,-0.007310099434107542,0.03272722288966179,-0.025386547669768333
1772785609765748700,2.606748779296875,-0.0075274500995874405,0.04140830039978027,-0.027560770511627197
1772785609775764700,2.6167646484375,-0.007349550724029541,0.04840841889381409,-0.03845309838652611
1772785609785780700,2.62678076171875,-0.004446947015821934,0.04480127617716789,-0.04769177362322807
1772785609795796700,2.636796630859375,-0.00043862336315214634,0.03739715740084648,-0.04870830103754997
1772785609805812700,2.646812744140625,0.008375882171094418,0.04089218005537987,-0.047225549817085266
1772785609815829800,2.656829833984375,0.016710512340068817,0.04344455152750015,-0.03963074833154678
1772785609825845800,2.666845703125,0.021917928010225296,0.037706732749938965,-0.03545388579368591
1772785609835861800,2.67686181640625,0.02543463371694088,0.041072968393564224,-0.027698496356606483
1772785609845877800,2.686877685546875,0.02720126509666443,0.0484173484146595,-0.018282141536474228
1772785609855894800,2.696894775390625,0.027589023113250732,0.06909892708063126,-0.008439098484814167
1772785609865910800,2.706910888671875,0.023939408361911774,0.07817795127630234,-0.019805196672677994
1772785609875926800,2.7169267578125,0.02566380426287651,0.07641547173261642,-0.048335906118154526
1772785609885942800,2.72694287109375,0.02274073287844658,0.07288190722465515,-0.06549207121133804
1772785609895959800,2.736959716796875,0.022971628233790398,0.06129023805260658,-0.07531727105379105
1772785609905975800,2.746975830078125,0.032019417732954025,0.05307302623987198,-0.07877327501773834
1772785609915991800,2.75699169921875,0.03579764440655708,0.06218183785676956,-0.06167604774236679
1772785609926007800,2.7670078125,0.033893316984176636,0.05893031507730484,-0.03853323683142662
1772785609936024600,2.777024658203125,0.01906563527882099,0.05704985558986664,-0.01499195583164692
1772785609946040600,2.78704052734375,0.009310942143201828,0.05287038907408714,-0.008393100462853909
1772785609956056800,2.797056884765625,0.006383063737303019,0.046385589987039566,-0.020809821784496307
1772785609966072800,2.80707275390625,0.015272840857505798,0.04597944766283035,-0.04480167478322983
1772785609976089600,2.817089599609375,0.01660921424627304,0.05070948973298073,-0.06434635072946548
1772785609986105300,2.827105224609375,0.010561442002654076,0.04363107308745384,-0.06698527932167053
1772785609996121300,2.837121337890625,0.005871349014341831,0.02767261490225792,-0.06436605751514435
1772785610006137600,2.8471376953125,0.00868715438991785,0.01921660453081131,-0.04896436631679535
1772785610016154600,2.857154541015625,0.01184885948896408,0.008192981593310833,-0.024219874292612076
1772785610026170400,2.86717041015625,0.012813574634492397,-0.004656760022044182,-0.0067519694566726685
1772785610036186400,2.877186279296875,0.019504766911268234,-0.014042272232472897,-0.0025875845458358526
1772785610046202400,2.887202392578125,0.024039264768362045,-0.019946934655308723,-0.01319967396557331
1772785610056218400,2.89721826171875,0.030054813250899315,-0.03155858442187309,-0.028886757791042328
1772785610066235600,2.907235595703125,0.028461230918765068,-0.029257098212838173,-0.04002142697572708
1772785610076251400,2.91725146484375,0.015048753470182419,-0.026280749589204788,-0.03755959868431091
1772785610086267400,2.927267333984375,0.0005612175446003675,-0.03207405284047127,-0.032346345484256744
1772785610096283400,2.937283447265625,-0.008924962021410465,-0.03168683126568794,-0.02660856395959854
1772785610106300700,2.94730078125,-0.013076563365757465,-0.03719105198979378,-0.02364393323659897
1772785610116316700,2.957316650390625,-0.01698075793683529,-0.03465811908245087,-0.02376750484108925
1772785610126332400,2.96733251953125,-0.026405660435557365,-0.04191618785262108,-0.024934135377407074
1772785610136348400,2.977348388671875,-0.037056174129247665,-0.042330577969551086,-0.01405379083007574
1772785610146365400,2.987365478515625,-0.05336335673928261,-0.04286918789148331,0.005834305193275213
1772785610156381700,2.997381591796875,-0.06893938779830933,-0.04168647900223732,0.02231048420071602
1772785610166397700,3.007397705078125,-0.07899255305528641,-0.041169293224811554,0.02912258356809616
1772785610176413400,3.017413330078125,-0.0888289362192154,-0.03970375284552574,0.02491452358663082
1772785610186430500,3.027430419921875,-0.09269416332244873,-0.03545893356204033,0.014175083488225937
1772785610196446500,3.037446533203125,-0.09481563419103622,-0.03570207953453064,-0.0002288891701027751
1772785610206462500,3.04746240234375,-0.09426800906658173,-0.03470676392316818,-0.006121824029833078
1772785610216478500,3.057478515625,-0.09776128083467484,-0.03631265088915825,-0.00009535672143101692
1772785610226494500,3.067494384765625,-0.09739527106285095,-0.03549135476350784,0.011632888577878475
1772785610236511500,3.077511474609375,-0.09223246574401855,-0.028593234717845917,0.026363365352153778
1772785610246527500,3.087527587890625,-0.08886908739805222,-0.01874796859920025,0.032153449952602386
1772785610256543500,3.09754345703125,-0.0847579687833786,-0.0077339340932667255,0.026684649288654327
1772785610266559500,3.1075595703125,-0.08023202419281006,0.0019491213606670499,0.006739496253430843
1772785610276576500,3.117576416015625,-0.07860936224460602,0.006026953458786011,-0.011505553498864174
1772785610286592500,3.127592529296875,-0.07505912333726883,0.005843353923410177,-0.025400429964065552
1772785610296608500,3.1376083984375,-0.06913173198699951,0.0036688828840851784,-0.026013223454356194
1772785610306624500,3.14762451171875,-0.06281818449497223,-0.0016464411746710539,-0.02048095501959324
1772785610316641500,3.1576416015625,-0.055390894412994385,-0.012908415868878365,-0.00992498453706503
1772785610326657500,3.167657470703125,-0.048663217574357986,-0.013567281886935234,0.0005702670896425843
1772785610336673500,3.177673583984375,-0.047863736748695374,-0.010600787587463856,0.008700631558895111
1772785610346689500,3.187689453125,-0.045361075550317764,-0.0036531551741063595,0.008612964302301407
1772785610356706300,3.197706298828125,-0.040908537805080414,0.005024222657084465,0.0007095013279467821
1772785610366722600,3.20772265625,-0.038089074194431305,0.0061764647252857685,-0.014468220062553883
1772785610376738600,3.217738525390625,-0.035212863236665726,0.010852975770831108,-0.024268386885523796
1772785610386754600,3.227754638671875,-0.02869856357574463,0.007900192402303219,-0.025988638401031494
1772785610396771300,3.237771240234375,-0.029380865395069122,-0.000159332063049078,-0.025761203840374947
1772785610406787300,3.247787353515625,-0.027884943410754204,-0.013384748250246048,-0.028395771980285645
1772785610416803600,3.257803466796875,-0.02696215733885765,-0.020525747910141945,-0.025209031999111176
1772785610426819600,3.267819580078125,-0.02373405173420906,-0.021030139178037643,-0.017508743330836296
1772785610436835600,3.277835693359375,-0.02005116641521454,-0.019651953130960464,-0.012859662994742393
1772785610446852400,3.287852294921875,-0.015999484807252884,-0.01939201168715954,-0.011716109700500965
1772785610456868400,3.297868408203125,-0.009623611345887184,-0.015461452305316925,-0.012360594235360622
1772785610466884600,3.307884521484375,-0.002366358879953623,-0.016300920397043228,-0.02428201027214527
1772785610476900600,3.317900634765625,0.005464133806526661,-0.016084939241409302,-0.03421640023589134
1772785610486917400,3.32791748046875,0.011299284175038338,-0.010176913812756538,-0.03531702607870102
1772785610496933400,3.337933349609375,0.013611439615488052,-0.01036706380546093,-0.037696026265621185
1772785610506949400,3.347949462890625,0.018516836687922478,-0.010949878953397274,-0.046523407101631165
1772785610516965400,3.35796533203125,0.02093285694718361,-0.00947715062648058,-0.04775671660900116
1772785610526982700,3.367982666015625,0.02906573936343193,-0.015410133637487888,-0.051009804010391235
1772785610536998400,3.377998291015625,0.03545413166284561,-0.01845652237534523,-0.0501762330532074
1772785610547014400,3.388014404296875,0.04137421026825905,-0.016127362847328186,-0.03838619589805603
1772785610557030400,3.398030517578125,0.04179339110851288,-0.016608329489827156,-0.026298904791474342
1772785610567047700,3.408047607421875,0.04106204956769943,-0.012723337858915329,-0.022198453545570374
1772785610577063700,3.418063720703125,0.035912297666072845,-0.008805295452475548,-0.02578946016728878
1772785610587079400,3.428079345703125,0.03132002055644989,-0.010643585585057735,-0.0365474559366703
1772785610597095400,3.438095458984375,0.030131982639431953,-0.0041982028633356094,-0.04736281931400299
1772785610607111400,3.448111328125,0.026979418471455574,-0.0016261439304798841,-0.05587007477879524
1772785610617128700,3.458128662109375,0.028119251132011414,-0.0021627710666507483,-0.05856013298034668
1772785610627144400,3.46814453125,0.025198200717568398,0.010364040732383728,-0.048750512301921844
1772785610637160400,3.478160400390625,0.014395618811249733,0.0057035088539123535,-0.027139224112033844
1772785610647176400,3.488176513671875,-0.0014563070144504309,0.012433471158146858,-0.004521420691162348
1772785610657193500,3.498193359375,-0.008069735020399094,0.0161653570830822,0.016437657177448273
1772785610667209500,3.50820947265625,-0.009009771049022675,0.018809890374541283,0.015759699046611786
1772785610677225500,3.5182255859375,-0.005327417515218258,0.011502710171043873,0.0011469335295259953
1772785610687241500,3.528241455078125,0.0006884203758090734,0.010178161785006523,-0.015369359403848648
1772785610697258500,3.538258544921875,0.0009890913497656584,-0.00003106566146016121,-0.02487737499177456
1772785610707274500,3.5482744140625,-0.009249280206859112,-0.005149513483047485,-0.020395401865243912
1772785610717290500,3.55829052734375,-0.017841437831521034,-0.005799591541290283,-0.006599694490432739
1772785610727306500,3.568306396484375,-0.025110287591814995,-0.007214481011033058,0.00794356968253851
1772785610737323500,3.578323486328125,-0.02628713846206665,-0.007712759077548981,0.017647596076130867
1772785610747339500,3.588339599609375,-0.021453414112329483,-0.010355292819440365,0.015579835511744022
1772785610757355500,3.59835546875,-0.014539848081767559,-0.011354511603713036,0.009022866375744343
1772785610767371500,3.60837158203125,-0.013264146633446217,-0.01216229796409607,0.000994700356386602
1772785610777387300,3.61838720703125,-0.01902136765420437,-0.012145519256591797,-0.006276794709265232
1772785610787404500,3.628404541015625,-0.027005096897482872,-0.007134180050343275,-0.006713761016726494
1772785610797420500,3.638420654296875,-0.03185710683465004,-0.010213593021035194,-0.01361268013715744
1772785610807436500,3.6484365234375,-0.02754378132522106,-0.011973618529736996,-0.0118104862049222
1772785610817452500,3.65845263671875,-0.020689869299530983,-0.0183420367538929,-0.0074431682005524635
1772785610827469600,3.668469482421875,-0.012843979522585869,-0.02044295147061348,-0.00572030246257782
1772785610837485600,3.678485595703125,-0.009109694510698318,-0.020723383873701096,0.0028958222828805447
1772785610847501600,3.68850146484375,-0.009221280924975872,-0.018256764858961105,0.007326789665967226
1772785610857517600,3.698517578125,-0.006466506980359554,-0.011064897291362286,0.0058703068643808365
1772785610867534300,3.708534423828125,-0.0025622888933867216,-0.004167734645307064,-0.004694885574281216
1772785610877550600,3.718550537109375,0.0015973022673279047,-0.0016728853806853294,-0.017728928476572037
1772785610887566600,3.728566650390625,0.006985651794821024,-0.004065577406436205,-0.027371270582079887
1772785610897582600,3.73858251953125,0.007749978918582201,-0.004122036509215832,-0.03116654045879841
1772785610907599400,3.748599365234375,0.006284351460635662,-0.005860293284058571,-0.02450226992368698
1772785610917615400,3.758615478515625,0.0041671376675367355,-0.006146582774817944,-0.012627768330276012
1772785610927631400,3.76863134765625,0.006779584102332592,-0.007899593561887741,0.0023246912751346827
1772785610937647600,3.778647705078125,0.009946348145604134,-0.00446171872317791,0.010018297471106052
1772785610947663600,3.78866357421875,0.010314391925930977,-0.002538274275138974,0.007400568574666977
1772785610957680400,3.798680419921875,0.00787280686199665,0.003540923586115241,-0.008283852599561214
1772785610967696400,3.8086962890625,0.004002518020570278,0.01002596691250801,-0.02049875818192959
1772785610977712400,3.81871240234375,-0.001247371081262827,0.010132493451237679,-0.02810048498213291
1772785610987728600,3.828728759765625,-0.005991586484014988,0.007062263786792755,-0.031784817576408386
1772785610997745400,3.838745361328125,-0.007917584851384163,0.008598108775913715,-0.032009586691856384
1772785611007761400,3.848761474609375,-0.00749083049595356,0.007705269381403923,-0.023957395926117897
1772785611017777700,3.858777587890625,-0.0038300491869449615,0.004484708420932293,-0.008613327518105507
1772785611027793700,3.868793701171875,-0.00096104945987463,-0.007086834870278835,0.007375659886747599
1772785611037810700,3.878810791015625,0.00025015627034008503,-0.009825363755226135,0.024167422205209732
1772785611047826400,3.888826416015625,-0.0038707121275365353,-0.01565759815275669,0.029255175963044167
1772785611057842400,3.898842529296875,-0.009397836402058601,-0.02473817765712738,0.022011909633874893
1772785611067858700,3.908858642578125,-0.012081884779036045,-0.022672483697533607,0.012309622019529343
1772785611077874700,3.918874755859375,-0.015900058671832085,-0.022956110537052155,0.010563387535512447
1772785611087891500,3.928891357421875,-0.01886228658258915,-0.018065983429551125,0.010577311739325523
1772785611097907500,3.938907470703125,-0.028765782713890076,-0.009949998930096626,0.013821575790643692
1772785611107923500,3.94892333984375,-0.033182378858327866,-0.006968354806303978,0.014867321588099003
1772785611117939500,3.958939453125,-0.036793891340494156,-0.004484158009290695,0.013816438615322113
1772785611127956700,3.968956787109375,-0.03824140504002571,0.0037871082313358784,0.008916006423532963
1772785611137972500,3.978972412109375,-0.03890692815184593,0.012138515710830688,0.005234186537563801
1772785611147988500,3.988988525390625,-0.03511226922273636,0.017101600766181946,0.001982518471777439
1772785611158004500,3.99900439453125,-0.03186214715242386,0.01826300472021103,-0.005389910191297531
1772785611168021800,4.009021728515625,-0.030325325205922127,0.0159912109375,-0.0031985801178961992
1772785611178037800,4.019037841796875,-0.029600679874420166,0.014293977059423923,0.005472406279295683
1772785611188053500,4.029053466796875,-0.02654672972857952,0.00914202444255352,0.02319861389696598
1772785611198069500,4.039069580078125,-0.02647322602570057,0.008457858115434647,0.033331140875816345
1772785611208085500,4.04908544921875,-0.021456724032759666,0.0016751522198319435,0.030655864626169205
1772785611218102800,4.059102783203125,-0.016088059172034264,-0.007636324502527714,0.02063865028321743
1772785611228118800,4.069118896484375,-0.011442961171269417,-0.008943482302129269,0.009103883989155293
1772785611238134500,4.079134521484375,-0.01025572419166565,-0.008614315651357174,-0.0019282600842416286
1772785611248150500,4.089150634765625,-0.012239720672369003,-0.010786517523229122,-0.01652439683675766
1772785611258167600,4.09916748046875,-0.015688247978687286,-0.0121841449290514,-0.021535933017730713
1772785611268183600,4.10918359375,-0.021317902952432632,-0.005249539390206337,-0.011779443360865116
1772785611278199600,4.119199462890625,-0.029635220766067505,0.0041657998226583,-0.0012839256087318063
1772785611288215600,4.129215576171875,-0.038017164915800095,0.010877242311835289,0.0069604478776454926
1772785611298232600,4.139232666015625,-0.037788666784763336,0.01972426287829876,0.007683495990931988
1772785611308248600,4.14924853515625,-0.0341104231774807,0.025242747738957405,0.007407201454043388
1772785611318264600,4.1592646484375,-0.027715371921658516,0.030355751514434814,-0.003789260983467102
1772785611328280600,4.169280517578125,-0.02362813986837864,0.02862025611102581,-0.015800541266798973
1772785611338296600,4.179296630859375,-0.02267313003540039,0.02947166934609413,-0.018570760264992714
1772785611348313600,4.189313720703125,-0.019131774082779884,0.0362708680331707,-0.017163671553134918
1772785611358329600,4.19932958984375,-0.02067454345524311,0.03547218441963196,-0.02380293235182762
1772785611368345600,4.209345703125,-0.018646521493792534,0.01848611980676651,-0.028933679684996605
1772785611378361300,4.219361328125,-0.01336520817130804,0.025967737659811974,-0.019539911299943924
1772785611388378600,4.229378662109375,-0.01404519472271204,0.03244589641690254,-0.0018506109481677413
1772785611398394600,4.23939453125,-0.020307883620262146,0.02322922833263874,0.002144396770745516
1772785611408410600,4.24941064453125,-0.016788644716143608,0.02313517965376377,0.0042264144867658615
1772785611418426600,4.259426513671875,-0.013574475422501564,0.019600898027420044,0.007816089317202568
1772785611428443600,4.269443603515625,-0.01594635471701622,0.01813759095966816,0.01732870750129223
1772785611438459600,4.279459716796875,-0.021593589335680008,0.013241635635495186,0.023029737174510956
1772785611448475600,4.2894755859375,-0.023607295006513596,0.013443759642541409,0.026080362498760223
1772785611458491600,4.29949169921875,-0.025692550465464592,0.015359903685748577,0.026827910915017128
1772785611468507600,4.309507568359375,-0.025293424725532532,0.016320526599884033,0.019611595198512077
1772785611478524700,4.319524658203125,-0.027662839740514755,0.020652156323194504,0.014670898206532001
1772785611488540700,4.329540771484375,-0.030163731426000595,0.02407563105225563,0.008045967668294907
1772785611498556700,4.339556640625,-0.027104025706648827,0.02022336795926094,-0.0028178647626191378
1772785611508572700,4.34957275390625,-0.029496703296899796,0.01919655315577984,-0.010430109687149525
1772785611518589400,4.35958935546875,-0.029124394059181213,0.022303396835923195,-0.008885475806891918
1772785611528605400,4.36960546875,-0.02976076304912567,0.020705539733171463,-0.011227418668568134
1772785611538621700,4.37962158203125,-0.029541317373514175,0.01726260408759117,-0.014464756473898888
1772785611548637700,4.3896376953125,-0.028309941291809082,0.015257876366376877,-0.016173366457223892
1772785611558654500,4.399654541015625,-0.02426619827747345,0.012284189462661743,-0.015717700123786926
1772785611568670500,4.40967041015625,-0.024479839950799942,0.015680113807320595,-0.009119834750890732
1772785611578686500,4.4196865234375,-0.0262812040746212,0.018876440823078156,-0.004003102891147137
1772785611588702700,4.42970263671875,-0.028093134984374046,0.01842634752392769,-0.0067142522893846035
1772785611598718700,4.43971875,-0.025696823373436928,0.01445850357413292,-0.009943335317075253
1772785611608735500,4.449735595703125,-0.020254084840416908,0.01826019398868084,-0.008277511224150658
1772785611618751500,4.45975146484375,-0.012774331495165825,0.024373481050133705,-0.0034313572105020285
1772785611628767500,4.469767578125,-0.010850651189684868,0.02208591438829899,0.0006367299938574433
1772785611638783700,4.47978369140625,-0.008641825057566166,0.022081121802330017,0.009444335475564003
1772785611648800500,4.489800537109375,-0.005321037489920855,0.019988950341939926,0.012913395650684834
1772785611658816500,4.49981640625,-0.00816289708018303,0.025835655629634857,0.01442367397248745
1772785611668832500,4.50983251953125,-0.012338351458311081,0.028632625937461853,0.012916982173919678
1772785611678848500,4.5198486328125,-0.016894754022359848,0.03226624056696892,0.012276758439838886
1772785611688864500,4.529864501953125,-0.01580612175166607,0.03913010656833649,0.008053058758378029
1772785611698881500,4.539881591796875,-0.009652622044086456,0.041590601205825806,0.004900941625237465
1772785611708897500,4.5498974609375,-0.005991852842271328,0.035764746367931366,0.0031505292281508446
1772785611718913500,4.55991357421875,-0.007262180559337139,0.039852168411016464,-0.002569408155977726
1772785611728929500,4.569929443359375,-0.004167275968939066,0.03532378748059273,-0.008212020620703697
1772785611738946600,4.579946533203125,-0.002269507385790348,0.03624763712286949,-0.011524726636707783
1772785611748962600,4.589962646484375,0.004706157371401787,0.033080559223890305,-0.009847268462181091
1772785611758978600,4.599978515625,0.0009809278417378664,0.030371056869626045,-0.0018958690343424678
1772785611768994600,4.60999462890625,-0.0066744680516421795,0.029640324413776398,0.019310658797621727
1772785611779011600,4.620011474609375,-0.00846384558826685,0.028113801032304764,0.037712302058935165
1772785611789027600,4.630027587890625,-0.004474373068660498,0.027217626571655273,0.041595734655857086
1772785611799043600,4.640043701171875,0.0003395569510757923,0.029408074915409088,0.0364968478679657
1772785611809059600,4.6500595703125,0.0022601597011089325,0.03033841960132122,0.019313139840960503
1772785611819075600,4.66007568359375,0.0008577387779951096,0.03111606277525425,0.005052443593740463
1772785611829092600,4.670092529296875,-0.0020874275360256433,0.03432661294937134,-0.004267988260835409
1772785611839108400,4.6801083984375,-0.002593960613012314,0.029477793723344803,-0.0019523696973919868
1772785611849124600,4.69012451171875,-0.0013224990107119083,0.024354305118322372,0.002001286018639803
1772785611859140600,4.700140625,0.0038075479678809643,0.020050369203090668,0.015543726272881031
1772785611869157600,4.71015771484375,0.013903234153985977,0.020149800926446915,0.017258405685424805
1772785611879173600,4.720173583984375,0.01452428288757801,0.019666969776153564,0.01567728817462921
1772785611889189400,4.730189453125,0.010006070137023926,0.0223772544413805,0.009697044268250465
1772785611899205600,4.74020556640625,0.00886064488440752,0.026627127081155777,0.0032695052213966846
1772785611909222700,4.75022265625,0.006098087877035141,0.023009885102510452,-0.006819196976721287
1772785611919238700,4.76023876953125,-0.0005579504650086164,0.01907666027545929,-0.013723708689212799
1772785611929254700,4.770254638671875,0.0033466939348727465,0.012914923951029778,-0.012838155962526798
1772785611939270400,4.7802705078125,-0.0002355240285396576,0.010452564805746078,-0.0037695597857236862
1772785611949286400,4.790286376953125,-0.009285232983529568,0.008977224119007587,0.00274507119320333
1772785611959303700,4.8003037109375,-0.01582302711904049,0.005648273043334484,0.012399296276271343
1772785611969319700,4.810319580078125,-0.024743331596255302,0.010900076478719711,0.021518558263778687
1772785611979335400,4.82033544921875,-0.03377570956945419,0.01016797311604023,0.022432556375861168
1772785611989352200,4.830352294921875,-0.04715064913034439,0.006240258924663067,0.01775762438774109
1772785611999369200,4.840369140625,-0.05334010347723961,0.0070977965369820595,0.011800931766629219
1772785612009385500,4.850385498046875,-0.05930149555206299,0.0006208945997059345,0.008169041015207767
1772785612019401200,4.860401123046875,-0.06928222626447678,-0.0001303830649703741,0.0011215185513719916
1772785612029417200,4.870417236328125,-0.0793224647641182,-0.006629176437854767,-0.00492379255592823
1772785612039433200,4.88043310546875,-0.08087615668773651,-0.007659819908440113,-0.012116990983486176
1772785612049450200,4.8904501953125,-0.07400427758693695,-0.003033494809642434,-0.014395656064152718
1772785612059466200,4.90046630859375,-0.06462489068508148,-0.0015517121646553278,-0.015410587191581726
1772785612069482200,4.910482177734375,-0.06214430555701256,-0.004536198452115059,-0.014363572932779789
1772785612079498200,4.920498291015625,-0.05890856310725212,-0.018155338242650032,-0.01637399196624756
1772785612089515300,4.930515380859375,-0.05017612501978874,-0.025477495044469833,-0.0038350617978721857
1772785612099531300,4.94053125,-0.03797139227390289,-0.02280927449464798,0.008889788761734962
1772785612109547300,4.95054736328125,-0.02409721538424492,-0.018364466726779938,0.017631322145462036
1772785612119563300,4.960563232421875,-0.0034412054810673,-0.013932167552411556,0.018540523946285248
1772785612129579300,4.970579345703125,0.009215397760272026,-0.010864105075597763,0.007254120893776417
1772785612139596300,4.98059619140625,0.019444067031145096,-0.0173339881002903,-0.014819489791989326
1772785612149612300,4.9906123046875,0.024888206273317337,-0.022257445380091667,-0.03076069802045822
1772785612159628000,5.0006279296875,0.029878968372941017,-0.02811027318239212,-0.026871683076024055
1772785612169644300,5.010644287109375,0.03342903405427933,-0.03296409174799919,-0.011438366957008839
1772785612179661300,5.020661376953125,0.037081822752952576,-0.03458808735013008,0.004698525182902813
1772785612189677300,5.03067724609375,0.040371477603912354,-0.03139989823102951,0.017827235162258148
1772785612199693300,5.040693359375,0.0444951131939888,-0.03091200813651085,0.018234698101878166
1772785612209709000,5.050708984375,0.04332327842712402,-0.02688019908964634,0.01343228854238987
1772785612219725000,5.06072509765625,0.04379891976714134,-0.018867280334234238,0.005653727799654007
1772785612229742300,5.070742431640625,0.039287131279706955,-0.01632186956703663,-0.004531307145953178
1772785612239758300,5.08075830078125,0.03622822463512421,-0.006898008286952972,-0.01158229261636734
1772785612249774300,5.0907744140625,0.031546853482723236,-0.005777250975370407,-0.011686349287629128
1772785612259790000,5.1007900390625,0.024623962119221687,-0.009865202941000462,-0.010065815411508083
1772785612269807400,5.110807373046875,0.01903904788196087,-0.009501948021352291,-0.0037549221888184547
1772785612279823400,5.1208232421875,0.011691918596625328,-0.014075127430260181,-0.0018142767949029803
1772785612289839400,5.13083935546875,0.008085663430392742,-0.010435877367854118,0.004616324789822102
1772785612299855400,5.14085546875,0.007841185666620731,-0.003934567794203758,0.00984277855604887
1772785612309871000,5.15087109375,0.007128071039915085,-0.0022542329970747232,0.005856342613697052
1772785612319888400,5.160888427734375,0.005365057848393917,0.001991644501686096,0.006543970666825771
1772785612329904400,5.170904296875,-0.0029126256704330444,0.003690789919346571,0.006687582470476627
1772785612339920400,5.18092041015625,-0.012533827684819698,0.004385608714073896,0.009435432031750679
1772785612349936000,5.19093603515625,-0.018178362399339676,0.0033439146354794502,0.01415633037686348
1772785612359953200,5.200953125,-0.0196383073925972,-0.001687861979007721,0.011352287605404854
1772785612369969200,5.21096923828125,-0.015977583825588226,-0.0028511076234281063,0.00943773053586483
1772785612379985400,5.2209853515625,-0.011400941759347916,-0.005816271528601646,0.007467522751539946
1772785612390001400,5.23100146484375,-0.009617446921765804,-0.0080052325502038,0.012121564708650112
1772785612400017200,5.24101708984375,-0.006699953693896532,-0.0098356232047081,0.017901157960295677
1772785612410034200,5.2510341796875,-0.005610060878098011,-0.02208319678902626,0.018402937799692154
1772785612420050200,5.26105029296875,-0.0034712760243564844,-0.022893862798810005,0.021680757403373718
1772785612430066400,5.27106640625,-0.002179340925067663,-0.02048809453845024,0.025060752406716347
1772785612440082400,5.28108251953125,0.0004268286284059286,-0.021107546985149384,0.02327084355056286
1772785612450099200,5.29109912109375,-0.0006607840768992901,-0.016766320914030075,0.020861683413386345
1772785612460115200,5.301115234375,0.0014047638978809118,-0.016531962901353836,0.01514387596398592
1772785612470131200,5.311131103515625,0.004925057291984558,-0.01497876737266779,0.009091617539525032
1772785612480147500,5.3211474609375,0.006357039324939251,-0.011316655203700066,0.007299310527741909
1772785612490163200,5.3311630859375,0.011523351073265076,-0.011977329850196838,0.010359111241996288
1772785612500180200,5.34118017578125,0.011864235624670982,-0.008069673553109169,0.020532120019197464
1772785612510196200,5.3511962890625,0.012554341927170753,-0.00462691904976964,0.030666889622807503
1772785612520212200,5.361212158203125,0.014916833490133286,0.0002597153652459383,0.03575832396745682
1772785612530228200,5.371228271484375,0.017125599086284637,0.010620234534144402,0.03362938016653061
1772785612540245200,5.381245361328125,0.01991046778857708,0.022956527769565582,0.02122490666806698
1772785612550261200,5.39126123046875,0.021529657766222954,0.026728443801403046,-0.0005609982181340456
1772785612560277200,5.40127734375,0.023581624031066895,0.028889063745737076,-0.020392492413520813
1772785612570293200,5.411293212890625,0.022171249613165855,0.029014797881245613,-0.0311090387403965
1772785612580309200,5.421309326171875,0.02388366125524044,0.026256561279296875,-0.022799177095294
1772785612590326300,5.431326171875,0.02626631036400795,0.032488107681274414,-0.008223376236855984
1772785612600342300,5.44134228515625,0.026488153263926506,0.03251393884420395,0.004606402013450861
1772785612610358300,5.451358154296875,0.02754300832748413,0.03144953027367592,0.0076197730377316475
1772785612620374300,5.461374267578125,0.026949388906359673,0.03300827741622925,0.006290855351835489
1772785612630390300,5.471390380859375,0.02299773134291172,0.03176337480545044,-0.0015405506128445268
1772785612640407300,5.4814072265625,0.017896447330713272,0.028848547488451004,-0.010091162286698818
1772785612650423300,5.49142333984375,0.01806601881980896,0.028680069372057915,-0.011100959964096546
1772785612660439300,5.501439208984375,0.01915418729186058,0.029220424592494965,-0.008824223652482033
1772785612670455300,5.511455322265625,0.015367798507213593,0.03345682471990585,-0.004957389086484909
1772785612680472000,5.52147216796875,0.013474557548761368,0.034558042883872986,-0.003629803191870451
1772785612690488300,5.53148828125,0.013940496370196342,0.03494195267558098,-0.0038797336164861917
1772785612700504300,5.54150439453125,0.009085020050406456,0.03255176544189453,-0.0034115498419851065
1772785612710520300,5.551520263671875,0.00665816105902195,0.03118954412639141,-0.00028718344401568174
1772785612720536300,5.561536376953125,0.006468543782830238,0.02444562129676342,-0.0008238104055635631
1772785612730553000,5.571552978515625,0.008434038609266281,0.018462546169757843,-0.001068607671186328
1772785612740569300,5.5815693359375,0.010356307961046696,0.017743490636348724,0.005466523580253124
1772785612750585300,5.59158544921875,0.009498121216893196,0.00992630049586296,0.010608060285449028
1772785612760601300,5.601601318359375,0.007628849241882563,0.00950259156525135,0.012563353404402733
1772785612770618000,5.6116181640625,0.01056880597025156,0.013534891419112682,0.012356985360383987
1772785612780634000,5.621634033203125,0.011175474151968956,0.010206473059952259,0.0014244421618059278
1772785612790650000,5.631650146484375,0.011858701705932617,0.0030907101463526487,-0.007841350510716438
1772785612800666400,5.641666259765625,0.012443531304597855,-0.0018345399294048548,-0.011382022872567177
1772785612810682400,5.651682373046875,0.015937911346554756,-0.006150669883936644,-0.004466497339308262
1772785612820699100,5.66169921875,0.020381394773721695,-0.007560546975582838,0.00034290540497750044
1772785612830715100,5.671715087890625,0.018266335129737854,-0.011717898771166801,-0.00018749746959656477
1772785612840731100,5.681731201171875,0.014749099500477314,-0.012267574667930603,-0.005063745658844709
1772785612850747400,5.691747314453125,0.006131005939096212,-0.014419871382415295,-0.006592608988285065
1772785612860764200,5.70176416015625,-0.0034097686875611544,-0.012934359721839428,-0.005124408286064863
1772785612870780200,5.7117802734375,-0.010479708202183247,-0.00852624885737896,-0.0015106964856386185
1772785612880796200,5.721796142578125,-0.014116521924734116,-0.007282286416739225,0.0030523636378347874
1772785612890812200,5.731812255859375,-0.011254999786615372,-0.0037375723477452993,0.009004863910377026
1772785612900828400,5.741828369140625,-0.015850551426410675,-0.0014381988439708948,0.010660018771886826
1772785612910845200,5.75184521484375,-0.016396651044487953,0.0003426726907491684,0.0050985002890229225
1772785612920861200,5.761861083984375,-0.01903025060892105,-0.0005449587479233742,-0.0036561088636517525
1772785612930877200,5.771877197265625,-0.024262597784399986,0.002783961361274123,-0.010446385480463505
1772785612940893200,5.78189306640625,-0.028752954676747322,0.003235100768506527,-0.006009292788803577
1772785612950909200,5.7919091796875,-0.027001796290278435,0.011183078400790691,0.00012693810276687145
1772785612960926200,5.80192626953125,-0.022421693429350853,0.01829718053340912,0.0035624157171696424
1772785612970942200,5.811942138671875,-0.02271503582596779,0.019266266375780106,0.0005242399638518691
1772785612980958200,5.821958251953125,-0.022632477805018425,0.015399621799588203,-0.012566261924803257
1772785612990974200,5.83197412109375,-0.024123186245560646,0.010095177218317986,-0.02124839276075363
1772785613000991200,5.8419912109375,-0.029046040028333664,0.00620989128947258,-0.018375907093286514
1772785613011007200,5.85200732421875,-0.03310853987932205,-0.0008369507268071175,-0.012983396649360657
1772785613021023200,5.862023193359375,-0.039219167083501816,-0.008320166729390621,0.0018128599040210247
1772785613031039200,5.872039306640625,-0.03823881968855858,-0.013830482959747314,0.01573880948126316
1772785613041055200,5.88205517578125,-0.035102151334285736,-0.019565600901842117,0.01887335069477558
1772785613051072300,5.892072265625,-0.03572085499763489,-0.02179657109081745,0.014682652428746223
1772785613061088300,5.902088134765625,-0.03599276393651962,-0.023385146632790565,0.007370145060122013
1772785613071104300,5.912104248046875,-0.04320496320724487,-0.02662062831223011,-0.001978376880288124
1772785613081120300,5.922120361328125,-0.05112360790371895,-0.028919734060764313,-0.0038005118258297443
1772785613091136300,5.93213623046875,-0.05813221633434296,-0.030185768380761147,-0.0004534364561550319
1772785613101153000,5.942153076171875,-0.060780998319387436,-0.026692500337958336,0.01131853461265564
1772785613111169300,5.952169189453125,-0.06290673464536667,-0.02112766169011593,0.020201610401272774
1772785613121185300,5.962185302734375,-0.058659255504608154,-0.011662786826491356,0.022489000111818314
1772785613131201300,5.972201171875,-0.056074440479278564,-0.0016335411928594112,0.01637844368815422
1772785613141218300,5.98221826171875,-0.05191005393862724,0.011033784598112106,0.0032338807359337807
1772785613151234000,5.992234130859375,-0.05317005142569542,0.019867349416017532,-0.008508909493684769
1772785613161250300,6.002250244140625,-0.0531679205596447,0.013126887381076813,-0.018056342378258705
1772785613171266300,6.012266357421875,-0.055341385304927826,0.006579364649951458,-0.018946483731269836
1772785613181282300,6.0222822265625,-0.05168992280960083,0.00687577435746789,-0.008225662633776665
1772785613191299300,6.03229931640625,-0.04643718898296356,0.00670860568061471,0.00983295775949955
1772785613201315000,6.042315185546875,-0.04076278954744339,0.009459384717047215,0.024373285472393036
1772785613211331000,6.0523310546875,-0.03350002318620682,0.015425742603838444,0.025822488591074944
1772785613221347300,6.062347412109375,-0.0288781076669693,0.02476598136126995,0.016761083155870438
1772785613231363300,6.07236328125,-0.029271608218550682,0.027351129800081253,-0.0023881513625383377
1772785613241380000,6.082380126953125,-0.03346315771341324,0.01741034723818302,-0.023542439565062523
1772785613251396000,6.09239599609375,-0.03243514522910118,0.015413008630275726,-0.02366066724061966
1772785613261412000,6.102412109375,-0.03128679096698761,0.018355799838900566,-0.010031408630311489
1772785613271428400,6.112428466796875,-0.034137655049562454,0.0141224954277277,0.0005952325882390141
1772785613281445400,6.1224453125,-0.037816811352968216,0.009852382354438305,0.0037292405031621456
1772785613291461000,6.132461181640625,-0.03782559186220169,0.007759858388453722,0.007049319799989462
1772785613301477000,6.14247705078125,-0.04057424142956734,-0.0015923641622066498,0.011919442564249039
1772785613311493000,6.1524931640625,-0.03746047988533974,0.005735668353736401,0.020771341398358345
1772785613321509400,6.16250927734375,-0.030791128054261208,-0.00559475040063262,0.01983071304857731
1772785613331526400,6.1725263671875,-0.027021585032343864,-0.011192519217729568,0.014057455584406853
1772785613341542100,6.182542236328125,-0.0220571868121624,-0.0075815399177372456,0.009786544367671013
1772785613351558100,6.19255810546875,-0.0258996170014143,-0.009782752953469753,0.004293675534427166
1772785613361574100,6.20257421875,-0.027306033298373222,-0.011122056283056736,-0.0015530281234532595
1772785613371590100,6.212590087890625,-0.02820437215268612,-0.008639334701001644,0.0007283895974978805
1772785613381607200,6.222607177734375,-0.02579847350716591,0.0005688110832124949,0.004152682144194841
1772785613391623200,6.232623046875,-0.028837040066719055,0.011338464915752411,0.004733826965093613
1772785613401639200,6.24263916015625,-0.03530345857143402,0.020800942555069923,0.0005340218776836991
1772785613411655200,6.2526552734375,-0.04034748300909996,0.024784596636891365,-0.0076270680874586105
1772785613421672400,6.26267236328125,-0.04526687413454056,0.027604883536696434,-0.013852206990122795
1772785613431688200,6.272688232421875,-0.04694966971874237,0.025782626122236252,-0.009672795422375202
1772785613441704200,6.2827041015625,-0.04172801226377487,0.028073212131857872,0.002151905093342066
1772785613451720200,6.29272021484375,-0.0368206650018692,0.029671134427189827,0.014343311078846455
1772785613461736200,6.302736083984375,-0.030508970841765404,0.03137875348329544,0.024913663044571877
1772785613471753500,6.31275341796875,-0.024026300758123398,0.02740141935646534,0.02384510450065136
1772785613481769200,6.322769287109375,-0.021435577422380447,0.02817906253039837,0.01987433061003685
1772785613491785200,6.33278515625,-0.014443800784647465,0.027229994535446167,0.013859570026397705
1772785613501801200,6.34280126953125,-0.01231060829013586,0.030411940068006516,0.005188850220292807
1772785613511817200,6.352817138671875,-0.00569041445851326,0.028662536293268204,0.0032211504876613617
1772785613521834200,6.362834228515625,0.00025455979630351067,0.03050650842487812,0.00893176719546318
1772785613531850200,6.372850341796875,0.007657937705516815,0.03159375488758087,0.021041804924607277
1772785613541866200,6.3828662109375,0.013067350722849369,0.03651314601302147,0.032595131546258926
1772785613551882200,6.39288232421875,0.01435115560889244,0.030749337747693062,0.03379068151116371
1772785613561898200,6.402898193359375,0.013486959040164948,0.020612813532352448,0.027170859277248383
1772785613571915300,6.412915283203125,0.01734723336994648,0.01807333342730999,0.0114524494856596
1772785613581931300,6.42293115234375,0.011964719742536545,0.01705866865813732,0.0007452105637639761
1772785613591947300,6.432947265625,0.007077563554048538,0.020071160048246384,-0.011500353924930096
1772785613601963300,6.44296337890625,0.004574458114802837,0.020806457847356796,-0.023925332352519035
1772785613611980300,6.452980224609375,0.0018087998032569885,0.01652519218623638,-0.0347910150885582
1772785613621996300,6.462996337890625,-0.004234445281326771,0.004750823602080345,-0.03539634868502617
1772785613632012000,6.473011962890625,-0.008363478817045689,-0.006077918689697981,-0.02061636932194233
1772785613642028300,6.4830283203125,-0.017979353666305542,-0.019552981480956078,0.008459757082164288
1772785613652044300,6.493044189453125,-0.03336634859442711,-0.02981020137667656,0.04029322415590286
1772785613662061300,6.503061279296875,-0.04372284561395645,-0.043500445783138275,0.06188826635479927
1772785613672077000,6.5130771484375,-0.05088792368769646,-0.053605467081069946,0.06621504575014114
1772785613682093000,6.523093017578125,-0.04921412840485573,-0.06865711510181427,0.0643785297870636
1772785613692109300,6.533109375,-0.04971487820148468,-0.07887699455022812,0.05264640599489212
1772785613702125300,6.543125244140625,-0.05748545005917549,-0.08212658017873764,0.035346247255802155
1772785613712142300,6.553142333984375,-0.05984053015708923,-0.06936813145875931,0.018535111099481583
1772785613722158000,6.563157958984375,-0.05784502252936363,-0.05080456659197807,-0.0004162086988799274
1772785613732174000,6.573174072265625,-0.058388687670230865,-0.037083279341459274,-0.01215075422078371
1772785613742190300,6.5831904296875,-0.056037917733192444,-0.015616602264344692,-0.005340253468602896
1772785613752206300,6.593206298828125,-0.04526333883404732,-0.00304128834977746,0.004987838678061962
1772785613762223400,6.603223388671875,-0.03226178511977196,0.014080706983804703,0.0024567702785134315
1772785613772239000,6.613239013671875,-0.01815977320075035,0.03914074972271919,-0.012500792741775513
1772785613782255000,6.623255126953125,-0.0010364456102252007,0.0510844960808754,-0.03991110995411873
1772785613792271000,6.63327099609375,0.010532448068261147,0.0439106784760952,-0.07851535081863403
1772785613802287400,6.643287353515625,0.02584429271519184,0.02730240859091282,-0.10358741879463196
1772785613812304400,6.653304443359375,0.04219943657517433,0.013509857468307018,-0.10647539049386978
1772785613822320000,6.663320068359375,0.051612380892038345,0.0033112824894487858,-0.09296570718288422
1772785613832336100,6.673336181640625,0.0580490306019783,-0.0005644417833536863,-0.057065218687057495
1772785613842352000,6.68335205078125,0.06215216964483261,0.0075075989589095116,-0.016434703022241592
1772785613852369400,6.693369384765625,0.06064274162054062,0.01053069718182087,0.010517398826777935
1772785613862385200,6.70338525390625,0.05072220042347908,0.015799228101968765,0.020758850499987602
1772785613872401200,6.713401123046875,0.041121095418930054,0.016643129289150238,0.015692483633756638
1772785613882417200,6.723417236328125,0.0259245652705431,0.01690198853611946,-0.0026188804768025875
1772785613892433200,6.73343310546875,0.015075307339429855,0.027360327541828156,-0.02257707342505455
1772785613902450400,6.743450439453125,0.0058346702717244625,0.04497367888689041,-0.038075339049100876
1772785613912466200,6.753466064453125,0.0001656441017985344,0.061240486800670624,-0.03923708200454712
1772785613922482200,6.763482177734375,-0.015018369071185589,0.06574628502130508,-0.03408386558294296
1772785613932498200,6.773498291015625,-0.03291022777557373,0.06492005288600922,-0.02217222936451435
1772785613942514200,6.78351416015625,-0.05320005118846893,0.07164213806390762,-0.0020413955207914114
1772785613952531500,6.793531494140625,-0.062342360615730286,0.07385572791099548,0.009158008731901646
1772785613962547200,6.803547119140625,-0.06052475422620773,0.07120854407548904,0.007083673030138016
1772785613972563200,6.813563232421875,-0.0532987117767334,0.07143792510032654,-0.00022366235498338938
1772785613982579200,6.8235791015625,-0.046836018562316895,0.06979502737522125,-0.0071883611381053925
1772785613992594200,6.83359423828125,-0.05028696358203888,0.06828623265028,-0.010570406913757324
1772785614002611200,6.843611083984375,-0.0462123267352581,0.06250477582216263,-0.008489679545164108
1772785614012627200,6.853627197265625,-0.03796594589948654,0.05870524048805237,-0.0004962298553436995
1772785614022643200,6.863643310546875,-0.03229953721165657,0.04840706288814545,0.00608470756560564
1772785614032659200,6.8736591796875,-0.02619968354701996,0.05107330530881882,0.02010958641767502
1772785614042675200,6.88367529296875,-0.020704250782728195,0.056661415845155716,0.03491995856165886
1772785614052692200,6.893692138671875,-0.011389107443392277,0.06457741558551788,0.0341004878282547
1772785614062708200,6.903708251953125,0.0007658260874450207,0.0763334110379219,0.020063232630491257
1772785614072724200,6.91372412109375,0.021056078374385834,0.08348407596349716,-0.010795822367072105
1772785614082740200,6.923740234375,0.028523314744234085,0.0860883817076683,-0.04571305960416794
1772785614092756200,6.933756103515625,0.0215064138174057,0.08307304978370667,-0.06231921538710594
1772785614102773200,6.943773193359375,0.018038179725408554,0.055880848318338394,-0.06478290259838104
1772785614112789200,6.953789306640625,0.02245178446173668,0.038372643291950226,-0.05503663048148155
1772785614122805000,6.963804931640625,0.03231054171919823,0.0361691415309906,-0.023177770897746086
1772785614132821200,6.9738212890625,0.037393856793642044,0.029112258926033974,0.006540668662637472
1772785614142837200,6.983837158203125,0.03642153739929199,0.014589509926736355,0.023659469559788704
1772785614152854300,6.993854248046875,0.02827879786491394,-0.0020927416626363993,0.026260972023010254
1772785614162870300,7.003870361328125,0.019948698580265045,-0.015124388039112091,0.02262895181775093
1772785614172886000,7.013885986328125,0.01167908962816,-0.015219336375594139,0.016899721696972847
1772785614182902000,7.023902099609375,0.007577288895845413,-0.009782759472727776,0.008951516821980476
1772785614192918300,7.033918212890625,0.0020785927772521973,0.0020887486170977354,0.002453108783811331
1772785614202935300,7.043935302734375,-0.0054472340270876884,0.008516820147633553,-0.015866510570049286
1772785614212951300,7.053951416015625,-0.007551409304141998,0.004635075107216835,-0.0419909693300724
1772785614222967000,7.063967041015625,-0.013274808414280415,-0.013126078993082047,-0.06610216200351715
1772785614232983000,7.073983154296875,-0.016127508133649826,-0.029622511938214302,-0.07954639196395874
1772785614243000300,7.084000244140625,-0.017335519194602966,-0.041911136358976364,-0.08559256792068481
1772785614253016300,7.094016357421875,-0.01619018241763115,-0.04618515074253082,-0.08383980393409729
1772785614263032300,7.1040322265625,-0.020263753831386566,-0.04845709353685379,-0.06848934292793274
