time,seconds_elapsed,z,y,x
1772733368354827800,0.045827880859375,0.0726321054905653,-0.010442921950668095,-0.02176221574391238
1772733368364843800,0.05584375,0.029393267744779586,-0.024692615773156283,-0.0284577039277181
1772733368374858800,0.065858642578125,0.00665536623597145,-0.009229600638151168,-0.05618964173099957
1772733368384874800,0.075874755859375,0.015651158118247986,-0.008815649542398751,-0.07634504333278164
1772733368394890800,0.085890869140625,0.03241875304579735,0.0009143383659422397,-0.06274690875420347
1772733368404905700,0.09590576171875,-0.12274725874662398,0.025470650940947234,0.05904739664914086
1772733368414921700,0.105921630859375,0.20974983489513396,-0.01418773450218141,0.1194892524645198
1772733368424937700,0.115937744140625,0.2387789455026388,0.04985208187308162,0.08658258803761563
1772733368434952700,0.12595263671875,0.06849018338024616,0.12139021811448036,0.10833434631959535
1772733368444968700,0.13596875,-0.05137538245022297,-0.02518405255191028,0.032793669039104134
1772733368454984700,0.145984619140625,0.07880641021132469,-0.0809701275838539,-0.0924967805174645
1772733368464999700,0.155999755859375,-0.0037912089765071866,0.016197576487250624,-0.13515253027882426
1772733368475016000,0.166015869140625,-0.09955109207630157,0.016693104919232427,-0.11300642978386022
1772733368485031000,0.176031005859375,0.03259001795947552,-0.06706354811061173,-0.00048506183689460153
1772733368495047000,0.186046875,0.1300064360946417,-0.01950593385025859,0.050449974700994785
1772733368505063000,0.19606298828125,0.1415291161060333,0.08269121575541794,0.05223546074512414
1772733368515078000,0.206077880859375,0.09677987379729747,0.06320164851807057,0.13055237953960894
1772733368525094000,0.216093994140625,0.11113982306122779,-0.03687759561818093,0.06305180998491124
1772733368535109600,0.226109619140625,0.0750713153362274,-0.0231049081902951,-0.04220733014042489
1772733368545124900,0.236124755859375,-0.04479191240668297,0.03873666748832911,-0.07966358416308648
1772733368555140600,0.246140625,-0.016059738919138908,-0.012560242898203431,-0.09720659304307773
1772733368565156600,0.256156494140625,0.00893500160574913,-0.08756477660853415,-0.05063884833659976
1772733368575171600,0.266171630859375,0.07343699213266372,0.009478241636976598,0.005592221383331343
1772733368585187600,0.2761875,0.07508183673024177,0.08346789921633899,0.06264212407232261
1772733368595203800,0.286203857421875,0.16725509351491927,0.027092516521736977,0.0690506394077558
1772733368605218800,0.29621875,0.11247837818861008,-0.028043972027674315,0.08517375328615308
1772733368615234800,0.30623486328125,0.05351356352269649,0.0260921803727746,0.00830909739290364
1772733368625250800,0.316250732421875,-0.003503624206781387,0.03529018029626459,-0.07142332335584796
1772733368635265800,0.326265869140625,0.04856909285783768,-0.03932951881494373,-0.09347593688108026
1772733368645281800,0.33628173828125,-0.03462356961369514,-0.06572115705832839,-0.07218751266137696
1772733368655297800,0.3462978515625,0.024784312644600865,0.010774126666411758,-0.01956342705800198
1772733368665312800,0.356312744140625,0.08673603416681289,0.0465717084955424,0.019422274154797196
1772733368675328800,0.366328857421875,0.158560914927721,0.01649491546601057,0.06170138175664469
1772733368685344800,0.3763447265625,0.058598903962969774,0.0029135128265246747,0.09853894675853661
1772733368695359700,0.38635986328125,0.07280512396991252,0.0172802571574226,0.03609117621453479
1772733368705375700,0.396375732421875,0.06666589056253433,0.0178878311291337,-0.046883149064891036
1772733368715392000,0.40639208984375,0.013992869517207145,-0.011429229574277996,-0.06674807068696245
1772733368725407000,0.416406982421875,-0.04346504771709442,-0.048844146939553315,-0.048376337631559
1772733368735423000,0.426423095703125,0.027916180929541585,-0.014595913444273172,-0.039635516024194656
1772733368745438700,0.436438720703125,0.08657704421281814,0.01885886811837554,-0.006604047040687873
1772733368755454000,0.446453857421875,0.10453531022965908,0.03585848170351237,0.07349173626089468
1772733368765469700,0.4564697265625,0.08762626100480556,0.009510792199708521,0.08819040682674385
1772733368775485000,0.46648486328125,0.11246025801002979,0.013452734758518636,0.03936051674140617
1772733368785500700,0.476500732421875,0.056494040638208384,0.023277963202260433,-0.013041149149788543
1772733368795516700,0.4865166015625,-0.008898176726698875,-0.018074658938124776,-0.03442069485220126
1772733368805531600,0.49653173828125,-0.006353168419003487,-0.05010309749208391,-0.05257978067076765
1772733368815547600,0.506547607421875,0.03151040602922439,-0.01680924211218953,-0.05751209510695189
1772733368825563600,0.516563720703125,0.04528174175024032,0.023281506866216658,-0.018302056219521908
1772733368835578600,0.52657861328125,0.07506020942032336,0.02960095567870885,0.04068369163656607
1772733368845595000,0.536594970703125,0.1033405474871397,-0.006762881731055676,0.07638766776495613
1772733368855611000,0.54661083984375,0.1127647939145565,0.030197789060696957,0.04318775601251982
1772733368865625900,0.5566259765625,0.06577215659320354,0.03808273362424224,-0.000028312779031693933
1772733368875641900,0.566641845703125,0.04257598992288113,-0.010813837622292339,-0.034243392923381175
1772733368885657900,0.576657958984375,0.007563128730654716,-0.042850569080561396,-0.04137595735020004
1772733368895672800,0.5866728515625,0.01280278294980526,-0.013416750129684804,-0.05610007288455963
1772733368905688800,0.596688720703125,0.028218963268399237,0.018295498614571987,-0.04013225003257394
1772733368915704800,0.606704833984375,0.0895721343755722,0.0034384134834632278,0.026437678475352003
1772733368925719800,0.6167197265625,0.08119418213069439,-0.0013820654755458235,0.07609969940274022
1772733368935735800,0.62673583984375,0.09929916314184666,0.03392382384650409,0.06063421831601299
1772733368945751600,0.63675146484375,0.08403262042701244,0.03378671693075448,0.02253865260966122
1772733368955766800,0.646766845703125,0.04736497776508331,-0.004757606323249638,-0.011768151805596426
1772733368965782800,0.65678271484375,0.016388824743032455,-0.02733399712741375,-0.03405627285344526
1772733368975798800,0.666798828125,0.0030757541835308073,0.00266498142555356,-0.06407481462340801
1772733368985813800,0.676813720703125,0.04063713081479072,0.013270911918208003,-0.05473595405765809
1772733368995829800,0.686829833984375,0.055302785027027124,-0.0024112989254295824,0.013487796938745304
1772733369005845800,0.696845703125,0.07221300329566001,0.011073255743458866,0.056610908483527594
1772733369015860700,0.70686083984375,0.11006897895932197,0.025303587278351185,0.05789287458546459
1772733369025876700,0.716876708984375,0.09854922155737876,0.03026888153553009,0.030691700924327596
1772733369035891700,0.7268916015625,0.04856909285783768,-0.006578976531513035,-0.003995298447553068
1772733369045907700,0.73690771484375,0.01085866314470768,-0.016572656877338884,-0.03328406463824212
1772733369055923700,0.746923828125,0.015196984609961509,-0.005788629871420562,-0.04805661329105496
1772733369065938700,0.756938720703125,0.025077742633223533,0.0016113441867753862,-0.051414472351595755
1772733369075954700,0.76695458984375,0.04468377585709095,-0.014581336929649113,-0.0044556459682993585
1772733369085971000,0.776970947265625,0.0680307491749525,0.00034019173979759216,0.040912157497042786
1772733369095986000,0.78698583984375,0.09137479988336562,0.03383369787763804,0.05636802137205377
1772733369106002000,0.797001953125,0.09481588024795055,0.024061149469204245,0.0451435571222566
1772733369116018000,0.807017822265625,0.05096797069311142,0.004060162110999226,0.015367162678251042
1772733369126033000,0.817032958984375,0.024625322690606116,-0.015163082340359686,-0.008812873063422738
1772733369136049000,0.827048828125,0.028064064967632293,-0.008212496017478406,-0.05697692878432572
1772733369146064600,0.837064697265625,0.028811668464541435,0.006501819642074406,-0.0461397742185276
1772733369156079900,0.847079833984375,0.03285305280983448,-0.007822108460403978,-0.011471424748189747
1772733369166095600,0.857095703125,0.05440320583879947,-0.005597783474437892,0.015508753972873091
1772733369176111600,0.867111572265625,0.08956921176612377,0.011279884231463075,0.030178563770418984
1772733369186126600,0.877126708984375,0.07819733840227126,0.03174677206836641,0.04863258654810488
1772733369196142600,0.887142578125,0.07774550298154354,0.008289141450263559,0.019130552066070956
1772733369206158800,0.897158935546875,0.04736497776508331,-0.004658054938912391,0.0002044547972269356
1772733369216173800,0.907173828125,0.018480244064331054,-0.005459288319200277,-0.045539643767755475
1772733369226189600,0.917189453125,0.025664018088579175,-0.0029340806905180216,-0.05037047059084288
1772733369236205600,0.92720556640625,0.03628887247741222,-0.013521379547938703,-0.017730083284154534
1772733369246220500,0.937220458984375,0.056790393236279484,-0.00033430998828262086,0.005629959577834233
1772733369256236500,0.947236572265625,0.08762100030779837,0.027255378933250904,0.023054127851128578
1772733369266251500,0.95725146484375,0.10183365005552768,0.02398004705701023,0.04531513256318867
1772733369276267500,0.967267578125,0.07878244481384754,-0.0003144727766513824,0.03386644023661502
1772733369286283500,0.977283447265625,0.053639820250868796,-0.002059124486893415,0.004486716959998012
1772733369296298500,0.987298583984375,0.03747954356670379,-0.002675685482658446,-0.021091230280324814
1772733369306314500,0.997314453125,0.03748012808859348,-0.009897270766645669,-0.039886668640514836
1772733369316330800,1.007330810546875,0.02596095520853996,-0.003496938737668097,-0.02934675258877687
1772733369326345700,1.017345703125,0.03853577462136745,-0.013275405430234968,-0.013094779033167287
1772733369336361700,1.02736181640625,0.07220657355487346,0.017492073277197775,0.012486611406411975
1772733369346377700,1.037377685546875,0.07998597538471222,0.011094225466251372,0.027781074174633248
1772733369356392700,1.047392822265625,0.08656301568746566,0.0065849678808823225,0.0353759954161942
1772733369366408700,1.05740869140625,0.053937926414608955,0.00649111558496952,0.018876202845666556
1772733369376424400,1.067424560546875,0.04495499401390552,0.016889760002493856,-0.017362099355133248
1772733369386439700,1.077439697265625,0.04001636856794357,0.0039943668657913805,-0.021277071708627044
1772733369396455400,1.087455322265625,0.028347558084130284,-0.006372603771835565,-0.020038835150562227
1772733369406471400,1.097471435546875,0.029249475359916684,-0.006576638443954288,-0.02030221706079319
1772733369416486400,1.107486328125,0.0708498982489109,0.0035749358773231503,0.007968394196452573
1772733369426502400,1.11750244140625,0.081476506203413,0.023275259788520634,0.03832404983313754
1772733369436518700,1.1275185546875,0.07070084516704082,0.005955401273071766,0.04538283663769253
1772733369446533600,1.13753369140625,0.06890402487814426,0.0030946780797094105,0.015268159283185376
1772733369456549600,1.147549560546875,0.05813304001688957,0.0010607245666906238,-0.00428260008948855
1772733369466565600,1.157565673828125,0.03987666783630848,-0.010465206847712396,-0.021152239752560854
1772733369476580600,1.16758056640625,0.023713468542695043,-0.018040026016160844,-0.03477679654718376
1772733369486596600,1.1775966796875,0.02850596351623535,-0.011683569661527872,-0.033926362863462414
1772733369496611600,1.187611572265625,0.06053133333027363,0.014910020894743501,-0.006790536922961473
1772733369506627600,1.197627685546875,0.08312778054177761,0.008333893907442689,0.026482924122875555
1772733369516643600,1.2076435546875,0.08208382444679736,-0.002519581605494022,0.02556035678470507
1772733369526658600,1.217658447265625,0.07220832712054252,0.0022142419833689926,0.020434656934579833
1772733369536674600,1.227674560546875,0.07549684727191924,0.002551876439899206,0.005627721954975277
1772733369546690600,1.237690673828125,0.04272212039530277,-0.006945946680381894,-0.007215155543200671
1772733369556705500,1.24770556640625,0.03074994305074215,-0.007670644225738942,-0.026181319960951802
1772733369566721800,1.2577216796875,0.048403088641166686,0.008733853010460734,-0.01958678966728039
1772733369576737500,1.267737548828125,0.04915712187886238,0.007123312541283667,0.00429427226097323
1772733369586752800,1.277752685546875,0.06472177075743675,0.006664316727407276,0.015067394280387088
1772733369596768500,1.2877685546875,0.07250000354349613,0.006260558232106268,0.03922658816343173
1772733369606784500,1.297784423828125,0.08028115893900394,-0.0004807692542672157,0.041341726287035266
1772733369616799500,1.307799560546875,0.06262041456401347,0.00319627529066056,0.009939511606330052
1772733369626815500,1.3178154296875,0.04660568383038044,-0.003608692016452551,-0.009338413041178136
1772733369636831500,1.32783154296875,0.037628596648573875,-0.00903276289179921,-0.02968689866280183
1772733369646846500,1.337846435546875,0.04376549196839332,-0.004269201751798391,-0.020734160470962524
1772733369656862500,1.347862548828125,0.060226212903857226,0.003642557753436267,-0.008307983148051425
1772733369666878500,1.35787841796875,0.04810673604309559,0.005117123818024993,-0.00026843254468403755
1772733369676893400,1.3678935546875,0.0626239216953516,0.002091382788680494,0.017632732990058138
1772733369686909700,1.37790966796875,0.07160100887715816,0.003435198613069951,0.02580232144757174
1772733369696924400,1.38792431640625,0.06396890656352043,0.009416391914524137,0.00953262957218103
1772733369706940700,1.397940673828125,0.038380876320600506,0.012394786670804023,-0.013029157317895442
1772733369716956700,1.407956787109375,0.041076691275835034,-0.008929046788997948,-0.03706075189905241
1772733369726971600,1.4179716796875,0.044671500897407526,-0.01763893440198153,-0.014749021646752953
1772733369736987600,1.427987548828125,0.03823649941384792,0.006005889351293444,-0.017286814762372524
1772733369747003600,1.438003662109375,0.04991173963844776,0.00593578325714916,0.004963787286682054
1772733369757018600,1.4480185546875,0.0523106174737215,-0.002202916871756315,0.022922975752130148
1772733369767034600,1.45803466796875,0.06996610115170479,0.011141206413134931,0.03465074988156557
1772733369777050400,1.46805029296875,0.06637246057391166,0.008622647720947861,0.01333139166748151
1772733369787065600,1.478065673828125,0.0549988336443901,0.0011127835474908352,0.015595473275100812
1772733369797081300,1.488081298828125,0.04152794217467308,-0.0019769991613924503,0.008036226135119796
1772733369807097600,1.49809765625,0.04227671471536159,0.004752747485041618,-0.015165009435964747
1772733369817112600,1.508112548828125,0.04317161772847175,-0.004617394134961069,-0.017070715193124485
1772733369827128600,1.518128662109375,0.0479576829612255,0.00037486119437962767,0.007008106930088251
1772733369837144600,1.52814453125,0.07713818473815917,0.0011278349861502646,0.017697450523031875
1772733369847159600,1.53815966796875,0.07055413017272949,0.008156418448686599,0.02233301050234586
1772733369857175600,1.548175537109375,0.07698620904684067,0.016133461742475628,0.022397636703774332
1772733369867190500,1.5581904296875,0.057384267476201054,0.005357618043012917,0.002311464413302019
1772733369877206500,1.56820654296875,0.0422720385402441,-0.004124678714573383,-0.007954046010691673
1772733369887222500,1.578222412109375,0.04047872538268566,-0.008218670029938221,-0.01619508313606493
1772733369897237500,1.588237548828125,0.04781096796691418,-0.0019318083127960561,-0.029515368887642397
1772733369907253500,1.59825341796875,0.0346428588360548,0.0031796529494225977,-0.014185533411940558
1772733369917269500,1.60826953125,0.04901099140644073,0.0031557606171816587,0.011583041029656306
1772733369927284500,1.618284423828125,0.06846329537332058,-0.0014591127671301364,0.022346938562998547
1772733369937300700,1.62830078125,0.0702612847059965,0.01373359752651304,0.01651159260617569
1772733369947316700,1.638316650390625,0.054850365084409713,0.00818714238051325,0.011200197458220646
1772733369957331700,1.648331787109375,0.040485739645361896,0.0026246859477832914,-0.0002910371021367609
1772733369967347700,1.65834765625,0.038840310525894164,-0.006957235259376466,-0.015714259082870555
1772733369977363700,1.66836376953125,0.03898761004209518,-0.002607296421565115,-0.009026661944575607
1772733369987378700,1.678378662109375,0.03569382919371128,-0.00003415799792855978,0.0013481358064804225
1772733369997394700,1.688394775390625,0.057094929140806196,-0.0038277050619944927,0.010433478268887847
1772733370007410400,1.698410400390625,0.07130816341042519,0.0023790771562606093,0.01052905673100613
1772733370017425700,1.70842578125,0.06008300504088401,0.012322707815282045,0.012443521183356641
1772733370027441400,1.71844140625,0.05648877994120121,0.005811718486063182,0.017072779286047442
1772733370037457400,1.72845751953125,0.046914311388134955,0.009928177361562847,0.00844600337925367
1772733370047472400,1.738472412109375,0.05349836595356464,0.007222462066821754,-0.007537930357316509
1772733370057488600,1.748488525390625,0.043919221225380896,-0.0049632849631831046,-0.013441190451197325
1772733370067503400,1.75850341796875,0.050801966476440426,0.002230170204862952,-0.011796071858983487
1772733370077519600,1.76851953125,0.054991819381713866,-0.0015082491384819149,-0.00024577318830415603
1772733370087535600,1.77853564453125,0.06831073516011238,0.009231463801674545,0.010065713535575196
1772733370097550600,1.788550537109375,0.07055062304139137,0.023085436304844914,0.023330771101731807
1772733370107566600,1.798566650390625,0.05767886650860309,-0.0018529343903064726,0.019050152906775475
1772733370117582600,1.80858251953125,0.0642617520302534,-0.0019985168734565377,0.011908756719529628
1772733370127597600,1.81859765625,0.04136719865500927,0.008477467096596955,-0.012320680254977196
1772733370137613600,1.828613525390625,0.05543137984275818,0.003747223704308271,-0.026581525659142062
1772733370147629600,1.838629638671875,0.04765197801291942,-0.004641688326001167,-0.007202232129545882
1772733370157644500,1.84864453125,0.04166588934063911,-0.0017818053828552365,-0.0003481467173900455
1772733370167660500,1.85866064453125,0.07039455569684505,-0.0062275692779570815,0.0021943591059651224
1772733370177676800,1.8686767578125,0.06920154651999473,-0.006304287775978446,0.0039194201997481285
1772733370187691500,1.87869140625,0.059475686797499656,-0.0013902487820014356,0.02341607476500794
1772733370197707800,1.888707763671875,0.05932897180318832,0.009152370683476328,-0.00380304554477334
1772733370207723500,1.8987236328125,0.06232406196594238,-0.006658142714947462,-0.009360624872986226
1772733370217738800,1.90873876953125,0.03583762157857418,0.009476597669161856,-0.022265425158850848
1772733370227755500,1.918755615234375,0.04211830928325653,-0.00004212210867553949,-0.009605850072018801
1772733370237771500,1.928771484375,0.05288929414451122,0.007653072036430239,-0.014941786006186156
1772733370247786500,1.938786376953125,0.05677928732037544,0.005568813108280301,0.013341474670078604
1772733370257802500,1.948802490234375,0.06201309632062912,0.0048836438557133075,0.01862811896926723
1772733370267818500,1.958818603515625,0.0768278036147356,0.009997260542400181,0.013728629090450703
1772733370277833500,1.96883349609375,0.055581601968407626,0.004868555884435773,0.014130113430274649
1772733370287849500,1.978849365234375,0.05662614258527755,-0.0025500863416120408,0.003847898466652259
1772733370297864400,1.988864501953125,0.042564299485087394,-0.0038508667418733237,-0.015616625660983844
1772733370307880700,1.998880615234375,0.03643091129660606,-0.01182020165324211,-0.016669285652227698
1772733370317896700,2.008896728515625,0.04660802191793918,-0.015113397979736327,0.004178655657824128
1772733370327911700,2.01891162109375,0.05708323870301246,-0.0023815979069098827,-0.001283235610416159
1772733370337927700,2.028927734375,0.054392099922895426,-0.0022941388191655278,0.010250696447351947
1772733370347943400,2.038943359375,0.0663619391798973,-0.004534245896153152,0.008675455620419234
1772733370357958700,2.048958740234375,0.054985974162816996,0.0044768166204914445,-0.0012003522330895065
1772733370367974400,2.058974365234375,0.049749242553114886,0.004743431667424738,0.010364248957578093
1772733370377990400,2.068990478515625,0.05214110612571239,-0.0009092603320255875,-0.003342013037437573
1772733370388005400,2.07900537109375,0.036726094850897784,-0.006401062681339681,-0.010922248166520147
1772733370398021400,2.089021484375,0.044054830303788185,-0.006892134133912623,-0.010115635358216241
1772733370408037400,2.099037353515625,0.06320961262881755,0.0007429638544097542,0.004014815998775885
1772733370418052400,2.10905224609375,0.05632394476830959,0.006053929744102061,0.002784013828495517
1772733370428068600,2.119068603515625,0.06484861200749874,0.013488244463317095,0.010742425487050787
1772733370438084600,2.129084716796875,0.06574702215194701,0.007338818455487489,0.00431766226971522
1772733370448099600,2.139099609375,0.0714338356167078,-0.005824176108837127,0.014000002510892227
1772733370458115600,2.149115478515625,0.05257774397730827,0.011137845412269235,-0.0030686211898457256
1772733370468131600,2.159131591796875,0.05033142635524273,0.0011320727698504924,-0.0012412778985220938
1772733370478146600,2.169146484375,0.04374620274603366,-0.0022553046461194753,-0.0004130834460724145
1772733370488162600,2.17916259765625,0.05451718760728836,0.006804053991660475,0.0006178579037077724
1772733370498177500,2.189177490234375,0.04837970776557922,0.004169248508661985,-0.0017526980193797498
1772733370508193500,2.199193603515625,0.06903028160631657,0.008681319105625153,0.003509469425678253
1772733370518209500,2.20920947265625,0.0648375060915947,0.016196809302270413,0.01049705415754579
1772733370528224500,2.219224609375,0.06184300045073032,0.003813165079988539,-0.012071007209690288
1772733370538240500,2.229240478515625,0.045532501640915865,-0.006796710935421287,0.009275659136427566
1772733370548256500,2.239256591796875,0.045831192326545714,-0.0010913023680448532,0.0002953479510731995
1772733370558271500,2.249271484375,0.04792378069162369,0.0004703574581071734,-0.012894224092923104
1772733370568287500,2.25928759765625,0.04597966088652611,0.013462781228497624,-0.0037728513359092174
1772733370578303500,2.269303466796875,0.05032032043933868,-0.002129851635545492,0.01297980175083503
1772733370588318500,2.279318359375,0.06708557727932929,0.011226911935210228,0.015001142377452923
1772733370598334500,2.28933447265625,0.06558978576362133,0.009732837452553211,0.024211545124789697
1772733370608350500,2.2993505859375,0.049426001948118206,0.007577230321243405,0.013407132917968556
1772733370618365400,2.309365478515625,0.0453828640371561,0.0021143252728506924,0.004120714925508946
1772733370628381400,2.31938134765625,0.06962474036812782,-0.00029273586887866256,-0.014882009509811178
1772733370638397400,2.3293974609375,0.06109831956326961,0.019405103824287652,-0.015377081284066662
1772733370648412400,2.339412353515625,0.03925239845812321,-0.003801511174812913,-0.009144662301056086
1772733370658428400,2.349428466796875,0.0453916318655014,-0.0034306685684248805,-0.0009746171858161688
1772733370668443400,2.359443359375,0.06020341655015945,-0.0024849852161481973,0.005927198091894388
1772733370678459600,2.369459716796875,0.05646247645616531,-0.005884564526565373,0.0141993062089663
1772733370688475600,2.3794755859375,0.04239654170274734,0.01445453221220523,0.010790201018378139
1772733370698490600,2.38949072265625,0.046884500771760936,0.0050566258024424314,0.00044549701148644086
1772733370708506600,2.399506591796875,0.054064183142781254,-0.005772701649926603,-0.00991570147247985
1772733370718522600,2.409522705078125,0.05795476084053516,-0.004124715247191489,-0.006476000214228406
1772733370728537600,2.41953759765625,0.05092179346382618,0.0035057796312496065,-0.008866082821693272
1772733370738553600,2.4295537109375,0.055711950349807735,0.00526420413851738,0.00008881079461425543
1772733370748569600,2.439569580078125,0.05525953040719032,0.005684950301237404,0.0030008075174875557
1772733370758584600,2.44958447265625,0.06274024155139923,0.0033226416166871786,0.00042850021091289816
1772733370768600600,2.4596005859375,0.04598199897408485,-0.0007237842299044132,0.005467910017073154
1772733370778616300,2.4696162109375,0.05900222406685352,-0.012280914500169455,0.0029035576880909503
1772733370788631600,2.479631591796875,0.04763035070300102,0.011329933918267488,-0.011136155778681859
1772733370798647600,2.4896474609375,0.04508534239530563,0.008033230460435152,-0.0052057154169306155
1772733370808663600,2.49966357421875,0.05151800579130649,-0.0011929726442322134,-0.01927283748043701
1772733370818678500,2.509678466796875,0.05705518165230751,0.009408939260430633,-0.005332319204974919
1772733370828694500,2.519694580078125,0.055712534871697424,-0.005185878205299377,0.004187295622006058
1772733370838710500,2.52971044921875,0.05975333469510078,0.00020418080259114503,0.001586310210218653
1772733370848725500,2.5397255859375,0.07082476380765437,0.009829502760060132,0.01606326431678608
1772733370858741500,2.549741455078125,0.04463993671536445,0.008758293331973255,0.012285389745887368
1772733370868756500,2.559756591796875,0.03835866448879242,-0.0021030732264742252,0.0009002002427354454
1772733370878772500,2.5697724609375,0.03895838394761085,-0.004682531793043017,-0.0033960630459245293
1772733370888788500,2.57978857421875,0.06768997291326523,0.0098022859595716,-0.008476270653354004
1772733370898803500,2.589803466796875,0.050036242800951,-0.0048087154559791085,0.00020621749605052173
1772733370908819500,2.5998193359375,0.062008420145511625,-0.010924494922533631,0.005771669603465124
1772733370918835700,2.609835693359375,0.04914075526595115,0.005974288636632264,0.0013609313559718428
1772733370928850400,2.619850341796875,0.07353460728824138,0.008192914534173906,0.011273116563959046
1772733370938866700,2.62986669921875,0.05168634809553623,0.010340155695937573,0.0071729603692889205
1772733370948882700,2.639882568359375,0.05901449902653694,0.008606061912328005,0.005349389070784673
1772733370958897700,2.649897705078125,0.06110884095728397,0.0016134265460073947,0.006594795155152678
1772733370968913700,2.65991357421875,0.049885436153411865,0.0017556114956736564,-0.009213727215584368
1772733370978929400,2.669929443359375,0.03896189107894897,-0.005566475020721554,-0.005347370643634349
1772733370988944600,2.679944580078125,0.059606035178899765,-0.007361395613476634,0.006343779536150396
1772733370998960400,2.68996044921875,0.050175943532586094,0.0013922580759972334,0.011402076705871149
1772733371008976400,2.699976318359375,0.04927577982246875,0.004443243144452572,0.015724981406284495
1772733371018991400,2.709991455078125,0.05361643937528133,0.0011649155935272574,-0.001740359127614647
1772733371029007400,2.72000732421875,0.056308747199177736,0.006144713300094008,-0.005499994788924232
1772733371039023600,2.730023681640625,0.05271627566516399,0.0018510712267830968,-0.0015258669935632495
1772733371049038300,2.740038330078125,0.05316401943266391,0.008322861056774855,0.0002703505071345717
1772733371059054600,2.7500546875,0.04897182843983173,0.013635617044754326,-0.0008196549529675394
1772733371069069600,2.760069580078125,0.04462999984323978,0.001415127494931221,0.002756139440881088
1772733371079085600,2.77008544921875,0.06303425606191158,0.0005461991732940078,-0.005321286354307085
1772733371089101600,2.7801015625,0.057197804993391034,0.00925331030730158,0.00931153416740708
1772733371099116500,2.790116455078125,0.05240881715118885,0.010025865582376718,0.0007593122010119259
1772733371109132500,2.800132568359375,0.05599836607575416,0.010520334568433463,-0.00045307752974331375
1772733371119148500,2.8101484375,0.05375263297557831,0.008917867807857692,0.000726962567679584
1772733371129163500,2.82016357421875,0.06258242064118386,-0.009054938190989195,0.00548472415455617
1772733371139179500,2.830179443359375,0.04193593845367431,0.0012081336807459593,-0.0013342899442184716
1772733371149195500,2.840195556640625,0.05690028335154056,0.010762034369818865,-0.02196826884318143
1772733371159210500,2.85021044921875,0.055854573690891265,0.005341287962719798,-0.00208693494242616
1772733371169226500,2.8602265625,0.04792436521351337,-0.0010772373100742696,0.006049317501066252
1772733371179242500,2.870242431640625,0.055556467527151106,-0.00003112579062581062,-0.0015976353218313305
1772733371189257700,2.8802578125,0.06573591623604297,0.004383000857196748,0.01494092748966068
1772733371199273500,2.8902734375,0.0618482611477375,0.004486461231671273,0.0076782247439958155
1772733371209289500,2.90028955078125,0.03925122941434383,-0.0008569090902805328,-0.0047388924896251405
1772733371219304000,2.910303955078125,0.04987433023750782,-0.0030881752736866474,0.00038824126576073465
1772733371229320000,2.92031982421875,0.05750643255114555,-0.004013108098879456,-0.004813647359423339
1772733371239335000,2.9303349609375,0.04822773207426071,0.005597345083020627,-0.009028095849836245
1772733371249351000,2.940350830078125,0.05570961226224899,0.007702829462289809,0.0024658877900335936
1772733371259366700,2.95036669921875,0.0518184500426054,0.012509499091655015,0.007250135525036603
1772733371269382000,2.9603818359375,0.049722939068078995,0.01298844171501696,0.010050104974489658
1772733371279397600,2.970397705078125,0.04807692542672157,0.011681962226331234,-0.004848718672804534
1772733371289413600,2.98041357421875,0.046727848905324935,0.0026178908808156846,-0.00265887134517543
1772733371299428600,2.9904287109375,0.048519993019104,0.004939429163560271,-0.0010997962017543614
1772733371309444600,3.000444580078125,0.061984454748034476,0.006771357298456132,-0.005521731696696952
1772733371319460900,3.0104609375,0.049565118157863616,0.008116232568770646,-0.0013331848325207828
1772733371329475800,3.020475830078125,0.04926642747223377,0.005696421543322503,0.005550720329163596
1772733371339491800,3.030491943359375,0.05510404758453369,0.00596555734090507,0.010628315854398534
1772733371349507800,3.0405078125,0.05540156922638416,0.0031498788656666873,0.003321655235998332
1772733371359522800,3.050522705078125,0.06348024626374245,0.014402400166168809,0.002309254189906642
1772733371369538800,3.060538818359375,0.0482195487678051,-0.0013327099084854126,0.0005728588513564318
1772733371379554800,3.070554931640625,0.05345803394317627,0.0031353388836607337,-0.003022453093715012
1772733371389569800,3.08056982421875,0.04447743963003158,0.005903378824889659,-0.00023061215179041026
1772733371399585800,3.090585693359375,0.05525777684152126,0.003220934807881713,-0.005542984547279775
1772733371409601800,3.100601806640625,0.06080021339952946,-0.00017316460981965065,0.003316832930408418
1772733371419616800,3.11061669921875,0.048531683456897734,0.006081365740299225,0.000015599427931010723
1772733371429632800,3.1206328125,0.048830958664417265,0.01236344168446958,0.0035901060469914225
1772733371439647700,3.130647705078125,0.06035188511013984,0.008789638318307697,0.004970792416203767
1772733371449664000,3.1406640625,0.04927987147569656,0.0035531989695504304,0.001459386761765927
1772733371459679700,3.1506796875,0.05421732787787914,0.0064288274710997935,-0.005334255433734506
1772733371469695000,3.160695068359375,0.05631342337429523,0.0003008095774799585,-0.004977094292826951
1772733371479710700,3.170710693359375,0.056612698581814766,0.005092975757457315,-0.002447475350508466
1772733371489726700,3.180726806640625,0.051526189097762104,0.0032994799368083476,-0.006279299465194344
1772733371499741700,3.19074169921875,0.042245735055208206,0.00968205711338669,0.003966154551459476
1772733371509757700,3.2007578125,0.049127311262488364,-0.00017199556604027746,0.003271231089858338
1772733371519773700,3.210773681640625,0.06139642572700977,-0.0037257425248622893,-0.011985685280105098
1772733371529788700,3.22078857421875,0.050022214275598526,0.007095145892724394,0.004460112080862746
1772733371539804700,3.2308046875,0.051966334080696105,0.00608761281799525,-0.006352876158058643
1772733371549820700,3.240820556640625,0.04597849184274673,0.023459822575189172,0.00557512411805801
1772733371559835600,3.250835693359375,0.03909223946034908,0.010632928097434342,-0.0015283968773670495
1772733371569852000,3.260851806640625,0.048965398699045176,-0.0033642888013273474,-0.011673660188866779
1772733371579867000,3.270866943359375,0.04926642747223377,0.015160196263529359,-0.015313861588435247
1772733371589883000,3.2808828125,0.04298106359243393,-0.00263878753837198,0.00508129445281811
1772733371599899000,3.29089892578125,0.0501624995291233,-0.008459310385398567,-0.0014765570922754703
1772733371609913900,3.300913818359375,0.04582183997631073,0.002791311218962073,0.008379632745310664
1772733371619929900,3.310929931640625,0.0571948823839426,0.015042597765848039,-0.0008805000284221022
1772733371629945900,3.32094580078125,0.0317582433104515,-0.008182831531576812,-0.007473358954815193
1772733371639960800,3.3309609375,0.04567454046010971,0.0010913023680448532,0.002412952026398852
1772733371649976800,3.340976806640625,0.053307227295637125,0.009436923245899379,0.0016869667062535882
1772733371659992600,3.35099267578125,0.043133039283752436,0.004001234997995197,-0.00038992176619358356
1772733371670007800,3.3610078125,0.053011459219455714,0.012783603325299918,-0.0008619505915790796
1772733371680023600,3.3710234375,0.05779986253976822,0.010542217606678604,0.01006369510842487
1772733371690039800,3.381039794921875,0.05630524006783962,-0.001892828009277582,0.0020452238257043062
1772733371700054800,3.3910546875,0.05930149927437305,-0.011387107465602456,-0.0057882462789304555
1772733371710070800,3.40107080078125,0.050023967841267586,0.010599281556159258,-0.003792779879085719
1772733371720086800,3.411086669921875,0.056308162677288054,0.007780753536708653,0.006044093336677179
1772733371730101800,3.421101806640625,0.06528875699043274,0.007269808339886367,-0.008472882253024727
1772733371740117800,3.43111767578125,0.07157295182645321,0.004413980517350137,0.0038707313529681413
1772733371750133800,3.4411337890625,0.0675385817438364,0.0023378318304195997,0.002183088793279603
1772733371760148700,3.451148681640625,0.05602057790756225,-0.007777903992496431,0.01026215855628252
1772733371770164700,3.461164794921875,0.05257774397730827,0.00033127778097987175,-0.0008251713783014565
1772733371780179700,3.4711796875,0.05227671520411968,-0.0028024171348661185,-0.00026964725423604246
1772733371790195700,3.48119580078125,0.05556815796494484,-0.007438662100769579,0.005586065637180581
1772733371800211700,3.491211669921875,0.051825464305281635,0.019229601126909256,-0.007847425564751029
1772733371810226700,3.501226806640625,0.04090191923081875,0.015492387359961866,-0.006521602054778486
1772733371820243000,3.511242919921875,0.05497019207179546,0.01352284085266292,-0.002864732648199424
1772733371830259000,3.521259033203125,0.05392331336736679,0.00887687821034342,0.0015963475470431147
1772733371840274000,3.53127392578125,0.05392448241114616,0.0019812734777107832,0.0023120672015007585
1772733371850290000,3.5412900390625,0.048538113197684286,0.0029926790099591015,0.006393984486581758
1772733371860305700,3.5513056640625,0.0485375286757946,0.009298903014697133,-0.005879431693721562
1772733371870321000,3.56132080078125,0.04689093051254749,0.003299772197753191,0.008569492761604488
1772733371880336600,3.571336669921875,0.05661912832260132,0.021642507487535476,-0.0003661116323433816
1772733371890352600,3.5813525390625,0.03641863633692265,0.0030633330933749676,0.00577851946935989
1772733371900367600,3.59136767578125,0.04360474844872951,-0.004368387809954583,0.014055203296849504
1772733371910383600,3.601383544921875,0.04121288487613201,0.010841748542524874,-0.00868801370789297
1772733371920399600,3.611399658203125,0.0534825838625431,0.0030733795633539557,0.0011815562010742723
1772733371930414600,3.62141455078125,0.05453063161075115,-0.00021598083823919296,0.005027070914395153
1772733371940430800,3.631430908203125,0.04884557171165943,0.0061934478126466274,0.005475125209148973
1772733371950445800,3.64144580078125,0.04674889169335365,0.012337393927760421,-0.002688033507578075
1772733371960461800,3.6514619140625,0.03567161736190319,0.00509914976991713,-0.0050523149535059925
1772733371970477800,3.661477783203125,0.05197919356226921,0.016837408760748802,0.007091474364604801
1772733371980492800,3.671492919921875,0.05616729290187358,0.01121598868239671,-0.005524809569772333
1772733371990508800,3.6815087890625,0.042249242186546326,0.008829714600369333,0.00024439408197067677
1772733372000524800,3.69152490234375,0.05017652805447578,0.0031953619752079247,0.016670518628088757
1772733372010539800,3.701539794921875,0.049126142218708986,0.00908277604598552,0.010292864221800119
1772733372020555800,3.7115556640625,0.0572036502122879,-0.0010043912695720792,0.002906398099148646
1772733372030571800,3.72157177734375,0.04897358200550079,-0.0031037381689995526,-0.011605453790863975
1772733372040586800,3.731586669921875,0.05241349332630634,0.004885543551854789,0.001961363200843334
1772733372050602800,3.741602783203125,0.05286532874703407,0.004829940907098353,-0.010052707923529669
1772733372060618800,3.75161865234375,0.04733107549548149,0.0028196605306118725,-0.0031389830123167485
1772733372070634000,3.761634033203125,0.03760696933865547,0.0051504050331190225,-0.009998036860534921
1772733372080649700,3.771649658203125,0.048531098935008045,0.012773228061757982,-0.007310971467336639
1772733372090665700,3.781665771484375,0.04643909509181976,-0.0006165609957650304,-0.0025465426776558157
1772733372100680700,3.7916806640625,0.04509294117987156,0.0016431275645270942,0.0023005868262611327
1772733372110696700,3.80169677734375,0.05062953251898288,0.004178235532715916,0.0029317334698047487
1772733372120711700,3.811711669921875,0.03731120126247406,0.0032836613131687043,-0.005578302455833181
1772733372130727700,3.821727783203125,0.037758945029973984,-0.0022074103837832807,0.011915058596152812
1772733372140743700,3.83174365234375,0.049879590934514995,0.006954312649928033,0.00239410119545646
1772733372150758700,3.841758544921875,0.050182373273372646,0.00447327295653522,0.003586626315116882
1772733372160774700,3.851774658203125,0.04793664017319679,-0.0044764878269284965,0.001637711603892967
1772733372170790700,3.861790771484375,0.06080781218409538,-0.0037912089765071866,-0.000010704057104885578
1772733372180805600,3.8718056640625,0.05302665678858757,0.011615363263525068,0.016914264256088062
1772733372190822000,3.88182177734375,0.04913666361272335,0.013089892795495689,0.004960682014143094
1772733372200838000,3.891837890625,0.04419979173243046,0.0018364216469228267,0.004076035533566028
1772733372210852900,3.901852783203125,0.05138356575667858,-0.00040463527813553807,-0.001842093335883692
1772733372220869600,3.91186962890625,0.06410334659814834,0.013210121641680598,-0.0008416110564488917
1772733372230885600,3.9218857421875,0.05198211617171764,0.007255779814533889,-0.001607535661337897
1772733372240900600,3.931900634765625,0.046446109354496,-0.00008607084825634956,0.00986994436830282
1772733372250916600,3.94191650390625,0.039565117669105525,-0.009988017790019512,0.007109576276876032
1772733372260931600,3.951931640625,0.05108779768049717,0.002124189079739153,0.0003373878613580018
1772733372270947600,3.961947509765625,0.06111001000106334,0.008627506559155881,0.0035262652968522158
1772733372280963300,3.97196337890625,0.06081073479354381,-0.008724646790698171,0.015953913057642058
1772733372290978300,3.981978271484375,0.047637949487566944,-0.007593998792953789,-0.00297535341582261
1772733372300994300,3.991994384765625,0.04554536112248897,-0.0013606938939541577,-0.012703121967613697
1772733372311010300,4.00201025390625,0.05707271730899811,0.0043626887215301394,-0.01336419795854017
1772733372321025300,4.012025390625,0.05827215622663497,0.003557473285868764,-0.004675197869958356
1772733372331041300,4.022041259765625,0.04570376655459404,0.0081928780015558,0.0031947865864727643
1772733372341057500,4.0320576171875,0.056333297118544574,0.00045358898639678955,-0.0039059122642036525
1772733372351072500,4.042072509765625,0.06142389825582504,-0.0014114742331206797,0.004457171205105259
1772733372361088500,4.052088623046875,0.05513502724468708,0.00991159155294299,-0.003775426885485649
1772733372371104500,4.0621044921875,0.05872632973492145,0.017416048898920417,-0.0008337291440926491
1772733372381119500,4.072119384765625,0.05603226834535598,0.0017615663124248384,0.0021930439317133276
1772733372391135500,4.082135498046875,0.04764963992536068,0.01018277317713946,0.010364376821741461
1772733372401150500,4.092150390625,0.045403322303295135,-0.00639963790923357,0.006051655588624999
1772733372411166500,4.10216650390625,0.04914426239728927,0.008242781557887793,-0.009745158078009263
1772733372421182500,4.112182373046875,0.04630114792585373,0.014825265220738947,-0.0027237898075487465
1772733372431197400,4.122197509765625,0.060819502621889114,0.0029414602793753145,-0.0014160682098474354
1772733372441213400,4.13221337890625,0.05588263074159622,-0.009798157773725688,0.002001914406940341
1772733372451229400,4.1422294921875,0.03852583774924278,0.00151091601960361,-0.0034671098549850284
1772733372461244400,4.152244384765625,0.04211889380514622,0.01511409209948033,0.0005053100404795259
1772733372471260700,4.1622607421875,0.049151861181855196,0.007201053952611982,0.0015145510151050984
1772733372481276400,4.1722763671875,0.04481003258526325,-0.005882810960896313,0.0021918292221613225
1772733372491291600,4.182291748046875,0.05393851093649864,-0.002605177529715001,0.008454780340753495
1772733372501307400,4.192307373046875,0.05334288313090801,0.003778349494934082,-0.0005746124170254916
1772733372511323400,4.202323486328125,0.049753334206342696,0.008057013194821775,0.009066811291873455
1772733372521338400,4.21233837890625,0.040922962018847465,-0.0037439723012968897,0.0037112116760108617
1772733372531354400,4.222354248046875,0.05289397031962871,-0.005077705123089253,-0.0017065481895580886
1772733372541369300,4.232369384765625,0.05304653053283691,0.010290909726731478,-0.005349060277221724
1772733372551385300,4.24238525390625,0.056340311381220816,0.0139804118944332,-0.008195572282141074
1772733372561401300,4.2524013671875,0.054991819381713866,0.00341379049886018,-0.0008982274813577533
1772733372571416300,4.262416259765625,0.05858136830627918,0.005711582579836249,-0.007966001309966667
1772733372581432300,4.272432373046875,0.05738251391053199,0.008878997102193534,-0.007583924923511221
1772733372591448600,4.282448486328125,0.043617607930302615,0.004647971936315298,0.0021190927795134485
1772733372601463600,4.292463623046875,0.0612730916082859,0.009041567252762615,-0.006887129165232181
1772733372611479600,4.3024794921875,0.051395840716361996,0.0008368892155587673,-0.0020732078111730516
1772733372621495600,4.31249560546875,0.05005027132630348,0.0023123685956001282,-0.02319933587494306
1772733372631510500,4.322510498046875,0.04436813403666019,-0.0010883797585964203,0.0011801679615862668
1772733372641526500,4.332526611328125,0.04122749792337417,0.007721899488940835,-0.0076922989351209245
1772733372651542500,4.34254248046875,0.0632248101979494,0.015596907180361448,0.00003224003547802567
1772733372661557500,4.3525576171875,0.04751403084695339,0.005984444704465568,0.004714324303949252
1772733372671573500,4.362573486328125,0.07190671382546425,-0.005410590339265764,-0.00013400164321064948
1772733372681589200,4.37258935546875,0.05335106643736362,0.007775858165882527,-0.0003085270930547267
1772733372691604500,4.3826044921875,0.04676993448138237,-0.0024199936885386706,0.0034573099801782515
1772733372701620200,4.3926201171875,0.05350362665057182,-0.005708002383261919,-0.0016448263312689958
1772733372711635500,4.402635498046875,0.04138356526792049,-0.0030019948275759813,-0.01759926911187358
1772733372721651500,4.4126513671875,0.05918985559344291,0.0025515476463362574,-0.005919233981147408
1772733372731667500,4.42266748046875,0.05230769486427307,0.0062491600552573795,0.0023328816606663165
1772733372741682400,4.432682373046875,0.06472995406389236,0.005790091176144778,-0.002712446429627016
1772733372751698400,4.442698486328125,0.05305296027362346,0.010978563197329639,-0.0010009298040065914
1772733372761714400,4.45271435546875,0.056342064946889876,0.018787483382597565,-0.006856944089522585
1772733372771729400,4.4627294921875,0.06606850919127463,-0.0009255538797006011,-0.013092121285200119
1772733372781745400,4.472745361328125,0.048260465300083155,0.01299863431546837,-0.008118671121029182
1772733372791761400,4.482761474609375,0.06202478675842285,0.003915164149738848,0.004795152721507475
1772733372801776400,4.4927763671875,0.04496317732036113,-0.0062346200732514255,0.007179454042157158
1772733372811792400,4.50279248046875,0.05573708479106426,0.0010626973280683158,-0.002617717350879684
1772733372821807400,4.512807373046875,0.048853170496225354,-0.0034457930723205206,-0.0005870335071813315
1772733372831823400,4.5228232421875,0.06815759042501449,0.005508643886260688,-0.010917919051274656
1772733372841839600,4.532839599609375,0.054987143206596374,0.005396671411767601,-0.012941616031760349
1772733372851854300,4.542854248046875,0.0633645109295845,0.0043752559421584005,-0.006738678871560841
1772733372861870600,4.55287060546875,0.06171674372255802,-0.0009357830127701163,-0.0018736575179267674
1772733372871886600,4.562886474609375,0.04690320547223091,0.003999627562798559,-0.0007091985821258277
1772733372881901600,4.572901611328125,0.04795008417665958,0.0027963161876425145,0.014461656072735786
1772733372891917600,4.58291748046875,0.07174129413068295,0.0032724823320284483,-0.004245473816338927
1772733372901933300,4.592933349609375,0.06365852544009686,0.0028712445873767135,0.0002784790146630257
1772733372911948500,4.602948486328125,0.05333236173689365,0.013328450791724025,0.016122803351143373
1772733372921964300,4.61296435546875,0.04824526773095131,0.012401399074681102,0.010327469744300469
1772733372931980300,4.622980224609375,0.04330956489443779,-0.007267762513272464,0.010217470031185075
1772733372941995300,4.632995361328125,0.052587096327543256,0.005883870406821369,-0.007703213054779916
1772733372952011300,4.64301123046875,0.05243804324567318,0.0003207563869655132,-0.007667054896010085
1772733372962026200,4.653026123046875,0.05677870279848575,0.00027647885382175443,-0.001046495111938566
1772733372972042500,4.66304248046875,0.056930678489804265,0.0008323226382955908,-0.006314891368383541
1772733372982058500,4.67305859375,0.04481178615093231,-0.004271247578412294,0.004516372312745079
1772733372992073500,4.683073486328125,0.05454466013610363,-0.002612776314280927,-0.010529677785513922
1772733373002089500,4.69308935546875,0.051854105877876276,-0.008192110816575586,-0.013298274849168956
1772733373012105500,4.70310546875,0.05469488226175308,0.007857143241167068,-0.007974266814813018
1772733373022120400,4.713120361328125,0.05708674583435058,-0.004243373190797865,-0.0002577193544246256
1772733373032136400,4.723136474609375,0.0542407087534666,0.003759535196609795,-0.0002589249308221042
1772733373042152400,4.73315234375,0.05424012423157692,0.008562441966310144,0.0027359825688414276
1772733373052167400,4.74316748046875,0.049152445703744885,0.005569799488969147,-0.002797494364576414
1772733373062183400,4.753183349609375,0.049450551867485044,0.00008117547743022442,0.00314010639032349
1772733373072199400,4.763199462890625,0.056633156847953794,0.00471778576951474,-0.004507147826673463
1772733373082214400,4.77321435546875,0.051693946880102155,0.00802066323980689,0.0055729138946626336
1772733373092230700,4.783230712890625,0.05229425086081028,0.002883811808004975,-0.009828963903943076
1772733373102245400,4.793245361328125,0.06845569658875465,0.010980828219652175,0.01135584467765875
1772733373112261600,4.80326171875,0.05977554652690887,0.01189871024955064,0.0006051445526070893
1772733373122277400,4.81327734375,0.04510813874900341,0.014474150228127836,-0.006174112924514338
1772733373132292600,4.823292724609375,0.05483516751527786,-0.0032057372387498616,-0.003305471286177635
1772733373142308400,4.833308349609375,0.053936172848939895,-0.005167319635301828,0.0017372995208483188
1772733373152324400,4.843324462890625,0.058581952828168866,-0.0013015841178596018,0.007441347248200327
1772733373162339300,4.85333935546875,0.0602320581227541,0.0015870499957352875,-0.01138226689370349
1772733373172355300,4.863355224609375,0.04945931969583034,0.0005085705766454338,0.0007166329699102789
1772733373182371300,4.873371337890625,0.057391281738877295,0.012033113751560449,-0.0011415529842488468
1772733373192386300,4.88338623046875,0.05828910736143589,0.013670761423371732,0.0037926520149223503
1772733373202402300,4.89340234375,0.05036357505917549,0.0030551132543012497,0.0059102104244753715
1772733373212417300,4.903417236328125,0.055302785027027124,0.00016936521753668784,0.010311852050060405
1772733373222433300,4.913433349609375,0.05680033010840416,-0.004480323751829564,0.005331104495422914
1772733373232449300,4.92344921875,0.058895256561040873,0.0052653366496786475,-0.0072875449259765445
1772733373242464300,4.93346435546875,0.06472936954200267,-0.010725794012658297,-0.0057525356447324155
1772733373252480500,4.94348046875,0.05829436805844307,-0.0027545959377661346,-0.010744316050037742
1772733373262496500,4.95349658203125,0.0579921702414751,-0.005865421434678137,-0.007486291501624509
1772733373272511500,4.963511474609375,0.05829027640521526,-0.0034944545196369287,-0.0054218423856422305
1772733373282527500,4.973527587890625,0.05694353797137737,0.014466734106652437,-0.002710062676295638
1772733373292543500,4.98354345703125,0.06726970167458057,-0.00021985329575836658,-0.01203571670060046
1772733373302558500,4.993558349609375,0.05664660085141658,0.008325308742187917,0.003731386814359575
1772733373312574500,5.003574462890625,0.0503629905372858,0.00020363281331956386,-0.00030571408146061
1772733373322590500,5.013590576171875,0.05081482595801353,0.0014893252423033116,-0.010482733371248469
1772733373332605400,5.02360546875,0.06098901396989822,-0.011652626533992587,0.004638007664727046
1772733373342621400,5.033621337890625,0.06353051514625549,0.00423935460280627,-0.006957490987703204
1772733373352636400,5.043636474609375,0.05948445462584495,0.010909480016492307,0.011582767035020515
1772733373362652400,5.05365234375,0.04482113850116729,0.0018933759985491632,0.008195152157032861
1772733373372668400,5.06366845703125,0.043322424376010894,-0.0016586539272218943,-0.0022616247890517114
1772733373382683400,5.073683349609375,0.054393268966674804,0.0015398863857612013,0.008230524864513427
1772733373392699400,5.083699462890625,0.05424129327535629,0.006699607236497104,-0.005268761582626029
1772733373402715400,5.09371533203125,0.05932663371562957,0.0010485226722434162,-0.002979079742869362
1772733373412730400,5.10373046875,0.05618249047100544,0.002571494455821812,0.0148992072397843
1772733373422746400,5.113746337890625,0.05408639497458934,-0.010166625759936869,0.009016935135005042
1772733373432762400,5.123762451171875,0.04600771793723106,-0.003920278716273606,-0.004148863307759165
1772733373442777300,5.13377734375,0.051094811943173404,0.006267682092636824,0.0006611125235445797
1772733373452793300,5.14379345703125,0.06262099908590317,0.008718253582529723,0.0021279519394040106
1772733373462808300,5.153808349609375,0.05483925916850566,0.0009347966320812701,0.0025994967075996097
1772733373472824300,5.16382421875,0.060223290294408795,0.01236296676043421,0.003996485757641494
1772733373482840300,5.17384033203125,0.061871057501435275,0.004544548094458878,-0.006947526716114953
1772733373492855300,5.183855224609375,0.05753507412374019,0.0023929960837587713,0.00422072296757251
1772733373502871600,5.19387158203125,0.05289630840718746,-0.003708316466026008,0.007699915985995903
1772733373512887600,5.203887451171875,0.06995616427958011,0.005576375360228121,-0.008863068880699574
1772733373522902500,5.213902587890625,0.051100657162070275,0.012628230100497602,-0.006289345935173332
1772733373532918500,5.22391845703125,0.05678922419250011,0.008385368366353214,0.0034461218658834694
1772733373542934500,5.2339345703125,0.057692310512065886,-0.0057956806667149065,0.002626339048752561
1772733373552949500,5.243949462890625,0.044969607061147686,0.0021918840210884806,0.00031853703041560946
1772733373562965500,5.253965576171875,0.03987491427063942,0.013103117603249847,-0.007515334933018311
1772733373572980500,5.26398046875,0.06067044954001903,-0.0061130029875785105,-0.007312916829250752
1772733373582996500,5.27399658203125,0.058575523087382314,0.00569660420641303,-0.0020556356218643487
1772733373593012200,5.28401220703125,0.05318740030825138,-0.003696443365141749,0.004680641230056062
1772733373603027500,5.29402734375,0.04525719183087348,-0.009426511449739336,-0.012745956462342292
1772733373613043200,5.304043212890625,0.06066869597434997,0.009849632232636213,-0.0051033236215356735
1772733373623059500,5.3140595703125,0.05168927070498466,0.0016219386460259557,-0.0026567159207072106
1772733373633074200,5.32407421875,0.04914250883162021,0.007814875002019108,0.000398214670503512
1772733373643090400,5.33409033203125,0.07038637239038943,-0.0012289207404479383,0.006590940963942557
1772733373653106400,5.3441064453125,0.041806759116053575,-0.008144070423766971,-0.006124118036637083
1772733373663121400,5.354121337890625,0.05168225644230842,-0.004959850897081196,-0.0018525964635889977
1772733373673137400,5.364137451171875,0.0482411760777235,-0.0013639818295836448,0.008877042607124894
1772733373683152400,5.37415234375,0.05886427690088748,0.007331986855901777,0.0003653809799812734
1772733373693168400,5.38416845703125,0.04958966807723045,-0.002619461783394217,0.0008293817625381052
1772733373703184400,5.394184326171875,0.04644727839827537,-0.00024381869323551655,-0.003014488982968032
1772733373713199400,5.404199462890625,0.05512918202579021,0.01330444886162877,-0.0007566727193538099
1772733373723215400,5.41421533203125,0.050341947749257085,0.0028207565091550348,-0.006941188306873664
1772733373733231400,5.4242314453125,0.05483049134016037,0.014037147050350904,0.007459777954034507
1772733373743246300,5.434246337890625,0.06021452246606349,-0.000877257758565247,0.00167671930687502
1772733373753262300,5.444262451171875,0.05407762714624405,-0.0042583515642210835,-0.005369719472760335
1772733373763278600,5.454278564453125,0.05332651651799678,0.002953479510731995,-0.006005259163631126
1772733373773293600,5.46429345703125,0.04853869771957397,0.0054936655128374695,-0.006356721216114238
1772733373783309600,5.4743095703125,0.05945932018458843,-0.004766922140866518,0.0031194654610939322
1772733373793324500,5.484324462890625,0.0652946022093296,0.0007718976879492401,0.0012057316611055284
1772733373803340500,5.494340576171875,0.04314940589666366,0.007627718399465084,-0.008097326938901096
1772733373813356300,5.504356201171875,0.04673895482122898,-0.002963051056675613,-0.0028365842659492046
1772733373823371500,5.51437158203125,0.05975333469510078,0.008046163007244467,-0.0017453732294496148
1772733373833387300,5.52438720703125,0.0581055674880743,0.02661715409494936,-0.009456650859676301
1772733373843403300,5.5344033203125,0.0634907676577568,0.006288615282811224,0.0033469175414182245
1772733373853418200,5.544418212890625,0.05316577299833297,0.009854052679426968,-0.0033062567374669014
1772733373863434200,5.554434326171875,0.05750175637602806,-0.0019224559625610708,-0.0030763295722659677
1772733373873450500,5.564450439453125,0.04388356539011001,0.0015615867609158158,-0.003413753966242075
1772733373883465200,5.57446533203125,0.06513385868966579,-0.0014841010779142378,-0.0036597554834093896
1772733373893481500,5.5844814453125,0.05346446368396282,0.0015609657064080238,0.016479096842370925
1772733373903496400,5.594496337890625,0.05346680177152156,-0.0014965587006881833,0.0017081830242183058
1772733373913512400,5.604512451171875,0.04568681541979313,0.010696458320319652,0.008569794155703856
1772733373923528400,5.614528564453125,0.060202832028269766,0.005560885530151427,0.010098839487042278
1772733373933543400,5.62454345703125,0.06140168642401695,0.002804609091952443,0.00013000132152810693
1772733373943559400,5.634559326171875,0.042994507595896715,0.005114456936903298,-0.011127616279199719
1772733373953575400,5.644575439453125,0.05361702389717102,0.006033033086545765,0.007309564961539581
1772733373963590400,5.65459033203125,0.049127895784378046,0.009761880883947015,-0.0016077548570465295
1772733373973606400,5.6646064453125,0.048830958664417265,-0.0016786007367074489,0.005122229251405224
1772733373983622400,5.674622314453125,0.0582581277012825,0.007747691517323255,0.008875197709910571
1772733373993637400,5.684637451171875,0.05032733470201492,-0.001986643772572279,0.010689170063007623
1772733374003653400,5.6946533203125,0.05287351205348968,-0.008786898371949792,0.014459728977130725
1772733374013668400,5.70466845703125,0.06229834300279617,-0.0003508592642843723,0.0033872678181156514
1772733374023684600,5.7146845703125,0.037760114073753355,0.008436221770755946,-0.004743943124078214
1772733374033700400,5.724700439453125,0.0334229616522789,0.007957461810484527,-0.006138329225080087
1772733374043715600,5.734715576171875,0.04703881455063819,0.012480674855969846,-0.0007882734340149909
1772733374053731300,5.7447314453125,0.0777121852338314,0.008047551246732473,0.01375405579265207
1772733374063747300,5.754747314453125,0.04868365914821624,0.00517637972459197,0.0049233091458212586
1772733374073762300,5.76476220703125,0.04090191923081875,0.0122427379142493,0.01339986292696558
1772733374083778300,5.7747783203125,0.05526888275742531,-0.000979439491406083,0.01055171608738601
1772733374093794300,5.784794189453125,0.06364625048041343,0.00597136602718383,0.010084628298599272
1772733374103809300,5.794809326171875,0.04524140973985195,0.0111997316673398,0.011421238064067437
1772733374113825300,5.8048251953125,0.04254968643784523,0.003956044149398804,-0.005272268713964149
1772733374123840300,5.81484033203125,0.04104804970324039,0.0027328955626115202,-0.004082867133151739
1772733374133856300,5.824856201171875,0.05706161139309406,0.0005821472695097327,0.004769187163189054
1772733374143872500,5.83487255859375,0.05586801769435405,0.007371880474872887,-0.0036033765205182133
1772733374153887500,5.844887451171875,0.04449555980861187,-0.0009003463732078671,0.0066751669149845835
1772733374163903500,5.854903564453125,0.05556874248683452,0.0014791691744700072,0.009098987395269795
1772733374173919500,5.86491943359375,0.04973229141831398,0.004183350099250674,0.0035776301579084247
1772733374183934500,5.8749345703125,0.06693769324123859,0.001677468225546181,0.0069729168856982136
1772733374193950500,5.884950439453125,0.04927636434435844,0.008047916572913528,0.00146376154278405
1772733374203966500,5.894966552734375,0.05480944855213165,0.006338372708670795,0.005834871032787486
1772733374213981400,5.9049814453125,0.0393961908429861,0.0006504267327487468,0.0051190326473210005
1772733374223997200,5.9149970703125,0.05271276853382587,0.0069591714881360525,-0.009687984530674293
1772733374234012200,5.92501220703125,0.04792494973540306,-0.0029408392248675224,0.007399544799933209
1772733374244028200,5.935028076171875,0.06094459030628204,0.004020341557264328,0.007685111142508685
1772733374254044200,5.945044189453125,0.05450783525705337,0.009438969072513282,0.00011157061569392681
1772733374264059100,5.95505908203125,0.06438157901763916,0.0006268997266888619,0.006338418374443426
1772733374274075100,5.9650751953125,0.04253507339060306,-0.008803886039368807,-0.0005736077700275928
1772733374284091000,5.9750908203125,0.05226619381010532,0.00217405610345304,-0.012884104557707905
1772733374294106000,5.985106201171875,0.05511339993476867,0.010144706189073621,-0.0019538648809771983
1772733374304121900,5.995121826171875,0.05301964252591133,0.008777546021714806,0.005538582366798073
1772733374314137900,6.005137939453125,0.055558221092820166,-0.00039630584120750427,-0.006839682427467778
1772733374324152800,6.01515283203125,0.058551557689905165,0.003771627493202686,-0.01385494975070469
1772733374334168800,6.0251689453125,0.04403495655953884,0.007552899597585201,-0.0006432937390636653
1772733374344183800,6.035183837890625,0.0648328299164772,0.0035404125532135363,0.008219829940563068
1772733374354200000,6.045199951171875,0.04552782546579837,0.0022364172825589776,0.012563384703360497
1772733374364216000,6.055216064453125,0.043433483535051345,0.007599661348760127,0.013179781302344052
1772733374374231000,6.06523095703125,0.05270926140248775,-0.004799107377417385,-0.007557119114976376
1772733374384247000,6.0752470703125,0.052259764069318766,0.01333009475953877,-0.0045984519724734125
1772733374394263000,6.085262939453125,0.0536047489374876,0.009497494326718151,0.00405404289746657
1772733374404278000,6.095278076171875,0.042678865775465966,0.007039031791314482,0.01132053590225987
1772733374414294000,6.1052939453125,0.05824293013215065,0.0005517155986279249,-0.0018543500292580574
1772733374424309000,6.11530908203125,0.05734510450959205,0.0011338628681376575,0.01392023353925906
1772733374434325000,6.125324951171875,0.05988952829539775,-0.0012638824559748172,-0.0063307647909503426
1772733374444341000,6.135341064453125,0.04791910451650619,0.004875314418785273,0.00022288550306111572
1772733374454356000,6.14535595703125,0.04851765493154526,0.008589001179672777,-0.002107256211247295
1772733374464372000,6.1553720703125,0.044181087031960484,0.012574198358319699,-0.0009434365962632
1772733374474388200,6.16538818359375,0.04912438865303993,0.0037853637576103208,0.003629981399653479
1772733374484403200,6.1754033203125,0.056010056513547894,0.007508548999205231,-0.0019999599118717013
1772733374494419200,6.185419189453125,0.05974924304187298,0.0017196633994579313,-0.0027699487705249337
1772733374504435000,6.19543505859375,0.03401332876086235,0.0007753317540511489,0.004116851601144299
1772733374514450200,6.2054501953125,0.040000001955032345,0.019476671223156154,0.0076578212767839425
1772733374524466000,6.2154658203125,0.05526654466986656,0.011008629542030393,0.011232702355179935
1772733374534481200,6.225481201171875,0.05856324812769889,0.0023758988184854387,-0.003326852000923827
1772733374544497000,6.235496826171875,0.05108779768049717,0.003458250695094466,-0.0007260035864543169
1772733374554513000,6.245512939453125,0.04734627306461334,0.0058729836866259575,-0.003455976539617404
1772733374564527900,6.25552783203125,0.058123687666654586,0.0016162395576015114,-0.003205819437140599
1772733374574544000,6.2655439453125,0.06440905154645443,0.005655103152245283,0.010814294280018656
1772733374584559900,6.275559814453125,0.06530453908145427,-0.0001466784616932273,-0.0015441789683885872
1772733374594574800,6.285574951171875,0.061116439741849896,-0.005099478563480079,-0.013408110165502874
1772733374604591000,6.295591064453125,0.04465571880638599,-0.009726225048676132,0.0019725513151381165
1772733374614607000,6.305607177734375,0.05812485671043396,-0.0017036986453458666,0.012062376378662884
1772733374624622000,6.3156220703125,0.04705401211977005,-0.007299180564843118,-0.010405667813355102
1772733374634638000,6.32563818359375,0.0509469279050827,0.0008800707701593637,-0.007122417492140084
1772733374644653000,6.335653076171875,0.03628770343363285,-0.0016096636863425374,0.005201495899539441
1772733374654669000,6.3456689453125,0.047962359136343,0.0017883081888779998,-0.004891397903906181
1772733374664685000,6.35568505859375,0.04706687160134315,-0.00004332768507301807,-0.004670256833359599
1772733374674700000,6.365699951171875,0.05454699822366237,-0.0029974647829309102,0.006150942111480981
1772733374684716000,6.375716064453125,0.06606617110371589,0.0060204658659175035,0.004442092366982251
1772733374694732000,6.38573193359375,0.05888765777647495,0.009369593630731105,-0.002793612773902714
1772733374704747000,6.3957470703125,0.06712123311460018,0.0034701968612149358,0.01002746388441883
1772733374714763000,6.405762939453125,0.05245733246803284,0.008979169541038572,-0.01090811917646788
1772733374724778000,6.415778076171875,0.04497720584571361,0.012723178374953566,0.003203910607844591
1772733374734794200,6.425794189453125,0.05335983426570892,0.0014255392910912633,-0.004415432688919827
1772733374744810000,6.43581005859375,0.045429041266441345,0.0074208707157522435,-0.0005781743472907692
1772733374754825200,6.4458251953125,0.06069441493749618,-0.005787095501460135,0.002228982894774526
1772733374764841000,6.455841064453125,0.05440905105769634,0.008024864490889013,0.0021370211618486792
1772733374774857000,6.46585693359375,0.04498188202083111,-0.0016528452409431337,-0.0021934640568215397
1772733374784872000,6.475871826171875,0.05096972425878048,-0.0018071224872022865,-0.010697051975363865
1772733374794888000,6.485887939453125,0.05785597664117813,-0.00025254998896270987,0.011334564427612348
1772733374804903000,6.49590283203125,0.058306643018126485,0.007177088555134832,0.009882310659531504
1772733374814919000,6.5059189453125,0.05620937847793102,0.00007101940959692001,0.004895580888679251
1772733374824935000,6.515934814453125,0.054414896276593204,-0.0017153525505214928,0.005247517865197733
1772733374834950000,6.525949951171875,0.0559141949236393,0.00841302355825901,-0.0026257271273992955
1772733374844966000,6.5359658203125,0.050376434540748596,0.003209427033178508,0.00036941783428192136
1772733374854982100,6.545982177734375,0.05321896449029445,0.004597374260239303,0.010316464293096213
1772733374864996900,6.555996826171875,0.044236032089591024,0.014579473766125738,0.010659615174960344
1772733374875013000,6.56601318359375,0.05021861363053322,-0.001687660825997591,-0.002136865898221731
1772733374885029000,6.576029052734375,0.050966217127442356,0.0011809899454936384,-0.01297169150961563
1772733374895044000,6.586044189453125,0.04498129749894142,0.0020758929586037994,-0.002789548520138487
1772733374905060000,6.59606005859375,0.044833413460850714,-0.0027742139536887406,0.0006845299317501485
1772733374915075000,6.606074951171875,0.0580009380698204,-0.00008007949888706206,-0.0046552967262454325
1772733374925091000,6.616091064453125,0.04782558101415634,-0.0000773030199110508,-0.004685874527599662
1772733374935107000,6.626107177734375,0.05261223076879978,0.009550612753443419,0.002318971866322681
1772733374945122000,6.6361220703125,0.06009644904434681,0.006395728919096291,-0.0033293544852640478
1772733374955138000,6.646137939453125,0.055012277647852895,0.0025934505593031643,-0.0031024321279022843
1772733374965154000,6.656154052734375,0.04947276369929313,0.003126242261752486,0.005267272878438234
1772733374975169000,6.6661689453125,0.05515723907649517,0.011971373626962304,0.000543203498609364
1772733374985185000,6.67618505859375,0.05051847335994243,0.005098820976354181,0.0011285839048214255
1772733374995200000,6.686199951171875,0.05545592976212501,0.005133088572137057,-0.004487155351415276
1772733375005216000,6.696216064453125,0.050071898636221884,0.0022567659508436915,-0.0007146236759144812
1772733375015232000,6.70623193359375,0.04154606235325336,-0.000053849079087376593,-0.009135246018739416
1772733375025247000,6.7162470703125,0.06503975066542625,0.008417005613632499,0.00009650091072544455
1772733375035263000,6.726262939453125,0.06099953536391258,0.0027092224260792134,0.002122663842933252
1772733375045279000,6.736279052734375,0.04244564154148102,0.006113989368267357,-0.007120654793316498
1772733375055294000,6.7462939453125,0.05890519343316555,0.0073208809399977325,-0.0018816855607554316
1772733375065310000,6.75631005859375,0.05321779544651508,0.0007619608158245683,0.0029112569373566655
1772733375075325000,6.766324951171875,0.04932838679254055,-0.005551752375625074,0.0005281063941773026
1772733375085341000,6.7763408203125,0.05337152470350265,0.00039601358026266096,0.005666674859030172
1772733375095357000,6.78635693359375,0.04828092356622219,0.0041865284370258445,-0.007302760761417448
1772733375105372000,6.796371826171875,0.05456687196791172,-0.0033322862278670072,-0.005941802005982026
1772733375115388000,6.806387939453125,0.04229775750339031,-0.007546177595853805,0.000028815102530643343
1772733375125404200,6.816404052734375,0.04469079011976718,-0.004376315388083457,0.004823328503221273
1772733375135419100,6.826419189453125,0.04469079011976718,-0.008722600964084268,-0.003831413122732192
1772733375145435100,6.83643505859375,0.0517225884526968,0.001748487635143101,0.007627745798928663
1772733375155450000,6.8464501953125,0.03795768247246742,0.005893697681091725,0.0004527761356439441
1772733375165466000,6.856466064453125,0.05396715250909328,0.0005376870732754468,0.0070874557766132055
1772733375175482000,6.866482177734375,0.05127250659763813,0.015851393398083745,0.00881179535118863
1772733375185497000,6.8764970703125,0.05994681144058704,0.004885908878035843,-0.001787979395315051
1772733375195513000,6.88651318359375,0.05156710563004017,0.005470978756994009,-0.006086169779580086
1772733375205529000,6.896529052734375,0.04782558101415634,-0.012478519431501627,-0.008634940946940332
1772733375215544000,6.9065439453125,0.050670449051260946,0.006520524342544376,0.004144497659895569
1772733375225560000,6.91656005859375,0.046181320938467975,-0.0010939692491665483,0.007551986282132566
1772733375235575800,6.926575927734375,0.044829906329512594,0.0048538332393392915,-0.006526223430968821
1772733375245591000,6.936591064453125,0.055602060234546655,0.01222005115840584,0.008318678072001784
1772733375255606800,6.946606689453125,0.059493806976079935,0.004426182411797344,-0.0005271656792610884
1772733375265622000,6.9566220703125,0.053506549260020256,0.000698467125557363,-0.00958193947346881
1772733375275637800,6.9666376953125,0.044077042135596274,-0.0005965411210432648,-0.007330790412658825
1772733375285653800,6.97665380859375,0.0539531239837408,-0.013936243959143757,0.006484073922829702
1772733375295668700,6.986668701171875,0.06263385856747627,0.00772456637006253,-0.004433224073937162
1772733375305684700,6.996684814453125,0.056499301335215565,0.018163981189392504,0.00832034030612558
1772733375315701000,7.006700927734375,0.057546180039644235,0.004996493113040924,0.0071710150073748076
1772733375325716000,7.016716064453125,0.05515197837948799,0.007572517613507807,-0.002485250077629462
1772733375335732000,7.02673193359375,0.045423196047544474,0.005530563457123935,-0.0021992270773276684
1772733375345747000,7.036746826171875,0.057546764561533924,-0.0037826603438705204,-0.0006245890385936946
1772733375355763000,7.046762939453125,0.04108662814795971,0.00910363617092371,-0.00232288085645996
1772733375365779000,7.056779052734375,0.05784370168149471,-0.00040394115839153524,0.002728676045220345
1772733375375794000,7.0667939453125,0.05110767142474651,0.004892923140712082,0.0034886184338945893
1772733375385810000,7.076809814453125,0.06158405725359916,0.004710333115421236,-0.001798354658856988
1772733375395826000,7.086825927734375,0.05484685795307159,0.0071753349894657726,-0.002945615864684805
1772733375405841000,7.0968408203125,0.05499357294738293,0.0026060543125495314,-0.009083634562510996
1772733375415857000,7.10685693359375,0.05259995580911636,-0.007850786565616726,0.003245174199994653
1772733375425872000,7.116871826171875,0.054845688909292215,0.005160159242153167,-0.00695837690369226
1772733375435887900,7.126887939453125,0.062327569097280495,0.0014017930893227457,-0.020826140470197423
1772733375445904100,7.136904052734375,0.04975801038146019,-0.0005447744011878967,-0.009162517618155107
1772733375455918800,7.1469189453125,0.06786649852395057,-0.00013962766639888285,-0.007417253986559808
1772733375465935000,7.15693505859375,0.056195934474468225,0.005850004669837653,0.0020885332444682716
1772733375475950800,7.166950927734375,0.05499649555683136,0.01185435965117067,0.003963898662291467
1772733375485966000,7.176966064453125,0.064122635820508,0.00289802299644798,0.00105627672043629
1772733375495981800,7.18698193359375,0.04376841457784176,0.012559512245841323,-0.003580388370575383
1772733375505997000,7.1969970703125,0.05514145698547363,-0.0001879237875342369,0.0019769260961562396
1772733375516012800,7.2070126953125,0.056790393236279484,0.011872662492841482,0.012576783041050657
1772733375526028800,7.21702880859375,0.0578396100282669,0.003905336875468492,0.0016159290303476154
1772733375536043800,7.227043701171875,0.04721826277077198,0.0007213365444913506,0.010238531085522844
1772733375546059800,7.237059814453125,0.06861410202085971,-0.009714023154228925,0.001901394908223301
1772733375556075800,7.24707568359375,0.06008300504088401,-0.0020307386426255108,0.0006871785465627908
1772733375566090800,7.2570908203125,0.059784898877143854,0.004373246648162603,0.005919416644237935
1772733375576106800,7.267106689453125,0.0442196654766798,0.002051196908764541,-0.004984272952284664
1772733375586121700,7.277121826171875,0.05170213018655777,0.010548683880083263,-0.008552441162103786
1772733375596138000,7.287137939453125,0.05095744929909706,0.00942139688320458,0.0015909041869454086
1772733375606154000,7.297154052734375,0.057090252965688704,0.007680909891426562,-0.0007641619060654193
1772733375616169000,7.3071689453125,0.05664134015440941,0.010959785431623459,0.0029975469813216474
1772733375626185000,7.31718505859375,0.05963818388283253,0.015796923264488578,-0.007772935556434094
1772733375636201000,7.327200927734375,0.0657739101588726,0.000054324003122746945,0.006933781318552792
1772733375646216000,7.3372158203125,0.06128361300230026,0.005329414861835539,0.000006995996367186307
1772733375656232000,7.34723193359375,0.060386956423521036,0.0015865750716999173,0.013883554790681226
1772733375666247000,7.357246826171875,0.05529927789568901,-0.003358187854103744,-0.0028549053739290683
1772733375676263000,7.367262939453125,0.054850949606299396,0.009811930570751429,-0.0014379695144016295
1772733375686279000,7.37727880859375,0.0518576130092144,0.013703859975375234,0.005035272487159818
1772733375696294000,7.3872939453125,0.05799275476336479,0.0038481998607516285,0.001567103186249733
1772733375706310000,7.397309814453125,0.05574760618507862,0.01626991107109934,0.005170315309986472
1772733375716326000,7.407325927734375,0.05904197155535221,0.01757182398252189,0.004242067149700597
1772733375726341000,7.417341064453125,0.05529927789568901,-0.0035023455651476978,0.006096207116404548
1772733375736356900,7.42735693359375,0.04362929836809635,0.001101421903260052,-0.0002221365843899548
1772733375746372000,7.4373720703125,0.048718145939707753,0.013029833171330392,0.005959684722544625
1772733375756387800,7.447387939453125,0.04827040217220783,0.00509597143214196,0.004093762986501679
1772733375766403800,7.45740380859375,0.044827568241953844,0.008864274457097053,-0.004730088128661737
1772733375776418800,7.467418701171875,0.05724924291968345,0.0009207681067287921,-0.002273059498518705
1772733375786434800,7.477434814453125,0.05246259316504001,-0.0015272460998967288,0.009430520904576405
1772733375796450800,7.487450927734375,0.05425999797582626,0.008297872745990753,0.0027075967245735228
1772733375806465800,7.4974658203125,0.053958969202637666,0.004444339122995734,-0.007732082956237718
1772733375816481800,7.507481689453125,0.053660278517007824,0.01008143169451505,-0.0063130647374782705
1772733375826496800,7.517496826171875,0.05710135888159275,-0.0006984305929392576,-0.0025149967619217933
1772733375836512800,7.5275126953125,0.049618309649825096,0.0034955870307981965,-0.006316507936734706
1772733375846529000,7.537529052734375,0.061438511303067204,0.010380451173707842,-0.015096702573262155
1772733375856544000,7.5475439453125,0.060091772869229315,-0.007747983778268098,-0.0032063765595667063
1772733375866560000,7.55756005859375,0.054553427964448925,0.0062382002698257565,-0.0016331632929388433
1772733375876576000,7.567575927734375,0.04542611865699291,0.011899477434530854,0.00003225830178707838
1772733375886591000,7.577591064453125,0.049318449920415876,-0.01550119172092527,0.003422877987613901
1772733375896607000,7.58760693359375,0.05664835441708564,0.0016356018451973795,-0.002479149130405858
1772733375906622000,7.5976220703125,0.049614217996597286,0.00481324550062418,-0.006551796263642609
1772733375916638000,7.607637939453125,0.0445247859030962,-0.006390029830671847,0.01147221933263354
1772733375926654000,7.617654052734375,0.05948796175718307,0.006644808309338986,0.0071576806017663325
1772733375936669000,7.6276689453125,0.03973462901711464,0.00874543385040015,0.015435469540953635
1772733375946685000,7.637684814453125,0.054100423499941826,0.008711348917707801,0.006379681966593488
1772733375956701000,7.647700927734375,0.05634674112200737,0.013477686536684632,0.0033285416345112022
1772733375966716000,7.6577158203125,0.05095628025531768,0.001434672445617616,0.005440035629458725
1772733375976732000,7.66773193359375,0.05664075563251972,0.0024985022848471997,-0.008701147184101865
1772733375986747000,7.677746826171875,0.0528986464947462,-0.008392382629029452,0.01012062206058763
1772733375996763000,7.687762939453125,0.053641573816537856,0.002009476658888161,-0.0007990048905834555
1772733376006779000,7.69777880859375,0.04930266782939434,0.00738156161867082,0.005653760578529909
1772733376016793900,7.7077939453125,0.05049976865947246,0.015149857532605528,0.012732174532162025
1772733376026809900,7.717809814453125,0.05184241544008255,0.0042744624488055705,0.0005696713804267346
1772733376036824800,7.727824951171875,0.05603109930157661,-0.0025857421768829226,-0.0073165335584431885
1772733376046840800,7.7378408203125,0.057229953697323796,0.0033338936630636453,0.010832989847334102
1772733376056856800,7.74785693359375,0.05827507883608341,0.011597389215417206,0.011345177153171971
1772733376066871800,7.757871826171875,0.05678045636415481,0.008118461058475076,-0.006912181408097967
1772733376076887800,7.7678876953125,0.04540624491274357,0.002306596441939473,-0.008209162416076287
1772733376086903800,7.77790380859375,0.05154197118878364,0.011542809483967721,0.009667316201981156
1772733376096918800,7.787918701171875,0.057227031087875364,0.007371222887746989,0.004751267914008349
1772733376106934800,7.797934814453125,0.04854571198225021,0.00249276666380465,0.003696023240033537
1772733376116949800,7.80794970703125,0.0416577060341835,-0.0018810645062476395,-0.003935019627679139
1772733376126966000,7.817966064453125,0.05332943912744522,-0.007104425177723169,-0.0072428016019519415
1772733376136982000,7.82798193359375,0.04509761735498905,0.007001110933721065,0.010422984274337068
1772733376146997000,7.8379970703125,0.05018704944849014,0.008750146558135748,0.002349385270895436
1772733376157013000,7.848012939453125,0.05437339522242546,-0.01751687892489135,0.008661271831439808
1772733376167029000,7.858029052734375,0.06081073479354381,0.0006677066611126065,-0.001032603583903983
1772733376177044000,7.8680439453125,0.054824646121263504,0.010645897176861763,-0.001163764816056937
1772733376187060000,7.87806005859375,0.0666448477745056,-0.00044978959411382674,0.006120629171608016
1772733376197075000,7.888074951171875,0.048237668946385384,0.01633950570859015,0.003024992110673338
1772733376207091000,7.898091064453125,0.0507815082103014,0.00017100918535143135,0.004558330024639144
1772733376217107000,7.90810693359375,0.056169046467542644,0.001049910911731422,0.0008089965616352856
1772733376227122000,7.918121826171875,0.04898351887762546,0.004864646894298493,0.0072537339879199855
1772733376237138000,7.928137939453125,0.0506289479970932,-0.002864449520409107,0.002381753170536831
1772733376247154000,7.93815380859375,0.041352585607767105,0.006086918698251247,-0.010942085378151386
1772733376257169000,7.9481689453125,0.05841010339260101,-0.0028792086981236933,-0.01421305160652846
1772733376267185000,7.958184814453125,0.06169979258775711,-0.0035755569318309424,0.01379720081463456
1772733376277200000,7.968199951171875,0.0518225416958332,0.00634907676577568,0.00775957375136204
1772733376287215900,7.9782158203125,0.054065936708450314,0.00549414043687284,0.003534238540753722
1772733376297232000,7.98823193359375,0.0495744705080986,0.008965798602811992,0.0015142496210057287
1772733376307246800,7.998246826171875,0.060498600104451176,0.015111242555268108,-0.002750668681319803
1772733376317262800,8.008262939453125,0.06423837115466595,0.0054280894633382554,0.0015550382891204207
1772733376327277800,8.01827783203125,0.06109422791004181,-0.0002687704714015126,0.0057298123562708496
1772733376337293800,8.0282939453125,0.044780806490778924,0.008314641217701136,-0.010660236229468137
1772733376347309800,8.038309814453125,0.05570259799957275,0.014204466441273688,0.016543987905280663
1772733376357324800,8.04832470703125,0.0446294153213501,0.012572079466469585,0.00137431142735295
1772733376367340800,8.0583408203125,0.052554947623610494,0.005822933999821543,-0.005052068358333781
1772733376377357000,8.068357177734375,0.05075812733471393,0.0012026537880301476,0.012008399435412138
1772733376387372000,8.0783720703125,0.060488078710436814,-0.009218312059156596,0.00635731487115845
1772733376397388000,8.088387939453124,0.06303542510569095,0.014495777538046239,0.0008157459628302604
1772733376407403000,8.098403076171875,0.06228723708689213,0.018063662620075045,-0.007950283151026815
1772733376417419000,8.1084189453125,0.050315059742331504,-0.007214388358220458,0.00048031259654089805
1772733376427435000,8.11843505859375,0.05645137054026127,-0.0031973712692037223,0.003148600224032998
1772733376437450000,8.128449951171875,0.06198737735748291,-0.0013761837240308522,0.008497459571855142
1772733376447466000,8.138466064453125,0.05570201347768306,-0.005406608283892274,0.010623922807071357
1772733376457482000,8.14848193359375,0.05346154107451439,0.006625811347924173,-0.0009484141654800623
1772733376467497000,8.1584970703125,0.06109422791004181,0.004804587270133197,0.00036995669039897617
1772733376477513000,8.168512939453125,0.0673772537022829,0.00872208950743079,0.010167201148672029
1772733376487528000,8.17852783203125,0.05390928484201431,0.0038952173402532933,0.006100919824140146
1772733376497544000,8.1885439453125,0.05286299065947532,0.003404547746479511,0.01048798493510112
1772733376507560000,8.198559814453125,0.054506666213274,0.007332900171354412,0.006794628576189279
1772733376517575000,8.208574951171874,0.04268529551625252,0.0027190862329676746,0.006287866364140063
1772733376527591000,8.2185908203125,0.05809738418161869,-0.003574826279468834,0.009358706910535693
1772733376537606000,8.22860595703125,0.057950084665417664,0.0009725713592022657,0.010779725290136412
1772733376547622000,8.238621826171874,0.05271276853382587,-0.0014320420971140264,0.0010956588827539236
1772733376557638000,8.248637939453126,0.0616916092813015,-0.003400638756342232,0.013090860909875482
1772733376567652900,8.25865283203125,0.05675707548856735,-0.003654869245737791,-0.00664510057028383
1772733376577668900,8.2686689453125,0.06648468877673148,-0.0006548106469213963,-0.0003070292557124048
1772733376587684900,8.278684814453126,0.06169979258775711,0.012313976519554853,0.0020063896526582537
1772733376597699800,8.288699951171875,0.05391688362658024,0.0018678031658753752,-0.001998270278284326
1772733376607715800,8.2987158203125,0.05585632725656032,0.003341273251920938,0.004470332080777734
1772733376617730800,8.308730712890625,0.048825113445520395,0.0027338819433003663,-0.0066665086844936005
1772733376627746800,8.318746826171875,0.046583471998572344,0.007021423069387674,0.005672794072562828
1772733376637762800,8.3287626953125,0.05376549245715141,0.008109729762747883,0.005160999492369592
1772733376647777800,8.33877783203125,0.06124561907947063,0.008412731297314166,-0.00536985647007823
1772733376657794000,8.3487939453125,0.05929799214303493,0.013733524461276828,-0.00004251483432017266
1772733376667810000,8.35881005859375,0.0534609565526247,0.003447181311808526,-0.007694107299717143
1772733376677825000,8.368824951171876,0.05181435838937759,-0.004500087898224592,0.013329163177777081
1772733376687841000,8.378841064453125,0.048374447068572045,-0.001826155981235206,0.00326196093801409
1772733376697856000,8.38885595703125,0.05286474422514438,-0.00470543774459511,0.01836423473553732
1772733376707872000,8.3988720703125,0.04852466919422149,0.0006770955439656972,-0.0016342044725548475
1772733376717888000,8.408887939453125,0.05720598829984665,-0.010262852676026522,0.010529696051822975
1772733376727903000,8.418903076171874,0.07352233232855797,0.002954173630475998,-0.0002105009455233812
1772733376737919000,8.4289189453125,0.04943184716701507,0.0029454423347488046,0.00019764146395027636
1772733376747934000,8.438933837890625,0.057957098928093906,0.0019693273115903138,0.006706785895954817
1772733376757950000,8.448949951171874,0.04793021043241024,0.011127324018254876,-0.0004837740621063858
1772733376767965700,8.458965576171876,0.05361702389717102,0.002144391617551446,-0.0014225436164066194
1772733376777981000,8.46898095703125,0.06498948178291321,-0.0027864523807540533,-0.01101883127563633
1772733376787997000,8.478996826171874,0.05391513006091118,-0.0005241700045764446,-0.0010972480516415089
1772733376798013000,8.489012939453126,0.06558803219795227,0.006951901497133076,0.0021529676496516914
1772733376808028000,8.49902783203125,0.06244681156277656,0.005874444991350173,0.007356299313250929
1772733376818044000,8.5090439453125,0.04628536583483219,0.0017171426488086581,0.013897592449188232
1772733376828059000,8.519058837890626,0.05256839162707329,0.003129530197381973,-0.0005187814434058964
1772733376838075000,8.529074951171875,0.04344283588528633,-0.011267353543452917,-0.0004433324538636952
1772733376848091000,8.5390908203125,0.051821957173943514,-0.0015266981106251477,0.0058502147323917595
1772733376858105900,8.54910595703125,0.05241700045764446,0.006613134529441594,-0.005602203921228647
1772733376868121900,8.559121826171875,0.04508358882963657,-0.007740019667521119,0.0002775109002832323
1772733376878136800,8.56913671875,0.04538227951526642,0.013036628238297997,-0.0012794270849786698
1772733376888152800,8.57915283203125,0.05870061077177524,0.01214409984536469,-0.0013117949846200643
1772733376898168800,8.5891689453125,0.06004676468372345,0.005269976292178034,0.0018509159631561487
1772733376908183800,8.599183837890624,0.054062429577112193,0.007918006582930683,0.0057913424183148885
1772733376918200000,8.609199951171876,0.05226970094144344,0.0012635536624118686,-0.009482817347394302
1772733376928216000,8.619216064453125,0.05780453871488571,0.024331563908420503,-0.0018127576435450464
1772733376938231000,8.62923095703125,0.05615501794219017,0.012691614192910492,0.0022194661477580664
1772733376948247000,8.6392470703125,0.04957037885487079,0.004161284397915005,0.005259692360181361
1772733376958262000,8.649261962890625,0.04956920981109142,0.007036145714484155,0.008243932335358112
1772733376968278000,8.659278076171875,0.07037117482125758,0.0035411797381937503,0.011393007483426481
1772733376978294000,8.6692939453125,0.05465688833892345,-0.0033114626355469226,0.01280808931258507
1772733376988309000,8.67930908203125,0.05615560246407986,-0.0038053836323320863,0.004994027161318809
1772733376998325000,8.689324951171875,0.046427404654026026,-0.003912497268617153,0.013356288646720348
1772733377008340700,8.6993408203125,0.044780221968889235,-0.0035586057970300317,-0.003604171104962006
1772733377018356000,8.70935595703125,0.043134208327531814,-0.0020747604474425315,0.005986106938589364
1772733377028371700,8.719371826171875,0.050315644264221186,0.0015873057240620254,0.0018657664724159985
1772733377038387000,8.729386962890626,0.061984454748034476,-0.0004610781731083989,-0.01065945077817887
1772733377048402700,8.739402587890625,0.03909048589468002,-0.004053915033303201,0.007111430307244882
1772733377058419000,8.7494189453125,0.04103402117788792,-0.011765694987028837,0.007205310002621263
1772733377068434000,8.759433837890626,0.06452887853384018,0.0016910583594813941,0.0012907430634368211
1772733377078450000,8.769449951171875,0.06692191115021705,0.0003842866098508239,0.002586810755962506
1772733377088465000,8.77946484375,0.06228489899933338,-0.0011629793647676705,0.007089227608591318
1772733377098481000,8.78948095703125,0.052258010503649706,-0.003675035250931978,-0.007702957326453179
1772733377108497000,8.799496826171875,0.06557634176015853,-0.0005866042489185929,0.008833139533316716
1772733377118511900,8.809511962890625,0.0462760134845972,0.004129391422308981,0.0067359389252029354
1772733377128528000,8.81952783203125,0.04508183526396751,0.005305303333885967,0.003773426724644378
1772733377138542800,8.82954296875,0.05420856004953384,0.007850494304671883,0.011178624947229399
1772733377148558800,8.839558837890625,0.05570376704335212,0.004258059303276241,0.000036313422396779056
1772733377158574800,8.849574951171874,0.06168985571563244,0.015718597331270574,-0.0059812115677632385
1772733377168589800,8.85958984375,0.05271218401193618,0.0049110798519104715,-0.003227154486114159
1772733377178605800,8.869605712890625,0.05854863508045673,0.002214607309550047,0.00704958058479242
1772733377188622000,8.8796220703125,0.055554129439592356,0.008065050370804966,0.007588290571374818
1772733377198637000,8.889636962890625,0.05794716205596923,0.002241239588148892,0.004203242109809071
1772733377208653000,8.899653076171875,0.04552431833446026,0.0017015066882595418,0.0034813758423551913
1772733377218668000,8.90966796875,0.06078852296173572,0.0041045857746154065,0.010579837070172652
1772733377228683800,8.919683837890625,0.05839373677968979,0.006801021784357726,0.0007299034434370696
1772733377238699800,8.92969970703125,0.04911620534658432,-0.004281586309336126,0.00567654779907316
1772733377248714800,8.93971484375,0.05629881032705307,-0.007739471678249538,-0.0023533947257325053
1772733377258731000,8.94973095703125,0.04582008641064167,0.005088153451867401,0.00704715116568841
1772733377268745700,8.959745849609375,0.05434709173738956,0.0008361950958147644,0.009837247675098477
1772733377278762000,8.969761962890624,0.04716448675692081,-0.008264481933042406,0.011243415545439346
1772733377288777700,8.97977783203125,0.04835983402132988,0.0007377762226387858,-0.0015657423462253062
1772733377298793000,8.98979296875,0.07005787108838558,0.010146386689506471,-0.00021373408222571014
1772733377308808700,8.99980859375,0.058986441975831985,0.009551197275333106,0.01687933907317929
1772733377318824700,9.00982470703125,0.04671732751131057,0.00046009179241955276,-0.007835735126957297
1772733377328839700,9.019839599609375,0.05464870503246784,-0.0032849399548023936,-0.0025131153320893645
1772733377338855700,9.029855712890624,0.05973989069163799,0.006663586075045168,0.00047294214083813126
1772733377348870700,9.03987060546875,0.05674889218211174,0.010225516340322791,-0.0016718878681305795
1772733377358886700,9.04988671875,0.058096215137839316,0.007916581810824573,0.012447338841948657
1772733377368902700,9.059902587890624,0.07784779431223869,-0.007353979492001235,0.006043709744187072
1772733377378917600,9.069917724609375,0.03519932367503643,0.012561558072455226,0.006125259680952877
1772733377388933600,9.07993359375,0.05540332279205322,0.013277232061140239,0.007835570730175823
1772733377398948600,9.089948486328124,0.041485856598615645,-0.003952902344241738,-0.006267380698537454
1772733377408964900,9.09996484375,0.05121113179922104,0.018989362630248068,-0.01784212882388383
1772733377418980900,9.10998095703125,0.0286170226752758,0.007445530232973396,-0.0036366486024577167
1772733377428995800,9.119995849609374,0.060493923929333684,-0.011480850163660943,0.017683695992315188
1772733377439011800,9.13001171875,0.06572773292958736,0.00043787996061146257,0.007777748728869482
1772733377449027800,9.14002783203125,0.07560147669017314,0.021733985163271425,0.017244765718933193
1772733377459042800,9.150042724609374,0.05629647223949432,-0.007386895380914211,0.0058302313902880995
1772733377469058800,9.160058837890626,0.08053367239534855,-0.0031163419222459197,0.021728331740619614
1772733377479073800,9.17007373046875,0.030257191097736356,0.001483589621260762,-0.021967885250691325
1772733377489089800,9.18008984375,0.03085574151277542,-0.0005644289497286081,-0.028081710222177206
1772733377499105800,9.190105712890626,0.04148001137971878,-0.01639466996192932,-0.018453018130687997
1772733377509120800,9.200120849609375,0.06303133345246315,-0.01733122015967965,-0.00747772460267879
1772733377519136800,9.21013671875,0.0422328755736351,0.007815349926054477,0.0009398746659979223
1772733377529151700,9.22015185546875,0.07515139483511447,0.02357552137672901,0.02035713471896015
1772733377539168000,9.23016796875,0.06736614778637885,0.012611790422350168,0.026782756452821195
1772733377549183700,9.240183837890624,0.06706161188185214,0.00868157483395189,0.005735438379459083
1772733377559199000,9.250198974609376,0.059575055518746374,0.005810878235846757,0.0028982604584656653
1772733377569214700,9.260214599609375,0.05972060146927833,0.0018752923525869845,-0.009686824620049446
1772733377579230000,9.27022998046875,0.03607026129066944,-0.009457198848947882,-0.023202678609499705
1772733377589245700,9.28024560546875,0.0540232666105032,0.004842763856053352,0.01810236892895773
1772733377599261700,9.29026171875,0.03666296648681164,0.011614084621891379,0.006494841912016272
1772733377609276700,9.300276611328124,0.05761106196939945,0.010595153370313345,0.01205522511866875
1772733377619292700,9.310292724609376,0.05282207412719726,-0.0073490841211751095,0.015193285682378335
1772733377629308700,9.32030859375,0.04833528410196304,0.0021577990883961317,0.010126147619076072
1772733377639323600,9.33032373046875,0.04684416876137256,-0.0038525472423061725,0.0060518199854064725
1772733377649339600,9.340339599609376,0.0640524931937456,0.012923705915734171,0.0031812512514647093
1772733377659354600,9.350354736328125,0.061361354413628576,0.010684731349907816,0.0015213826146908103
1772733377669371000,9.360370849609374,0.055827101162075995,-0.0030679362032562493,0.008806954779289663
1772733377679387000,9.370386962890626,0.0661526803433895,0.00950107452329248,0.01355284326528199
1772733377689401900,9.38040185546875,0.07363572957515716,0.011270787609554826,0.008158601272618398
1772733377699417900,9.39041796875,0.053286184507608414,0.02022376326341182,0.022355934720207006
1772733377709432800,9.400432861328126,0.048044776722788805,0.008202157286554575,0.006346756944525986
1772733377719448800,9.41044873046875,0.048640404528379436,-0.0037105084231123324,-0.003357913859467953
1772733377729464800,9.42046484375,0.04549801484942436,0.014135675521381199,-0.010939518961729481
1772733377739479800,9.430479736328126,0.03502396710813045,0.005901734857074916,-0.02024191997461021
1772733377749495800,9.440495849609375,0.0434048419624567,-0.0026477745624259113,-0.005433067032555118
1772733377759510800,9.4505107421875,0.04924363111853599,0.008088833105191588,0.0012160064599476754
1772733377769526800,9.46052685546875,0.05672784939408302,0.018705613785423337,0.015428099085250868
1772733377779542800,9.470542724609375,0.08710428295731544,0.013501359673216938,0.016847126437164843
1772733377789557800,9.480557861328125,0.0857598826110363,0.011214965769089758,0.01754423272269778
1772733377799573800,9.49057373046875,0.048799979004263874,0.022712840132787824,0.027765310349920764
1772733377809588700,9.500588623046875,0.07094108366370201,0.00904646262358874,0.010634836926730349
1772733377819605000,9.51060498046875,0.04834054479897022,-0.008246288689225912,-0.013170913009298964
1772733377829620700,9.520620849609376,0.05013619604408741,-0.0077653002392500635,-0.02912593117863871
1772733377839636000,9.530635986328125,0.020511457630991936,-0.009148169432394207,-0.029245210176752877
1772733377849651700,9.540651611328125,0.051942368683218956,0.004034150886908173,-0.022140100012440232
1772733377859667700,9.550667724609376,0.06137070676386356,-0.0013567118385806678,-0.006223313227947801
1772733377869682700,9.5606826171875,0.0866577082335949,0.017991218438372016,0.024898285279935223
