time,seconds_elapsed,z,y,x
1772733368354827800,0.045827880859375,0.00004439079202711582,-0.000986240804195404,-0.0006604819791391492
1772733368364843800,0.05584375,-0.000642894534394145,0.0012912466190755367,-0.0006653671734966338
1772733368374858800,0.065858642578125,0.0015928291250020266,0.0022667625453323126,-0.003023063763976097
1772733368384874800,0.075874755859375,0.0014755090232938528,0.004031043034046888,-0.005470276810228825
1772733368394890800,0.085890869140625,0.003112554317340255,0.0066827526316046715,-0.0039235129952430725
1772733368404905700,0.09590576171875,-0.002400659490376711,0.021775130182504654,0.0006137244636192918
1772733368414921700,0.105921630859375,0.0012002007570117712,0.0011782434303313494,0.0001950755249708891
1772733368424937700,0.115937744140625,-0.0005532717332243919,-0.004555404186248779,-0.0019808481447398663
1772733368434952700,0.12595263671875,0.0010113352909684181,-0.005898436531424522,-0.0014468843583017588
1772733368444968700,0.13596875,-0.00027479114942252636,-0.0060866158455610275,-0.0011423053219914436
1772733368454984700,0.145984619140625,0.0008125775493681431,0.0012871446087956429,0.0006851558573544025
1772733368464999700,0.155999755859375,0.0001559630036354065,0.0018400808330625296,-0.0009056517155840993
1772733368475016000,0.166015869140625,0.0006363973952829838,0.009314775466918945,0.00015881378203630447
1772733368485031000,0.176031005859375,-0.0004561722744256258,0.0011366759426891804,-0.0003440256114117801
1772733368495047000,0.186046875,0.001339863520115614,-0.001176279503852129,-0.00003003899473696947
1772733368505063000,0.19606298828125,-0.0009872999507933855,-0.002569804200902581,0.001771609764546156
1772733368515078000,0.206077880859375,-0.0005947498138993979,-0.0030515699181705713,0.0020467143040150404
1772733368525094000,0.216093994140625,-0.0007738231215626001,-0.004017840605229139,0.00006382819265127182
1772733368535109600,0.226109619140625,0.00021580769680440426,-0.0039043896831572056,0.0006574467988684773
1772733368545124900,0.236124755859375,-0.00005378853529691696,0.0002809520810842514,-0.00019843759946525097
1772733368555140600,0.246140625,-0.00015205913223326206,0.0014378293417394161,-0.0007449182448908687
1772733368565156600,0.256156494140625,-0.0001646906603127718,0.0034590165596455336,-0.0013057374162599444
1772733368575171600,0.266171630859375,0.0010710160713642836,0.0035458356142044067,-0.0010380897438153625
1772733368585187600,0.2761875,0.0014174338430166245,0.000248938100412488,0.00027310557197779417
1772733368595203800,0.286203857421875,-0.0025173865724354982,-0.003507184097543359,-0.00036365626147016883
1772733368605218800,0.29621875,-0.0014804217498749495,-0.0030568756628781557,0.0027333805337548256
1772733368615234800,0.30623486328125,-0.0004519089125096798,-0.0020379505585879087,0.0009155068546533585
1772733368625250800,0.316250732421875,0.00014778017066419125,0.0009685885161161423,0.00005408900324255228
1772733368635265800,0.326265869140625,-0.0009579644538462162,0.0024003037251532078,-0.0002694850554689765
1772733368645281800,0.33628173828125,0.0010375564452260733,0.0026281329337507486,-0.0006409272318705916
1772733368655297800,0.3462978515625,0.0010066635441035032,0.002611354924738407,0.00038518873043358326
1772733368665312800,0.356312744140625,0.0008455675560981035,0.0007337396964430809,-0.00039211142575368285
1772733368675328800,0.366328857421875,-0.00040531926788389683,-0.001987478230148554,-0.00012819224502891302
1772733368685344800,0.3763447265625,-0.0009713524486869574,-0.002420582575723529,0.001255217008292675
1772733368695359700,0.38635986328125,-0.0002791967708617449,-0.003707688068971038,-0.00126519869081676
1772733368705375700,0.396375732421875,-0.0004013932775706053,-0.0013994050677865744,-0.000884106382727623
1772733368715392000,0.40639208984375,-0.00033374899066984653,0.0010152831673622131,-0.0007349693914875388
1772733368725407000,0.416406982421875,0.000043809181079268456,0.002566729672253132,-0.0007379298913292587
1772733368735423000,0.426423095703125,0.0014081464614719152,0.001993617508560419,-0.000622881343588233
1772733368745438700,0.436438720703125,0.0005247511435300112,-0.0013014257419854403,-0.0012722365790978074
1772733368755454000,0.446453857421875,-0.0004425088409334421,-0.0009176644962280989,0.001302773947827518
1772733368765469700,0.4564697265625,0.0006809972692281008,-0.0017861530650407076,-0.00035661697620525956
1772733368775485000,0.46648486328125,-0.00006655184552073479,-0.0029350409749895334,0.0002513827057555318
1772733368785500700,0.476500732421875,-0.00033079180866479874,-0.001947847194969654,-0.0010834980057552457
1772733368795516700,0.4865166015625,0.0003919901791960001,-0.0008775228634476662,-0.0004440730554051697
1772733368805531600,0.49653173828125,0.0002904015127569437,0.001659309258684516,-0.00022959720809012651
1772733368815547600,0.506547607421875,0.0005734956357628107,0.003226579399779439,-0.0007763441535644233
1772733368825563600,0.516563720703125,-0.00045159831643104553,0.002285182476043701,0.0003567917738109827
1772733368835578600,0.52657861328125,0.000010460149496793747,-0.0005303113721311092,0.0010204515419900417
1772733368845595000,0.536594970703125,-0.0019933837465941906,-0.0014166436158120632,-0.00024398707319051027
1772733368855611000,0.54661083984375,-0.00017843954265117645,-0.0026867049746215343,0.0007879878394305706
1772733368865625900,0.5566259765625,0.0023393568117171526,-0.0011301843915134668,0.0007762631867080927
1772733368875641900,0.566641845703125,0.001122558256611228,0.0008884915150702,0.00031979731284081936
1772733368885657900,0.576657958984375,-0.0001097384374588728,-0.00006442703306674957,-0.0013706134632229805
1772733368895672800,0.5866728515625,-0.0006684695836156607,0.0017545119626447558,0.00034659274388104677
1772733368905688800,0.596688720703125,0.0003297720104455948,0.0015848118346184492,0.000497463857755065
1772733368915704800,0.606704833984375,0.000014453660696744919,-0.00034837680868804455,-0.00014435802586376667
1772733368925719800,0.6167197265625,0.0014026814606040716,-0.00032089464366436005,0.0004240451380610466
1772733368935735800,0.62673583984375,0.00004473538137972355,-0.001377104315906763,0.00012577103916555643
1772733368945751600,0.63675146484375,-0.000547278206795454,-0.002436997601762414,0.0013378236908465624
1772733368955766800,0.646766845703125,0.00033662491478025913,-0.0015325883869081736,-0.00016553071327507496
1772733368965782800,0.65678271484375,-0.00008200667798519135,0.0016085243551060557,-0.0007015113369561732
1772733368975798800,0.666798828125,0.0025345489848405123,0.00030863541178405285,0.0003365888260304928
1772733368985813800,0.676813720703125,0.001335029024630785,0.001975594088435173,0.00005344860255718231
1772733368995829800,0.686829833984375,0.0005358145572245121,0.00032123830169439316,0.00011736445594578981
1772733369005845800,0.696845703125,-0.00011849543079733849,-0.0009144267532974482,0.0006293890764936805
1772733369015860700,0.70686083984375,-0.0012817641254514456,-0.002177563728764653,-0.0009818233083933592
1772733369025876700,0.716876708984375,0.001578707480803132,-0.002929176203906536,-0.0005613614339381456
1772733369035891700,0.7268916015625,-0.00016805995255708694,-0.0009176908060908318,0.00047221139539033175
1772733369045907700,0.73690771484375,-0.0007979315705597401,0.00037484406493604183,0.00013338832650333643
1772733369055923700,0.746923828125,0.0011592255905270576,-0.00002276594750583172,-0.00004983716644346714
1772733369065938700,0.756938720703125,0.00011454499326646328,0.0018675177125260234,-0.0017844687681645155
1772733369075954700,0.76695458984375,0.0010937892366200686,0.0008392713498324156,0.0002893347991630435
1772733369085971000,0.776970947265625,-0.00039234617725014687,0.0003755686338990927,0.00002087443135678768
1772733369095986000,0.78698583984375,-0.0015026179607957602,-0.0026037096977233887,-0.001305113430134952
1772733369106002000,0.797001953125,-0.002583541441708803,-0.0015681772492825985,-0.0004563343827612698
1772733369116018000,0.807017822265625,-0.0005443589761853218,-0.002194819040596485,0.00002596410922706127
1772733369126033000,0.817032958984375,-0.0008788618724793196,-0.00037978473119437695,0.0007517484482377768
1772733369136049000,0.827048828125,0.002074583899229765,0.000970970606431365,0.00004068436101078987
1772733369146064600,0.837064697265625,0.0006870839279145002,0.0023525389842689037,0.00030527636408805847
1772733369156079900,0.847079833984375,-0.0008647402282804251,0.0008891320321708918,0.00001605716533958912
1772733369166095600,0.857095703125,-0.0008898742962628603,0.000025887740775942802,-0.00010466959793120623
1772733369176111600,0.867111572265625,0.0012811345513910055,-0.001082786126062274,0.00020931707695126534
1772733369186126600,0.877126708984375,-0.0032912150491029024,-0.001474639168009162,0.0005882201949134469
1772733369196142600,0.887142578125,-0.002199319191277027,-0.0014557305257767439,1.9418075680732727e-7
1772733369206158800,0.897158935546875,-0.00010589510202407837,-0.0003183491062372923,0.00036849151365458965
1772733369216173800,0.907173828125,-0.00004091416485607624,-0.0004853291902691126,0.0009210975840687752
1772733369226189600,0.917189453125,0.00036919862031936646,0.0008661346510052681,-0.0006957073928788304
1772733369236205600,0.92720556640625,-0.0007839500904083252,0.0019263391150161624,0.0008728944230824709
1772733369246220500,0.937220458984375,-0.0009704818949103355,0.0012611942365765572,-0.00032548565650358796
1772733369256236500,0.947236572265625,0.0009187643881887197,-0.0000325692817568779,-0.0012682446977123618
1772733369266251500,0.95725146484375,0.0003358502872288227,-0.003318736795336008,0.0003082164330407977
1772733369276267500,0.967267578125,-0.000546721275895834,-0.0004774103872478008,0.00002672034315764904
1772733369286283500,0.977283447265625,-0.0015264118555933237,-0.00007646367885172367,0.00014864024706184864
1772733369296298500,0.987298583984375,0.0027122751343995333,-0.0008554381784051657,0.0003129573306068778
1772733369306314500,0.997314453125,0.0005026042927056551,-0.00006223493255674839,-0.0007025275263004005
1772733369316330800,1.007330810546875,-0.00019647576846182346,0.0011455086059868336,-0.0004268903285264969
1772733369326345700,1.017345703125,0.00029555358923971653,0.0008295513689517975,0.0002567105693742633
1772733369336361700,1.02736181640625,0.0004625336732715368,0.0002841358073055744,-0.000990447704680264
1772733369346377700,1.037377685546875,-0.0009633067529648542,-0.0009381421841681004,0.0019490732811391354
1772733369356392700,1.047392822265625,-0.0005768819246441126,-0.0017141872085630894,0.0006220201030373573
1772733369366408700,1.05740869140625,0.00014234217815101147,-0.0025293787475675344,0.0020004096440970898
1772733369376424400,1.067424560546875,0.0004632531199604273,-0.0018097928259521723,-0.0004976356285624206
1772733369386439700,1.077439697265625,-0.0004639753606170416,0.00029275170527398586,-0.001098335487768054
1772733369396455400,1.087455322265625,0.0007000926416367292,0.0018467061454430223,0.00017145962920039892
1772733369406471400,1.097471435546875,0.0010554734617471695,0.0006321610417217016,-0.00016896706074476242
1772733369416486400,1.107486328125,0.0011004810221493244,0.00023375218734145164,-0.00025525351520627737
1772733369426502400,1.11750244140625,0.00040356931276619434,0.000435433117672801,0.0007248879410326481
1772733369436518700,1.1275185546875,-0.0011485209688544273,-0.0011805729009211063,-0.0007347906939685345
1772733369446533600,1.13753369140625,-0.0013793304096907377,-0.0017703080084174871,-0.0004981943056918681
1772733369456549600,1.147549560546875,0.0005730330012738705,-0.0003132922574877739,0.00046320678666234016
1772733369466565600,1.157565673828125,0.001368689350783825,0.00031538517214357853,0.00029576208908110857
1772733369476580600,1.16758056640625,0.000029651913791894913,0.0010703913867473602,-0.0006187674589455128
1772733369486596600,1.1775966796875,0.002250863239169121,0.0003929648082703352,-0.0007952689193189144
1772733369496611600,1.187611572265625,-0.0006567758973687887,0.0009706043638288975,0.0008263299241662025
1772733369506627600,1.197627685546875,0.0007834408897906542,0.0007335380651056767,-0.00034708844032138586
1772733369516643600,1.2076435546875,0.0006039438303560019,-0.0006100265309214592,-0.0009340491378679872
1772733369526658600,1.217658447265625,-0.00003258185461163521,-0.0011584002058953047,-0.000638785189948976
1772733369536674600,1.227674560546875,-0.0006235372275114059,-0.000373300164937973,0.0010025210212916136
1772733369546690600,1.237690673828125,-0.00012950459495186806,-0.000846116105094552,0.0010298066772520542
1772733369556705500,1.24770556640625,0.00006783567368984222,0.000085457693785429,-0.0005838025244884193
1772733369566721800,1.2577216796875,0.0022830753587186337,-0.00009382213465869427,-0.00039505993481725454
1772733369576737500,1.267737548828125,0.0023943958804011345,0.0004966005217283964,0.00029123667627573013
1772733369586752800,1.277752685546875,-0.0005260000471025705,0.002137782983481884,-0.0005852950271219015
1772733369596768500,1.2877685546875,-0.000640249578282237,-0.0015698699280619621,0.00016571639571338892
1772733369606784500,1.297784423828125,-0.0005718867760151625,-0.0015003099106252193,0.00047885929234325886
1772733369616799500,1.307799560546875,0.0012390629854053259,-0.0010515674948692322,0.0020192316733300686
1772733369626815500,1.3178154296875,0.0015809002798050642,-0.0005892147310078144,-0.0011522939894348383
1772733369636831500,1.32783154296875,-0.0003815828822553158,0.0004155959468334913,0.0003007266204804182
1772733369646846500,1.337846435546875,0.0014259375166147947,0.0006176314782351255,-0.00019059993792325258
1772733369656862500,1.347862548828125,0.0011835896875709295,0.0004099048674106598,-0.0006731646717526019
1772733369666878500,1.35787841796875,-0.000144952442497015,-0.0008673977572470903,0.0005961989518254995
1772733369676893400,1.3678935546875,0.0009346932638436556,-0.0002966823522001505,0.0005559851415455341
1772733369686909700,1.37790966796875,-0.0004448806867003441,-0.0007611240725964308,-0.00008031667675822973
1772733369696924400,1.38792431640625,0.00032131094485521317,-0.001426914008334279,0.00010424037463963032
1772733369706940700,1.397940673828125,-0.0012328105513006449,0.0006561055779457092,-0.0008118169498629868
1772733369716956700,1.407956787109375,-0.0008908605668693781,0.0013794200494885445,-0.00045894808135926723
1772733369726971600,1.4179716796875,-0.0004943420644849539,0.0015354136703535914,0.00014968030154705048
1772733369736987600,1.427987548828125,0.0009576133452355862,0.0008358012419193983,-0.00014513160567730665
1772733369747003600,1.438003662109375,0.000021259067580103874,0.001649806392379105,-0.0012463380116969347
1772733369757018600,1.4480185546875,-0.000006970250979065895,0.0004465901292860508,-0.0004990550223737955
1772733369767034600,1.45803466796875,-0.0010810974054038525,-0.0008838153444230556,-0.000028657959774136543
1772733369777050400,1.46805029296875,-0.0008789633866399527,-0.001568780280649662,0.001005447469651699
1772733369787065600,1.478065673828125,0.0003292970359325409,-0.0020232044626027346,0.0002647869987413287
1772733369797081300,1.488081298828125,-0.0018379832617938519,-0.0006237130146473646,-0.0005099265836179256
1772733369807097600,1.49809765625,0.000563308596611023,0.0005822638049721718,0.00002594408579170704
1772733369817112600,1.508112548828125,-0.0004838462918996811,0.0001811916008591652,0.0013561929808929563
1772733369827128600,1.518128662109375,0.0006050681695342064,0.0008199550211429596,-0.0005873477784916759
1772733369837144600,1.52814453125,0.00004527159035205841,0.0010734880343079567,0.001426800969056785
1772733369847159600,1.53815966796875,-0.00005421368405222893,-0.000037218909710645676,0.0009206217946484685
1772733369857175600,1.548175537109375,-0.000046756817027926445,-0.001096890540793538,-0.00011614675167948008
1772733369867190500,1.5581904296875,-0.00021352735348045826,-0.0014203765895217657,-0.0002043594140559435
1772733369877206500,1.56820654296875,0.001067719655111432,0.0001884389203041792,-0.0014635019470006227
1772733369887222500,1.578222412109375,0.0008412462193518877,0.0009667084086686373,-0.0006083142943680286
1772733369897237500,1.588237548828125,0.0004186027217656374,0.000653787050396204,0.0000055442797020077705
1772733369907253500,1.59825341796875,-0.0020006371196359396,0.0007199605461210012,-0.000890671624802053
1772733369917269500,1.60826953125,0.0005400183144956827,0.0007527172565460205,0.0009916505077853799
1772733369927284500,1.618284423828125,0.00024997652508318424,-0.0012058427091687918,0.0006561119807884097
1772733369937300700,1.62830078125,0.00027154781855642796,0.00046262750402092934,-0.00042379979277029634
1772733369947316700,1.638316650390625,0.0007959788199514151,-0.00049173878505826,-0.0007094762986525893
1772733369957331700,1.648331787109375,-0.0001001749187707901,-0.00047602620907127857,0.0003991976846009493
1772733369967347700,1.65834765625,-0.0009292005561292171,0.00048617785796523094,-0.0006045820191502571
1772733369977363700,1.66836376953125,-0.0005038937088102102,-0.001147671602666378,-0.000961445621214807
1772733369987378700,1.678378662109375,-0.0008370650466531515,0.0005058958195149899,0.0002546826144680381
1772733369997394700,1.688394775390625,0.00044498080387711525,0.0003852546215057373,0.00013164454139769077
1772733370007410400,1.698410400390625,0.0005639581941068172,0.00048647518269717693,0.0006768555613234639
1772733370017425700,1.70842578125,-0.0017497958615422249,-0.00016759708523750305,0.00036473304498940706
1772733370027441400,1.71844140625,-0.0005085086449980736,-0.0007919520139694214,0.0004150097956880927
1772733370037457400,1.72845751953125,0.0007471716962754726,-0.000831100158393383,0.00004962412640452385
1772733370047472400,1.738472412109375,-0.0022652011830359697,0.0009683752432465553,-0.00022803700994700193
1772733370057488600,1.748488525390625,0.000026981579139828682,-0.0006470985244959593,-0.0008453577756881714
1772733370067503400,1.75850341796875,0.0025104531086981297,-0.00014820951037108898,0.00041071069426834583
1772733370077519600,1.76851953125,0.0000936342403292656,-0.00012211035937070847,-0.001697980216704309
1772733370087535600,1.77853564453125,0.0004215871449559927,-0.0005368948914110661,0.0010838794987648726
1772733370097550600,1.788550537109375,-0.0023281266912817955,-0.0006037401035428047,0.0007453919388353825
1772733370107566600,1.798566650390625,0.0007232991047203541,-0.0019963239319622517,0.00013375806156545877
1772733370117582600,1.80858251953125,0.0009073237888514996,0.000979758333414793,0.0004373585106804967
1772733370127597600,1.81859765625,0.0007737190462648869,-0.00019599520601332188,0.00037414347752928734
1772733370137613600,1.828613525390625,-0.00006917165592312813,0.00023756735026836395,0.00035283819306641817
1772733370147629600,1.838629638671875,0.00010167877189815044,0.0012079665903002024,0.00036865961737930775
1772733370157644500,1.84864453125,-0.00011963001452386379,-0.0004900649655610323,0.001166276284493506
1772733370167660500,1.85866064453125,-0.00032489863224327564,-0.00020035356283187866,-0.00014242378529161215
1772733370177676800,1.8686767578125,0.00029668305069208145,-0.0003774536307901144,-0.0005994222010485828
1772733370187691500,1.87869140625,-0.0008532789070159197,-0.0018147467635571957,-0.0009954210836440325
1772733370197707800,1.888707763671875,-0.0009086725767701864,-0.001510081347078085,-0.0021584234200417995
1772733370207723500,1.8987236328125,-0.0011965848971158266,-0.00021546264179050922,-0.00015642994549125433
1772733370217738800,1.90873876953125,0.00044338940642774105,-0.00044023338705301285,-0.0005950525519438088
1772733370227755500,1.918755615234375,0.0013803350739181042,-0.0008693875279277563,0.0016140383668243885
1772733370237771500,1.928771484375,0.00035981182008981705,-0.0007117281202226877,-0.0008629677467979491
1772733370247786500,1.938786376953125,-0.00013423152267932892,0.0005474949721246958,0.0002236188156530261
1772733370257802500,1.948802490234375,-0.0001294377725571394,0.0007640100084245205,0.0003663642564788461
1772733370267818500,1.958818603515625,-0.00007726228795945644,0.0004871124401688576,0.0006615179590880871
1772733370277833500,1.96883349609375,0.001759253442287445,-0.00009825034067034721,0.0005398115608841181
1772733370287849500,1.978849365234375,-0.0005059547256678343,-0.00007789093069732189,0.0002505637239664793
1772733370297864400,1.988864501953125,0.00016249855980277061,0.0002648578956723213,-0.0002106956671923399
1772733370307880700,1.998880615234375,-0.00003367685712873936,0.0006121860351413488,0.0002300799824297428
1772733370317896700,2.008896728515625,-0.0029407835099846125,0.001868665567599237,0.0006780236726626754
1772733370327911700,2.01891162109375,-0.00035564694553613663,-0.00040438747964799404,-0.00042849796591326594
1772733370337927700,2.028927734375,-0.0005625744815915823,0.0003487544599920511,0.00014594581443816423
1772733370347943400,2.038943359375,-0.0012036371044814587,-0.00047144806012511253,0.0008922461420297623
1772733370357958700,2.048958740234375,0.00012528011575341225,-0.00137372687458992,-0.0005344091332517564
1772733370367974400,2.058974365234375,0.001628776779398322,-0.0007968072313815355,-0.0004686696920543909
1772733370377990400,2.068990478515625,-0.0003400980494916439,-0.0012833669316023588,0.0002629007212817669
1772733370388005400,2.07900537109375,0.0008162292651832104,0.000665357569232583,0.00028464815113693476
1772733370398021400,2.089021484375,0.0004298044368624687,0.000009687384590506554,-0.0003153620637021959
1772733370408037400,2.099037353515625,0.0000802110880613327,0.0005754970479756594,-0.0001482795923948288
1772733370418052400,2.10905224609375,0.00006689503788948059,0.0011952146887779236,0.0009529374074190855
1772733370428068600,2.119068603515625,-0.0007274623494595289,-0.0014022414106875658,-0.0003071570536121726
1772733370438084600,2.129084716796875,0.0003591075073927641,0.001078226836398244,-0.00021607696544378996
1772733370448099600,2.139099609375,-0.00032079312950372696,-0.00037003052420914173,0.0008466962026432157
1772733370458115600,2.149115478515625,0.0001465918030589819,0.0005122746806591749,0.0007175329374149442
1772733370468131600,2.159131591796875,0.0006718947552144527,-0.0002807013224810362,0.0003058754373341799
1772733370478146600,2.169146484375,0.00034938612952828407,0.0010162580292671919,0.0003759165992960334
1772733370488162600,2.17916259765625,0.0009714157786220312,-0.0005714269354939461,0.0012862844159826636
1772733370498177500,2.189177490234375,-0.00027920491993427277,0.0007873177528381348,0.0000958514865487814
1772733370508193500,2.199193603515625,0.0016531669534742832,-0.00004571489989757538,0.000839180895127356
1772733370518209500,2.20920947265625,0.00046033691614866257,-0.0014121830463409424,-0.0000769465696066618
1772733370528224500,2.219224609375,-0.0001018682960420847,0.0004075411707162857,0.0015168143436312675
1772733370538240500,2.229240478515625,-0.0006627300754189491,-0.00012322678230702877,0.0007311818189918995
1772733370548256500,2.239256591796875,-0.0002604073379188776,-0.0003763895947486162,-0.00013556331396102905
1772733370558271500,2.249271484375,-0.0014625582844018936,0.000769834965467453,0.0007310291985049844
1772733370568287500,2.25928759765625,0.0005579942371696234,0.000016892561689019203,-0.0005680581089109182
1772733370578303500,2.269303466796875,0.0012434918899089098,-0.0013423848431557417,-0.00004554586485028267
1772733370588318500,2.279318359375,-0.00010411534458398819,0.001136420527473092,-0.00018778874073177576
1772733370598334500,2.28933447265625,-0.0003781546838581562,0.0005686345975846052,0.000013812561519443989
1772733370608350500,2.2993505859375,0.0011695714201778173,0.0002192496322095394,0.0006391487549990416
1772733370618365400,2.309365478515625,-0.001484534703195095,-0.0007815661374479532,0.00025165872648358345
1772733370628381400,2.31938134765625,-0.00018586497753858566,-0.00010033394210040569,-0.0006848141783848405
1772733370638397400,2.3293974609375,-0.00027135247364640236,0.0005018068477511406,-0.0010544608812779188
1772733370648412400,2.339412353515625,0.0008642210159450769,0.00011381600052118301,-0.0002759820781648159
1772733370658428400,2.349428466796875,0.0004543603863567114,0.00002033892087638378,-0.0008522901334799826
1772733370668443400,2.359443359375,-0.0006407909095287323,0.000925395404919982,0.001503954641520977
1772733370678459600,2.369459716796875,-0.003320463467389345,-0.000772369559854269,0.00019501091446727514
1772733370688475600,2.3794755859375,0.0008583860471844673,-0.0006373145151883364,0.0009008079068735242
1772733370698490600,2.38949072265625,-0.0010894499719142914,0.0015992082189768553,0.000972180743701756
1772733370708506600,2.399506591796875,0.0013215991202741861,0.00025212857872247696,0.00007500604260712862
1772733370718522600,2.409522705078125,0.0016965724062174559,0.001709942938759923,0.0016992681194096804
1772733370728537600,2.41953759765625,-0.0009705263655632734,-0.00009844801388680935,-0.00037376751424744725
1772733370738553600,2.4295537109375,0.000018837861716747284,0.0019780187867581844,0.0010092119919136167
1772733370748569600,2.439569580078125,-0.0009774155914783478,0.001028695609420538,0.0013895657612010837
1772733370758584600,2.44958447265625,0.0017696348950266838,-0.0006293882615864277,0.0009309692541137338
1772733370768600600,2.4596005859375,-0.0011550567578524351,0.000819390406832099,0.00036953494418412447
1772733370778616300,2.4696162109375,-0.0010144419502466917,-0.0007097967900335789,-0.0002760152565315366
1772733370788631600,2.479631591796875,-0.00025875470601022243,-0.000047659967094659805,0.00042042089626193047
1772733370798647600,2.4896474609375,0.00032181432470679283,-0.0004780266899615526,-0.00031328003387898207
1772733370808663600,2.49966357421875,0.0022600707598030567,-0.00008843373507261276,0.000721104210242629
1772733370818678500,2.509678466796875,0.001951676793396473,0.0004468616098165512,-0.00038410769775509834
1772733370828694500,2.519694580078125,-0.000536065548658371,0.001533081871457398,0.0005317317554727197
1772733370838710500,2.52971044921875,-0.00046895374543964863,-0.00020702742040157318,0.00002466596197336912
1772733370848725500,2.5397255859375,-0.0009044457692652941,-0.0006653426680713892,0.00016749149654060602
1772733370858741500,2.549741455078125,-0.0009933954570442438,0.0005224270280450583,-0.0003299869713373482
1772733370868756500,2.559756591796875,-0.0016360138542950153,-0.0005476265214383602,-0.0015860704006627202
1772733370878772500,2.5697724609375,0.0011589736677706242,0.000753860455006361,-0.000022794818505644798
1772733370888788500,2.57978857421875,0.0001944540999829769,0.0012574701104313135,-0.0013724808814004064
1772733370898803500,2.589803466796875,0.0006093746051192284,0.0007458766922354698,-0.002010840456932783
1772733370908819500,2.5998193359375,0.0008202726021409035,0.0010880776681005955,-0.0007584890117868781
1772733370918835700,2.609835693359375,-0.0002740202471613884,0.0011400093790143728,0.000765105476602912
1772733370928850400,2.619850341796875,-0.001515501644462347,0.00019492278806865215,-0.00015828048344701529
1772733370938866700,2.62986669921875,0.0005322028882801533,-0.0013667545281350613,0.0010217661038041115
1772733370948882700,2.639882568359375,-0.0005530051421374083,0.00021535763517022133,0.00028676341753453016
1772733370958897700,2.649897705078125,-0.0005985451862215996,0.0006108370143920183,0.0007434955332428217
1772733370968913700,2.65991357421875,0.0009827492758631706,0.0005110090132802725,-0.0004565318813547492
1772733370978929400,2.669929443359375,0.0015531983226537704,0.00019356003031134605,0.0005091303028166294
1772733370988944600,2.679944580078125,0.0010855100117623806,-0.00026294426061213017,0.0020813026931136847
1772733370998960400,2.68996044921875,0.0006367671303451061,-0.0004016950260847807,0.0008724939543753862
1772733371008976400,2.699976318359375,0.000982444267719984,0.0011584274470806122,0.000283891917206347
1772733371018991400,2.709991455078125,-0.00086259376257658,0.001095310552045703,-0.0004921531653963029
1772733371029007400,2.72000732421875,0.00003922171890735626,0.00042829522863030434,0.0011422327952459455
1772733371039023600,2.730023681640625,0.00016545550897717476,0.0012525434140115976,-0.00032809830736368895
1772733371049038300,2.740038330078125,-0.0022793165408074856,0.0007566004060208797,0.0005629573715850711
1772733371059054600,2.7500546875,-0.00007528439164161682,-0.00012091104872524738,0.0005459131207317114
1772733371069069600,2.760069580078125,-0.002601157408207655,-0.0007463153451681137,0.00045856996439397335
1772733371079085600,2.77008544921875,-0.0004929990973323584,0.00003159395419061184,-0.00015235913451761007
1772733371089101600,2.7801015625,-0.0012750839814543724,0.0009000671561807394,0.0002239075256511569
1772733371099116500,2.790116455078125,0.0022890246473252773,0.0009229702409356833,0.0017879819497466087
1772733371109132500,2.800132568359375,0.00003465218469500542,-0.0005202265456318855,-0.00006634276360273361
1772733371119148500,2.8101484375,0.0004386533983051777,0.0008776667527854443,-0.0005971108330413699
1772733371129163500,2.82016357421875,0.0010356407146900892,0.001277759438380599,0.00038364448118954897
1772733371139179500,2.830179443359375,-0.00010312721133232117,-0.00014250422827899456,-0.0014110597549006343
1772733371149195500,2.840195556640625,-0.0006836934480816126,-0.0010281950235366821,0.0006100068567320704
1772733371159210500,2.85021044921875,-0.002254958264529705,0.0006112467963248491,-0.0005790946306660771
1772733371169226500,2.8602265625,0.003024468896910548,0.000417427159845829,0.0004637667443603277
1772733371179242500,2.870242431640625,-0.0013678825926035643,0.0005055777728557587,-0.00042652804404497147
1772733371189257700,2.8802578125,0.0008742853533476591,0.000028744805604219437,-0.0006413119263015687
1772733371199273500,2.8902734375,-0.0007973809260874987,0.00008014403283596039,-0.0003180041676387191
1772733371209289500,2.90028955078125,0.0003086882643401623,-0.0001045281533151865,0.0005556661635637283
1772733371219304000,2.910303955078125,-0.000018880702555179596,-0.0002773671876639128,-0.00039375072810798883
1772733371229320000,2.92031982421875,-0.0009670881554484367,0.0007049136329442263,0.000795225496403873
1772733371239335000,2.9303349609375,0.00019458262249827385,-0.0011595655232667923,-0.00029214308597147465
1772733371249351000,2.940350830078125,0.00010020658373832703,0.00025988579727709293,-0.0002471562474966049
1772733371259366700,2.95036669921875,0.0005335030145943165,0.0005331260617822409,0.0007374144624918699
1772733371269382000,2.9603818359375,-0.000058244215324521065,0.0018532503163442016,0.0007933865999802947
1772733371279397600,2.970397705078125,-0.0005549236666411161,0.0010226103477180004,0.0010905953822657466
1772733371289413600,2.98041357421875,-0.0003670179285109043,0.0006212301086634398,0.00011639425065368414
1772733371299428600,2.9904287109375,0.0007043720688670874,-0.0006903766188770533,-0.00015285133849829435
1772733371309444600,3.000444580078125,0.0008134061936289072,0.0005647668149322271,-0.0005994044477120042
1772733371319460900,3.0104609375,0.0003651964943856001,0.000602849991992116,-0.000038010068237781525
1772733371329475800,3.020475830078125,-0.00026088301092386246,-0.0002202924806624651,0.00034040980972349644
1772733371339491800,3.030491943359375,-0.0001330510713160038,0.000001016305759549141,0.001132966484874487
1772733371349507800,3.0405078125,0.0003561810590326786,-0.00039188889786601067,0.00016763713210821152
1772733371359522800,3.050522705078125,-0.0005474297795444727,0.0015069448854774237,0.0010275718523189425
1772733371369538800,3.060538818359375,0.0007548527792096138,0.000704420730471611,0.00018075830303132534
1772733371379554800,3.070554931640625,0.0002877339720726013,0.001246107742190361,0.000888093956746161
1772733371389569800,3.08056982421875,-0.0002448174636811018,-0.000012069940567016602,-0.0008456460200250149
1772733371399585800,3.090585693359375,-0.0006155294831842184,0.0019040744518861175,-0.0011801390210166574
1772733371409601800,3.100601806640625,0.00029995967634022236,0.0003109846729785204,-0.0009776714723557234
1772733371419616800,3.11061669921875,-0.000008967239409685135,-0.0002245770301669836,0.0008061138214543462
1772733371429632800,3.1206328125,-0.0027318689972162247,0.00002958672121167183,-0.0007203465211205184
1772733371439647700,3.130647705078125,0.00011531682685017586,-0.0008069120813161135,-0.0008449824526906013
1772733371449664000,3.1406640625,-0.00023663230240345,-0.0006795900408178568,0.0008949449984356761
1772733371459679700,3.1506796875,-0.0010944365058094263,0.001934835221618414,0.0007122521055862308
1772733371469695000,3.160695068359375,-0.00035215867683291435,0.0009756134822964668,-0.0004618825623765588
1772733371479710700,3.170710693359375,-0.0002142069861292839,-0.0001253373920917511,0.00007154862396419048
1772733371489726700,3.180726806640625,0.0017890590243041515,0.0012194400187581778,0.00029551947955042124
1772733371499741700,3.19074169921875,-0.0007039259653538465,-0.00036141229793429375,-0.0006411141948774457
1772733371509757700,3.2007578125,0.0014238962903618813,0.00023521296679973602,-0.0005124465678818524
1772733371519773700,3.210773681640625,-0.0007958482019603252,0.0003214995376765728,0.001508892746642232
1772733371529788700,3.22078857421875,0.001257763709872961,0.00007684784941375256,0.0008052741177380085
1772733371539804700,3.2308046875,-0.002510076854377985,-0.0003918686416000128,0.00017250713426619768
1772733371549820700,3.240820556640625,-0.00037083495408296585,-0.0005897562950849533,-0.0003565211081877351
1772733371559835600,3.250835693359375,-0.0004762960597872734,-0.00107471807859838,0.000506609445437789
1772733371569852000,3.260851806640625,-0.0005043905694037676,0.0010794659610837698,0.0008070397889241576
1772733371579867000,3.270866943359375,0.0010700705461204052,-0.001373837934806943,-0.0011719552567228675
1772733371589883000,3.2808828125,0.0005757415201514959,-0.0009685554541647434,0.0008381785592064261
1772733371599899000,3.29089892578125,-8.326023817062378e-7,-0.0007187509909272194,-0.00007928046397864819
1772733371609913900,3.300913818359375,-0.00015540048480033875,0.00020949216559529305,-0.00006715580821037292
1772733371619929900,3.310929931640625,0.0011932244524359703,0.0006209504790604115,-0.0009446674375794828
1772733371629945900,3.32094580078125,0.001269990811124444,0.0014409945579245687,0.0002889552852138877
1772733371639960800,3.3309609375,0.0012050101067870855,0.0008689474780112505,0.00034727854654192924
1772733371649976800,3.340976806640625,0.000786179443821311,-0.00000941636972129345,-0.0007742313318885863
1772733371659992600,3.35099267578125,-0.0005802884697914124,-0.00027360208332538605,-0.0005308184190653265
1772733371670007800,3.3610078125,-0.0003035909030586481,-0.0008537853136658669,0.00009466824121773243
1772733371680023600,3.3710234375,-0.0008854917250573635,0.00030974973924458027,-0.0010217288509011269
1772733371690039800,3.381039794921875,0.0006801418494433165,0.0008757777977734804,0.0006305563729256392
1772733371700054800,3.3910546875,0.0015137114096432924,0.00005126302130520344,-0.00026959204114973545
1772733371710070800,3.40107080078125,-0.0015293075703084469,-0.0005182253662496805,0.0005220088642090559
1772733371720086800,3.411086669921875,0.0006678001955151558,0.0007108233403414488,0.0005973762599751353
1772733371730101800,3.421101806640625,0.0001506078988313675,-0.001116052269935608,0.00013785692863166332
1772733371740117800,3.43111767578125,0.001047294121235609,-0.0004577187355607748,-0.001499188132584095
1772733371750133800,3.4411337890625,0.0009918783325701952,-0.0006582734640687704,-0.0007306404877454042
1772733371760148700,3.451148681640625,-0.00035035470500588417,-0.0004135291092097759,-0.0008912290795706213
1772733371770164700,3.461164794921875,-0.0008199550211429596,0.000370522728189826,0.0006454066606238484
1772733371780179700,3.4711796875,0.0006200161296874285,-0.0008569280616939068,-0.0010678049875423312
1772733371790195700,3.48119580078125,-0.000024584587663412094,0.000044023385271430016,0.0005452897166833282
1772733371800211700,3.491211669921875,0.0011000684462487698,-0.0007157763466238976,0.00042198540177196264
1772733371810226700,3.501226806640625,0.0001183126587420702,0.00024336203932762146,0.00001014629378914833
1772733371820243000,3.511242919921875,0.000002198619768023491,0.00037012854591012,0.0006735395872965455
1772733371830259000,3.521259033203125,0.0008551329374313354,0.0009196305181831121,0.0001299560535699129
1772733371840274000,3.53127392578125,0.0009629908017814159,-0.000006084097549319267,-0.0005989511264488101
1772733371850290000,3.5412900390625,-0.0002015163190662861,0.000468425452709198,-0.0006055720732547343
1772733371860305700,3.5513056640625,-0.00034612580202519894,-0.0006514338310807943,0.0007238779217004776
1772733371870321000,3.56132080078125,-0.0007284521125257015,0.0004237215034663677,-0.0007140685338526964
1772733371880336600,3.571336669921875,-0.0017204796895384789,-0.0012751088943332434,-0.0007279169512912631
1772733371890352600,3.5813525390625,-0.0026568779721856117,-0.00034830207005143166,-0.0011364654637873173
1772733371900367600,3.59136767578125,0.0002971002832055092,0.0007960584480315447,-0.0008453819318674505
1772733371910383600,3.601383544921875,-0.0005307397805154324,0.0006859705317765474,0.00033806718420237303
1772733371920399600,3.611399658203125,-0.0008729558903723955,0.00020686793141067028,0.0007580476813018322
1772733371930414600,3.62141455078125,0.00004466739483177662,0.0008574170060455799,0.000057444325648248196
1772733371940430800,3.631430908203125,-0.0005361679941415787,0.0003466226626187563,-0.00025600974913686514
1772733371950445800,3.64144580078125,0.00011066277511417866,0.00013305572792887688,0.0008493207860738039
1772733371960461800,3.6514619140625,0.0008891047909855843,-0.000994793139398098,0.00039738230407238007
1772733371970477800,3.661477783203125,0.0005499210674315691,-0.0009383808355778456,0.0016165653942152858
1772733371980492800,3.671492919921875,-0.0004098820500075817,0.0009133149869740009,-0.000056698801927268505
1772733371990508800,3.6815087890625,0.0007639359682798386,0.00006076577119529247,0.00017900532111525536
1772733372000524800,3.69152490234375,-0.0016488877590745687,-0.0005999645218253136,0.0010655715595930815
1772733372010539800,3.701539794921875,-0.000023301923647522926,-0.0008605374023318291,0.0016129551222547889
1772733372020555800,3.7115556640625,-0.0005966806784272194,-0.00009274808689951897,0.0001740492880344391
1772733372030571800,3.72157177734375,0.001300258096307516,0.0008787731640040874,0.0008784030796959996
1772733372040586800,3.731586669921875,0.0003268723376095295,0.0008103298023343086,-0.0005029786261729896
1772733372050602800,3.741602783203125,-0.0004987937863916159,-0.0005555483512580395,-0.0007982662064023316
1772733372060618800,3.75161865234375,0.001493783202022314,0.0004814867861568928,0.00012771482579410076
1772733372070634000,3.761634033203125,-0.00121397920884192,-0.0004557876382023096,-0.00002720311749726534
1772733372080649700,3.771649658203125,-0.0007495239842683077,-0.0003854802343994379,-0.001237609889358282
1772733372090665700,3.781665771484375,0.0006612734869122505,0.0004707593470811844,-0.0004671525093726814
1772733372100680700,3.7916806640625,0.0004897657781839371,0.0014766353415325284,0.0009160932386294007
1772733372110696700,3.80169677734375,0.0008147386834025383,-0.0004095141775906086,-0.0004295034450478852
1772733372120711700,3.811711669921875,-0.00011816667392849922,0.00004135887138545513,0.00028981640934944153
1772733372130727700,3.821727783203125,0.0008871781174093485,0.0013765622861683369,0.0006511155515909195
1772733372140743700,3.83174365234375,0.0029793574940413237,0.0002314029261469841,0.000059627462178468704
1772733372150758700,3.841758544921875,0.0014366733375936747,-0.000063345767557621,-0.00009955174755305052
1772733372160774700,3.851774658203125,-0.00014604325406253338,0.00040270760655403137,0.0007555893389508128
1772733372170790700,3.861790771484375,-0.00022733304649591446,-0.00018188869580626488,-0.00004485354293137789
1772733372180805600,3.8718056640625,0.000659499317407608,-0.0011158592533320189,-0.0008467313600704074
1772733372190822000,3.88182177734375,0.0006462964229285717,-0.0003657147753983736,0.0015502501046285033
1772733372200838000,3.891837890625,-0.00003174459561705589,0.0001719773281365633,0.000009078765287995338
1772733372210852900,3.901852783203125,0.0005198689177632332,0.0009896995034068823,0.0000513644190505147
1772733372220869600,3.91186962890625,-0.00042102602310478687,-0.0004734413232654333,0.0006745441351085901
1772733372230885600,3.9218857421875,0.0010685601737350225,0.0008954531513154507,-0.0003171364078298211
1772733372240900600,3.931900634765625,0.0012437959667295218,-0.00031735049560666084,-0.0002654710551723838
1772733372250916600,3.94191650390625,-0.0003823363222181797,-0.000574697507545352,-0.0010840564500540495
1772733372260931600,3.951931640625,0.0009545704815536737,-0.0001970611046999693,0.001734899589791894
1772733372270947600,3.961947509765625,-0.0005078546237200499,0.0004505289252847433,0.00026958691887557507
1772733372280963300,3.97196337890625,-0.0001824165228754282,-0.0002727857790887356,-0.0001522577367722988
1772733372290978300,3.981978271484375,0.0007458995096385479,-0.000047587091103196144,-0.0003623146330937743
1772733372300994300,3.991994384765625,0.00024123024195432663,0.0007247296161949635,-0.00045472633792087436
1772733372311010300,4.00201025390625,0.0002153955865651369,0.0003112228587269783,-0.0016977379564195871
1772733372321025300,4.012025390625,0.002066026208922267,0.00008858251385390759,0.000513218343257904
1772733372331041300,4.022041259765625,-0.0005290124099701643,0.0006061247549951077,0.0001639123074710369
1772733372341057500,4.0320576171875,-0.0014043934643268585,0.0008980073034763336,-0.0029123048298060894
1772733372351072500,4.042072509765625,-0.000681618694216013,-0.00035434914752840996,0.00034205743577331305
1772733372361088500,4.052088623046875,0.0012318624649196863,-0.000658748671412468,0.000823823269456625
1772733372371104500,4.0621044921875,-0.0006110472604632378,0.002095556817948818,0.0008959698025137186
1772733372381119500,4.072119384765625,-0.000147657236084342,0.00022601778618991375,0.00015694252215325832
1772733372391135500,4.082135498046875,0.000767149031162262,-0.00031720567494630814,0.00007391651161015034
1772733372401150500,4.092150390625,-0.0008693633135408163,-0.0009017693810164928,0.0006065486231818795
1772733372411166500,4.10216650390625,0.00002878764644265175,-0.001567319268360734,-0.0002825971459969878
1772733372421182500,4.112182373046875,0.0010325328912585974,0.000301154563203454,-0.00045889843022450805
1772733372431197400,4.122197509765625,-0.002212541177868843,0.0011616481933742762,-0.0005237443256191909
1772733372441213400,4.13221337890625,-0.0012018715497106314,0.0001360648311674595,-0.00172003626357764
1772733372451229400,4.1422294921875,-0.00019484874792397022,0.0003028344362974167,-0.0005971471546217799
1772733372461244400,4.152244384765625,0.000789988087490201,0.0007116296328604221,0.0003812982467934489
1772733372471260700,4.1622607421875,-0.0004464988596737385,0.0005300836637616158,0.0010365351336076856
1772733372481276400,4.1722763671875,-0.00040948111563920975,0.0014941480476409197,0.0005608947249129415
1772733372491291600,4.182291748046875,-0.0011525917798280716,-0.00020108651369810104,-0.0009757913649082184
1772733372501307400,4.192307373046875,-0.0017866904381662607,0.0010143802501261234,-0.000263395719230175
1772733372511323400,4.202323486328125,-0.0001951300073415041,0.0004419805482029915,0.0005359980277717113
1772733372521338400,4.21233837890625,-0.002444968558847904,-0.0019846917130053043,-0.0010941228829324245
1772733372531354400,4.222354248046875,0.000011388212442398071,0.0012241590302437544,0.00001841189805418253
1772733372541369300,4.232369384765625,-0.0004006028175354004,0.0005490477196872234,-0.0007539047510363162
1772733372551385300,4.24238525390625,0.0005056406371295452,-0.00041721086017787457,0.000456951092928648
1772733372561401300,4.2524013671875,0.00027767429128289223,0.0014667093055322766,0.000778128276579082
1772733372571416300,4.262416259765625,-0.00025215395726263523,-0.0002892236225306988,0.0003534330753609538
1772733372581432300,4.272432373046875,-0.0016188882291316986,-0.0012013562954962254,0.0004951131995767355
1772733372591448600,4.282448486328125,-0.000020951032638549805,0.0015310057206079364,-0.0003372778883203864
1772733372601463600,4.292463623046875,-0.00047049252316355705,0.00040342332795262337,0.00045155035331845284
1772733372611479600,4.3024794921875,-0.00127252540551126,0.0003158233594149351,0.0008990116184577346
1772733372621495600,4.31249560546875,0.00028036395087838173,0.000018614577129483223,-0.00026984966825693846
1772733372631510500,4.322510498046875,-0.00021966500207781792,-0.0005579558201134205,0.000902281841263175
1772733372641526500,4.332526611328125,-0.0014092992059886456,0.0009994606953114271,-0.0009299730882048607
1772733372651542500,4.34254248046875,-0.0009877607226371765,-0.001134190009906888,0.00014430808369070292
1772733372661557500,4.3525576171875,-0.00018535018898546696,0.0017361650243401527,0.0008188866777345538
1772733372671573500,4.362573486328125,-0.0001352627296000719,-0.00018221489153802395,0.0007636614609509706
1772733372681589200,4.37258935546875,-0.002236230531707406,0.0016204789280891418,0.0004997422220185399
1772733372691604500,4.3826044921875,0.0000168774276971817,0.00008023087866604328,0.00039279914926737547
1772733372701620200,4.3926201171875,-0.00022520404309034348,0.0011758555192500353,0.0005161035805940628
1772733372711635500,4.402635498046875,-0.0003804152365773916,0.00020692008547484875,-0.0003463353496044874
1772733372721651500,4.4126513671875,0.0005895080976188183,-0.00007830467075109482,-0.0002216993598267436
1772733372731667500,4.42266748046875,0.0012657530605793,0.0007337071001529694,-0.0005292636342346668
1772733372741682400,4.432682373046875,0.0011509708128869534,-0.0005616543348878622,0.00025050994008779526
1772733372751698400,4.442698486328125,0.0017123888246715069,0.00007968908175826073,0.0010536176851019263
1772733372761714400,4.45271435546875,0.00032541481778025627,0.00024480512365698814,0.00036492408253252506
1772733372771729400,4.4627294921875,-0.0008532966021448374,0.00019010016694664955,-0.0008006836287677288
1772733372781745400,4.472745361328125,0.002404548227787018,-0.0006525239441543818,0.0013101377990096807
1772733372791761400,4.482761474609375,0.000875342171639204,-0.001371694728732109,0.0004927115514874458
1772733372801776400,4.4927763671875,0.0012836046516895294,-0.0013309484347701073,-0.0003067693905904889
1772733372811792400,4.50279248046875,0.0019034338183701038,0.0008670652750879526,-0.0006205224781297147
1772733372821807400,4.512807373046875,0.0008283155038952827,0.00011871708557009697,-0.0006341045955196023
1772733372831823400,4.5228232421875,0.00028082309290766716,-0.00013883435167372227,0.0003079643938690424
1772733372841839600,4.532839599609375,-0.0013285251334309578,-0.001229665009304881,-0.0006323977722786367
1772733372851854300,4.542854248046875,-0.0009923912584781647,0.0009069419465959072,0.0013583372347056866
1772733372861870600,4.55287060546875,0.0006326697766780853,0.00039454991929233074,-0.0006321092369034886
1772733372871886600,4.562886474609375,0.0002857833169400692,0.00007933727465569973,-0.000332157826051116
1772733372881901600,4.572901611328125,-0.0003704193513840437,-0.001583274221047759,-0.0010951533913612366
1772733372891917600,4.58291748046875,0.0005099535919725895,-0.0001004398800432682,0.0008236203575506806
1772733372901933300,4.592933349609375,0.0007648183964192867,-0.0007190920878201723,0.000538928434252739
1772733372911948500,4.602948486328125,0.0000028167851269245148,-0.0006096665747463703,-0.00039397820364683867
1772733372921964300,4.61296435546875,0.00047872355207800865,0.00035226717591285706,0.0009043128229677677
1772733372931980300,4.622980224609375,0.0008930354379117489,-0.0005578645505011082,-0.0005899876123294234
1772733372941995300,4.632995361328125,-0.0003860809374600649,-0.0005647887010127306,-0.0005127559415996075
1772733372952011300,4.64301123046875,0.0003088745288550854,-0.0014381161890923977,-0.0013924328377470374
1772733372962026200,4.653026123046875,0.0008138101547956467,0.0004423419013619423,-0.00040919374441727996
1772733372972042500,4.66304248046875,0.0010681608691811562,0.0009314657654613256,-0.00025946740061044693
1772733372982058500,4.67305859375,-0.0008525107987225056,0.00001693633385002613,-0.00113138637971133
1772733372992073500,4.683073486328125,-0.0007033043075352907,0.00029457989148795605,-0.0009138051536865532
1772733373002089500,4.69308935546875,0.00027434201911091805,-0.0007131602615118027,0.0005381503142416477
1772733373012105500,4.70310546875,0.000149634201079607,-0.0017701431643217802,0.0007805768400430679
1772733373022120400,4.713120361328125,0.0012311437167227268,0.00003095273859798908,0.001066334079951048
1772733373032136400,4.723136474609375,0.0008375095203518867,-0.0003121662884950638,0.0011416268534958363
1772733373042152400,4.73315234375,-0.0005164416506886482,-0.00043680216185748577,-0.0003790381597355008
1772733373052167400,4.74316748046875,-0.0003990628756582737,0.0009224738460034132,-0.0009738359367474914
1772733373062183400,4.753183349609375,-0.001250475412234664,0.00012299278751015663,0.00007864530198276043
1772733373072199400,4.763199462890625,-0.00013220775872468948,0.0009147394448518753,-0.00096980354283005
1772733373082214400,4.77321435546875,0.0007042912766337395,-0.0017846408300101757,-0.0007927033584564924
1772733373092230700,4.783230712890625,0.00021401513367891312,0.0007635178044438362,-0.0003424938186071813
1772733373102245400,4.793245361328125,0.0019203023985028267,0.0000979939941316843,0.00020931311883032322
1772733373112261600,4.80326171875,-0.0003306793514639139,-0.0008789862040430307,0.000789848854765296
1772733373122277400,4.81327734375,-0.00001749163493514061,0.0008243715856224298,0.0005123474402353168
1772733373132292600,4.823292724609375,-0.00016353907994925976,-0.0015978736337274313,0.0004985379055142403
1772733373142308400,4.833308349609375,0.001102793961763382,-0.0001744141336530447,-0.002155834808945656
1772733373152324400,4.843324462890625,0.0003849528729915619,-0.0018468049820512533,-0.001298396266065538
1772733373162339300,4.85333935546875,0.001982316840440035,-0.00011308700777590275,-0.0007204902940429747
1772733373172355300,4.863355224609375,-0.00058762077242136,0.0018036153633147478,0.0005673376144841313
1772733373182371300,4.873371337890625,0.0006803101859986782,0.0005908117163926363,-0.00000257883220911026
1772733373192386300,4.88338623046875,0.0002261982299387455,-0.00042590638622641563,0.00021885614842176437
1772733373202402300,4.89340234375,0.0010238150134682655,0.0003762377891689539,-0.00015691597945988178
1772733373212417300,4.903417236328125,-0.00020416663028299809,0.00004316936247050762,-0.0003544743522070348
1772733373222433300,4.913433349609375,-0.0008947243914008141,0.0006447774358093739,-0.0007310453802347183
1772733373232449300,4.92344921875,0.000867700669914484,0.00010381336323916912,-0.00040780368726700544
1772733373242464300,4.93346435546875,0.00011429237201809883,-0.0004969958681613207,0.00038741622120141983
1772733373252480500,4.94348046875,-0.0018272963352501392,-0.00046572741121053696,0.0003026517806574702
1772733373262496500,4.95349658203125,0.0001341216266155243,-0.000721657183021307,0.0011452760081738234
1772733373272511500,4.963511474609375,-0.001805997220799327,-0.0008440581150352955,0.00021616695448756218
1772733373282527500,4.973527587890625,0.00006407452747225761,0.0007477134931832552,-0.0012198095209896564
1772733373292543500,4.98354345703125,-0.000881517305970192,0.0015974981943145394,-0.0006917408318258822
1772733373302558500,4.993558349609375,0.0007025310769677162,0.0002592597156763077,0.0003495551645755768
1772733373312574500,5.003574462890625,-0.00008305534720420837,0.00035925209522247314,-0.0000022337771952152252
1772733373322590500,5.013590576171875,-0.000946718268096447,-0.0003635298926383257,-0.0015748303849250078
1772733373332605400,5.02360546875,0.0007162019610404968,-0.0006450687069445848,0.0007188974414020777
1772733373342621400,5.033621337890625,-0.0011189824435859919,-0.001279167365282774,0.00046483182813972235
1772733373352636400,5.043636474609375,-0.00019434629939496517,-0.00007407460361719131,-0.00012279755901545286
1772733373362652400,5.05365234375,-0.0017778617329895496,-0.00015157251618802547,0.00024471862707287073
1772733373372668400,5.06366845703125,0.0004688110202550888,-0.0007605673745274544,-0.0002951243659481406
1772733373382683400,5.073683349609375,0.00014497060328722,0.0000817903783172369,0.0011094268411397934
1772733373392699400,5.083699462890625,0.001214378047734499,0.0004500595387071371,0.0011810694122686982
1772733373402715400,5.09371533203125,-0.00016247620806097984,-0.0002492866478860378,0.00021301035303622484
1772733373412730400,5.10373046875,0.0008436148054897785,-0.00040836213156580925,-0.00045777641935274005
1772733373422746400,5.113746337890625,-0.0009287188295274973,0.00007873005233705044,0.00031746982131153345
1772733373432762400,5.123762451171875,-0.00003998633474111557,0.00026200967840850353,0.0009599983459338546
1772733373442777300,5.13377734375,0.0007158187218010426,-0.00008393474854528904,0.00002735923044383526
1772733373452793300,5.14379345703125,0.00018386077135801315,-0.0004546944983303547,-0.00047082878882065415
1772733373462808300,5.153808349609375,-0.0015911362133920193,-0.00008478155359625816,0.00034063635393977165
1772733373472824300,5.16382421875,-0.0005462609697133303,-0.0008914638310670853,0.00009024050086736679
1772733373482840300,5.17384033203125,-0.0009816878009587526,-0.0001092932652682066,-0.0006325413705781102
1772733373492855300,5.183855224609375,-0.0006851316429674625,0.00029736501164734364,-0.0003876409027725458
1772733373502871600,5.19387158203125,-0.0009149624966084957,0.0010939163621515036,-0.0003186649992130697
1772733373512887600,5.203887451171875,-0.0008754476439207792,0.00044442364014685154,0.0004229209152981639
1772733373522902500,5.213902587890625,0.0005251090042293072,-0.0012738476507365704,-0.0006953404517844319
1772733373532918500,5.22391845703125,-0.000513643492013216,0.0010926849208772182,-0.0006080667371861637
1772733373542934500,5.2339345703125,0.0014163493178784847,0.0003496629651635885,0.00030166911892592907
1772733373552949500,5.243949462890625,-0.0005046834703534842,-0.0012490360531955957,0.0006529599195346236
1772733373562965500,5.253965576171875,-0.00023916619829833508,0.000007443595677614212,0.0011155509855598211
1772733373572980500,5.26398046875,-0.0020127466414123774,-0.0005080816335976124,0.0003666668199002743
1772733373582996500,5.27399658203125,-0.00028728460893034935,0.0009542601183056831,-0.00011483277194201946
1772733373593012200,5.28401220703125,0.0006943456828594208,0.00008480576798319817,-0.00010926811955869198
1772733373603027500,5.29402734375,0.0003393460065126419,-0.0024063149467110634,-0.0006301823887042701
1772733373613043200,5.304043212890625,-0.0009766267612576485,-0.002256227657198906,-0.0005850183661095798
1772733373623059500,5.3140595703125,0.001234595663845539,-0.000009584706276655197,0.0001968856668099761
1772733373633074200,5.32407421875,-0.0010058723855763674,-0.0010646525770425797,0.000896527199074626
1772733373643090400,5.33409033203125,-0.00024207774549722672,-0.00026250816881656647,0.000601981533691287
1772733373653106400,5.3441064453125,-0.000716035021468997,0.0012567839585244656,-0.00027854653308168054
1772733373663121400,5.354121337890625,-0.000046516302973032,0.000341988168656826,0.0008903148118406534
1772733373673137400,5.364137451171875,0.00031800707802176476,0.001212150207720697,-0.000014300108887255192
1772733373683152400,5.37415234375,-0.0015126497019082308,-0.001255800947546959,0.00010660744737833738
1772733373693168400,5.38416845703125,-0.001054427120834589,-0.0006419576238840818,-0.0005227492656558752
1772733373703184400,5.394184326171875,-0.0014182149898260832,-0.00018096435815095901,0.0004610224859789014
1772733373713199400,5.404199462890625,-0.00013840431347489357,-0.00027106120251119137,0.000020100385881960392
1772733373723215400,5.41421533203125,-0.0004470646381378174,-0.00005880719982087612,-0.0008851080201566219
1772733373733231400,5.4242314453125,0.0003973487764596939,-0.0005837767384946346,0.0007049948908388615
1772733373743246300,5.434246337890625,0.0002596634440124035,0.0013142582029104233,-0.00039808632573112845
1772733373753262300,5.444262451171875,-0.0003079150337725878,-0.001669970341026783,-0.0001285703619942069
1772733373763278600,5.454278564453125,-0.0011265706270933151,-0.0003967129159718752,-0.00001538603100925684
1772733373773293600,5.46429345703125,-0.0006884809117764235,0.0004494099412113428,0.0011172019876539707
1772733373783309600,5.4743095703125,-0.0007103190291672945,0.0004896237514913082,0.0004737823037430644
1772733373793324500,5.484324462890625,0.00007338542491197586,0.0005215145647525787,0.00026259536389261484
1772733373803340500,5.494340576171875,-0.00008667074143886566,0.000855474965646863,-0.00021597463637590408
1772733373813356300,5.504356201171875,0.0005803601816296577,-0.00021734414622187614,0.0013752939412370324
1772733373823371500,5.51437158203125,-0.00019408692605793476,0.001064967829734087,0.0016525288810953498
1772733373833387300,5.52438720703125,-0.0003550248220562935,-0.0010565021075308323,-0.000679123098962009
1772733373843403300,5.5344033203125,-0.0011177542619407177,-0.0013462542556226254,-0.0005952335195615888
1772733373853418200,5.544418212890625,0.0006168065592646599,-0.000440472736954689,-0.00034041202161461115
1772733373863434200,5.554434326171875,0.0010969745926558971,0.00042185885831713676,0.00014668016228824854
1772733373873450500,5.564450439453125,0.0009540785104036331,0.0004170991014689207,-0.0007236120291054249
1772733373883465200,5.57446533203125,0.0011194609105587006,-0.0012348596937954426,-0.0001867187675088644
1772733373893481500,5.5844814453125,0.001519500743597746,-0.000182050047442317,-0.0011942933779209852
1772733373903496400,5.594496337890625,0.00006115389987826347,-0.0009011037182062864,-0.0016318508423864841
1772733373913512400,5.604512451171875,-0.001698724227026105,-0.0015422897413372993,-0.0003757865633815527
1772733373923528400,5.614528564453125,0.0009239567443728447,-0.0003694335464388132,0.0001957278000190854
1772733373933543400,5.62454345703125,-0.0005318671464920044,0.0008363754022866488,0.00007449777331203222
1772733373943559400,5.634559326171875,-0.0010000509209930897,-0.0004802914336323738,0.00019833480473607779
1772733373953575400,5.644575439453125,0.0009603570215404034,0.0006126957014203072,-0.00016646028961986303
1772733373963590400,5.65459033203125,-0.0007496585603803396,-0.0009140947367995977,-0.0013270658673718572
1772733373973606400,5.6646064453125,-0.000544355483725667,-0.0013799467124044895,-0.0004991276073269546
1772733373983622400,5.674622314453125,0.00173264741897583,0.000633669551461935,0.0009616162860766053
1772733373993637400,5.684637451171875,-0.0012500977609306574,-0.0003583841025829315,-0.0003187925321981311
1772733374003653400,5.6946533203125,0.0015179920010268688,-0.0005637139547616243,-0.0010048227850347757
1772733374013668400,5.70466845703125,-0.0007894693408161402,-0.00011592800728976727,0.0011060504475608468
1772733374023684600,5.7146845703125,0.0007983075920492411,0.0005107137840241194,-0.0013645640574395657
1772733374033700400,5.724700439453125,0.0006732353940606117,-0.000023040222004055977,-0.0005597298732027411
1772733374043715600,5.734715576171875,0.0003280895762145519,0.0024531669914722443,0.0005151219666004181
1772733374053731300,5.7447314453125,0.0006927426438778639,-0.00228418642655015,0.00044150231406092644
1772733374063747300,5.754747314453125,0.0004280244465917349,0.0014466356951743364,0.0003461610758677125
1772733374073762300,5.76476220703125,0.0011859298683702946,0.0014987594913691282,-0.0002162357559427619
1772733374083778300,5.7747783203125,-0.0003272781614214182,-0.0002192456740885973,-0.0003531222464516759
1772733374093794300,5.784794189453125,0.00007660966366529465,0.00034224381670355797,0.0008314274018630385
1772733374103809300,5.794809326171875,0.00014665070921182632,-0.00014484836719930172,-0.001023197895847261
1772733374113825300,5.8048251953125,0.00008976482786238194,0.00025398400612175465,-0.0003973020939156413
1772733374123840300,5.81484033203125,-0.0007169065065681934,-0.0010280618444085121,0.0008831457234919071
1772733374133856300,5.824856201171875,-0.00009585870429873466,-0.00013378728181123734,-0.0012661643559113145
1772733374143872500,5.83487255859375,-0.0006343498826026917,-0.0002970390487462282,0.0003674186300486326
1772733374153887500,5.844887451171875,-0.0009620788041502237,-0.001412631245329976,-0.0005513498326763511
1772733374163903500,5.854903564453125,-0.0009546219371259212,0.0008230926468968391,-0.0005324413650669158
1772733374173919500,5.86491943359375,-0.0013022897765040398,-0.0016850081738084555,0.0001455588499084115
1772733374183934500,5.8749345703125,-0.0003579328767955303,-0.0007579622324556112,0.00014635780826210976
1772733374193950500,5.884950439453125,0.00032884441316127777,-0.00022390112280845642,0.00021828548051416874
1772733374203966500,5.894966552734375,-0.0008586591575294733,-0.00008728099055588245,0.0007258839905261993
1772733374213981400,5.9049814453125,-0.0011737227905541658,-0.0013350776862353086,-0.0010124730179086328
1772733374223997200,5.9149970703125,-0.00013961736112833023,-5.674082785844803e-7,-0.0000369570916518569
1772733374234012200,5.92501220703125,0.0010211642365902662,-0.0004196974914520979,-0.0010983874090015888
1772733374244028200,5.935028076171875,0.0008597767446190119,-0.0016572684980928898,-0.0006874616374261677
1772733374254044200,5.945044189453125,-0.00022428994998335838,-0.001808122731745243,0.0008693462004885077
1772733374264059100,5.95505908203125,-0.0007452042773365974,-0.0007684249430894852,-0.0006150998524390161
1772733374274075100,5.9650751953125,0.00043674721382558346,0.0005222416948527098,-0.0001672657672315836
1772733374284091000,5.9750908203125,0.0014780431520193815,-0.0001214444637298584,-0.0017939246026799083
1772733374294106000,5.985106201171875,0.0010738952551037073,-0.001647882629185915,-0.0011438342044129968
1772733374304121900,5.995121826171875,-0.0008680820465087891,0.00007784576155245304,0.0002636463614180684
1772733374314137900,6.005137939453125,-0.0018422803841531277,-0.0010671387426555157,0.0015986576909199357
1772733374324152800,6.01515283203125,-0.002245749346911907,-0.00006792065687477589,0.00011527689639478922
1772733374334168800,6.0251689453125,0.0034001863095909357,-0.0009145953226834536,-0.0005352644948288798
1772733374344183800,6.035183837890625,0.0007386233191937208,-0.0005619928706437349,0.0008160233264788985
1772733374354200000,6.045199951171875,-0.0008744483347982168,0.0008595106191933155,-0.0011493877973407507
1772733374364216000,6.055216064453125,0.0020622191950678825,0.00015244120731949806,0.0005648889346048236
1772733374374231000,6.06523095703125,0.00010045827366411686,0.0004501896910369396,0.0008343351073563099
1772733374384247000,6.0752470703125,0.0010738435667008162,0.00025151786394417286,0.0003174155717715621
1772733374394263000,6.085262939453125,0.0009318732190877199,0.0010149984154850245,0.002444477053359151
1772733374404278000,6.095278076171875,-0.0006697517819702625,0.00020113633945584297,0.0005965095479041338
1772733374414294000,6.1052939453125,-0.00039627845399081707,-0.0007798082660883665,-0.0005777829210273921
1772733374424309000,6.11530908203125,-0.0007621967233717442,0.0008859990630298853,-0.0006483566830866039
1772733374434325000,6.125324951171875,-0.000437010545283556,-0.0010786636266857386,0.00017830124124884605
1772733374444341000,6.135341064453125,-0.0017030772287398577,0.00008460483513772488,0.0002504729200154543
1772733374454356000,6.14535595703125,-0.00029654218815267086,0.000665079103782773,0.0007970000151544809
1772733374464372000,6.1553720703125,-0.0003785674925893545,0.0011167512275278568,-0.0015942524187266827
1772733374474388200,6.16538818359375,0.001615971326828003,0.0005638741422444582,-0.00014565803576260805
1772733374484403200,6.1754033203125,-0.0013726279139518738,0.0010536294430494308,0.0003720605745911598
1772733374494419200,6.185419189453125,-0.001182790845632553,0.000038990750908851624,0.0002181521849706769
1772733374504435000,6.19543505859375,-0.0005441650282591581,0.001396936597302556,0.0003547724336385727
1772733374514450200,6.2054501953125,0.000865445239469409,-0.0005491310730576515,-0.00022058712784200907
1772733374524466000,6.2154658203125,-0.0012744045816361904,0.0005709943361580372,-0.0005601401790045202
1772733374534481200,6.225481201171875,-0.0014901820104569197,0.0004559264052659273,-0.0007646237500011921
1772733374544497000,6.235496826171875,0.0013295728713274002,0.0021771276369690895,0.00006921193562448025
1772733374554513000,6.245512939453125,0.0009718474466353655,0.0003214369062334299,-0.00012716639321297407
1772733374564527900,6.25552783203125,0.0011769107077270746,0.0011539410334080458,-0.0007380954921245575
1772733374574544000,6.2655439453125,-0.0007381339091807604,0.0006038914434611797,0.00009537069126963615
1772733374584559900,6.275559814453125,-0.00068300636485219,0.0002374404575675726,0.00018298870418220758
1772733374594574800,6.285574951171875,-0.00019236491061747074,0.0017166879260912538,0.0010293647646903992
1772733374604591000,6.295591064453125,0.0011045944411307573,-0.0007962710224092007,-0.0008036888903006911
1772733374614607000,6.305607177734375,-0.0016249895561486483,0.0007034661248326302,-0.0013779059518128633
1772733374624622000,6.3156220703125,0.000902883242815733,0.0001809538807719946,-0.00006416859105229378
1772733374634638000,6.32563818359375,0.00047512142919003963,0.0001857501920312643,-0.0024121508467942476
1772733374644653000,6.335653076171875,0.0004972259048372507,0.00048402417451143265,-0.00036338111385703087
1772733374654669000,6.3456689453125,0.000025022542104125023,0.0011932861525565386,0.000992701738141477
1772733374664685000,6.35568505859375,-0.0007201300468295813,-0.0012677409686148167,-0.0005868191365152597
1772733374674700000,6.365699951171875,0.00009188894182443619,-0.0008632652461528778,0.00032060500234365463
1772733374684716000,6.375716064453125,0.0001275753602385521,-0.0008563408628106117,-0.0005787444533780217
1772733374694732000,6.38573193359375,0.00021883216686546803,0.000868696253746748,-0.00036525039467960596
1772733374704747000,6.3957470703125,-0.00014362414367496967,-0.0005374527536332607,-0.0008432877948507667
1772733374714763000,6.405762939453125,0.0006068695802241564,0.00025702547281980515,-0.00002686888910830021
1772733374724778000,6.415778076171875,0.0005413556937128305,-0.0000417809933423996,-0.0006204874953255057
1772733374734794200,6.425794189453125,-0.001008783932775259,-0.00016666925512254238,-0.00021623459178954363
1772733374744810000,6.43581005859375,0.0012469133362174034,0.0010557216592133045,-0.000773900537751615
1772733374754825200,6.4458251953125,-0.0003336882218718529,-0.00004704366438090801,0.000428204657509923
1772733374764841000,6.455841064453125,0.0015041590668261051,0.0013079727068543434,0.0005784068489447236
1772733374774857000,6.46585693359375,0.002051512012258172,0.0011574937961995602,0.0008317236788570881
1772733374784872000,6.475871826171875,0.0016376569401472807,0.0012419158592820168,-0.0022237212397158146
1772733374794888000,6.485887939453125,-0.0005319763440638781,-0.0009939561132341623,-0.0013418241869658232
1772733374804903000,6.49590283203125,0.0005157110281288624,0.0011259200982749462,0.000015322701074182987
1772733374814919000,6.5059189453125,-0.0011909941677004099,0.0007322807796299458,0.0006202874938026071
1772733374824935000,6.515934814453125,-0.0012109680101275444,0.00226253317669034,-0.00023298931773751974
1772733374834950000,6.525949951171875,0.00011598225682973862,0.0003108968958258629,0.0006887465715408325
1772733374844966000,6.5359658203125,-0.0013130700681358576,0.0008666985668241978,3.1944364309310913e-7
1772733374854982100,6.545982177734375,0.0008355602622032166,0.0016132427845150232,0.0003546238876879215
1772733374864996900,6.555996826171875,0.0015636682510375977,-0.0014741597697138786,0.0018750226590782404
1772733374875013000,6.56601318359375,0.0014751935377717018,0.0005144390743225813,0.0007464258233085275
1772733374885029000,6.576029052734375,0.0009311097674071789,-0.0002562797162681818,0.00021885358728468418
1772733374895044000,6.586044189453125,-0.00023407675325870514,0.0003985147923231125,-0.000016008736565709114
1772733374905060000,6.59606005859375,-0.000768573023378849,-0.0016635709907859564,0.00022633885964751244
1772733374915075000,6.606074951171875,0.0012056995183229446,0.0014554578810930252,0.0004907202674075961
1772733374925091000,6.616091064453125,0.0005958355031907558,-0.0009728125296533108,0.0003330610925331712
1772733374935107000,6.626107177734375,0.00004538544453680515,0.0008452748879790306,0.0008359060157090425
1772733374945122000,6.6361220703125,0.0005495217628777027,-2.789311110973358e-7,-0.00016996986232697964
1772733374955138000,6.646137939453125,0.0011506110895425081,0.001231936039403081,0.0003107672091573477
1772733374965154000,6.656154052734375,-0.0008976261597126722,-0.00011109607294201851,0.0014513990608975291
1772733374975169000,6.6661689453125,-0.001129873562604189,-0.00003554089926183224,-0.0003836476826108992
1772733374985185000,6.67618505859375,0.00212690606713295,-0.0008430113084614277,-0.0001889705890789628
1772733374995200000,6.686199951171875,0.0004857827443629503,0.002511502243578434,0.0003851979272440076
1772733375005216000,6.696216064453125,-0.0011512620840221643,0.0008936319500207901,-0.00028831552481278777
1772733375015232000,6.70623193359375,-0.001661150949075818,0.0003062563482671976,0.00002913281787186861
1772733375025247000,6.7162470703125,0.00019240914843976498,-0.0014090859331190586,0.000010490650311112404
1772733375035263000,6.726262939453125,0.0008393789175897837,-0.0009676851332187653,-0.0003559596370905638
1772733375045279000,6.736279052734375,-0.0009744998533278704,-0.000709890853613615,0.00010716402903199196
1772733375055294000,6.7462939453125,0.000045222463086247444,0.00006491481326520443,-0.0002247701631858945
1772733375065310000,6.75631005859375,-0.00008687027730047703,0.00019434443674981594,0.0009291773894801736
1772733375075325000,6.766324951171875,-0.0003287417348474264,-0.00002778717316687107,-0.0012156203156337142
1772733375085341000,6.7763408203125,0.00035835360176861286,0.0017133875517174602,0.00043740379624068737
1772733375095357000,6.78635693359375,0.0006855747196823359,-0.0005544689483940601,-0.0006856312393210828
1772733375105372000,6.796371826171875,-0.00068888277746737,0.0002585942856967449,-0.0016931050922721624
1772733375115388000,6.806387939453125,0.0011375495232641697,-0.0008054082281887531,0.0013767420314252377
1772733375125404200,6.816404052734375,-0.0018401306588202715,0.0011850381270051003,-0.00003606488462537527
1772733375135419100,6.826419189453125,0.0017820000648498535,-0.0005062550771981478,0.00018716102931648493
1772733375145435100,6.83643505859375,0.0001169918105006218,0.00008789612911641598,-0.0006631863652728498
1772733375155450000,6.8464501953125,0.0006290851160883904,-0.0011922193225473166,0.000475054606795311
1772733375165466000,6.856466064453125,-0.0009797306265681982,0.0011803910601884127,0.00009102688636630774
1772733375175482000,6.866482177734375,-0.001440905500203371,-0.0006441271398216486,0.0005596044939011335
1772733375185497000,6.8764970703125,0.0007711162324994802,-0.0005402639508247375,0.0008008868899196386
1772733375195513000,6.88651318359375,-0.0005016161594539881,0.00009608175605535507,0.00017291831318289042
1772733375205529000,6.896529052734375,-0.0004723214078694582,0.0009520216844975948,0.0005241892067715526
1772733375215544000,6.9065439453125,-0.0008517680689692497,0.0008059581741690636,-0.0004462806391529739
1772733375225560000,6.91656005859375,0.00022228481248021126,0.0007494990713894367,0.0008701200131326914
1772733375235575800,6.926575927734375,-0.0002623267937451601,0.00009936071000993252,0.00016936019528657198
1772733375245591000,6.936591064453125,0.0016836447175592184,0.0004429086111485958,-0.00014702335465699434
1772733375255606800,6.946606689453125,0.0011243107728660107,-0.000018337741494178772,0.00023363670334219933
1772733375265622000,6.9566220703125,0.0020002243109047413,-0.0004281983710825443,0.0006725256098434329
1772733375275637800,6.9666376953125,0.0009783757850527763,0.000046943314373493195,-0.0003689968725666404
1772733375285653800,6.97665380859375,-0.0012717291247099638,-0.000049463240429759026,-0.000665406696498394
1772733375295668700,6.986668701171875,0.0003327159211039543,-0.0007053492590785027,0.00018154503777623177
1772733375305684700,6.996684814453125,-0.00020471028983592987,-0.0007029525004327297,-0.0004456293536350131
1772733375315701000,7.006700927734375,-0.00004982389509677887,0.0011229219380766153,-0.0005908581661060452
1772733375325716000,7.016716064453125,-0.0007267992477864027,0.00033329473808407784,-0.0004377263830974698
1772733375335732000,7.02673193359375,-0.0006590485572814941,0.001212321687489748,-0.00021852005738765
1772733375345747000,7.036746826171875,-0.0000848711933940649,0.0012408175971359015,-0.0012941708555445075
1772733375355763000,7.046762939453125,0.0008966438472270966,-0.0005131575744599104,0.00014263414777815342
1772733375365779000,7.056779052734375,0.0009325966238975525,0.0001252021174877882,0.000995911075733602
1772733375375794000,7.0667939453125,0.00023365579545497894,0.0001827511005103588,-0.0002626647474244237
1772733375385810000,7.076809814453125,0.0012797457166016102,0.0014256483409553766,0.0008763691876083612
1772733375395826000,7.086825927734375,-0.0007989355362951756,-0.0012860961724072695,-0.0004883828805759549
1772733375405841000,7.0968408203125,0.00019788555800914764,0.00044096377678215504,0.001885292469523847
1772733375415857000,7.10685693359375,-0.0014625911135226488,0.000528411939740181,-0.0004502937663346529
1772733375425872000,7.116871826171875,0.001070074737071991,0.0006490531377494335,0.0002533134538680315
1772733375435887900,7.126887939453125,-0.001400503795593977,-0.0003596118185669184,-0.0009888703934848309
1772733375445904100,7.136904052734375,-0.0004897026810795069,0.0005850114393979311,-0.00015769782476127148
1772733375455918800,7.1469189453125,0.002664007246494293,0.0018367813900113106,-0.0000976525479927659
1772733375465935000,7.15693505859375,0.0013020667247474194,-0.0010181274265050888,-0.0005155025282874703
1772733375475950800,7.166950927734375,0.001547384075820446,-0.00011849915608763695,0.001006103353574872
1772733375485966000,7.176966064453125,0.002356186043471098,0.0004804458003491163,0.0001853171270340681
1772733375495981800,7.18698193359375,-0.0001846302766352892,-0.0015610577538609505,0.0011850210139527917
1772733375505997000,7.1969970703125,0.00041724415495991707,-0.000020685140043497086,-0.001498380210250616
1772733375516012800,7.2070126953125,0.0001256654504686594,0.0013955225003883243,0.0010724456515163183
1772733375526028800,7.21702880859375,-0.0011015189811587334,-0.00014058873057365417,-0.0018157525919377804
1772733375536043800,7.227043701171875,-0.0011864351108670235,-0.00004576425999403,0.0006929748924449086
1772733375546059800,7.237059814453125,-0.00047164270654320717,-0.0003498971927911043,-0.00036190322134643793
1772733375556075800,7.24707568359375,0.0014204455073922873,0.0009382779244333506,-0.00020923465490341187
1772733375566090800,7.2570908203125,-0.001561495941132307,-0.0005765282548964024,0.0011396565241739154
1772733375576106800,7.267106689453125,0.00029814685694873333,0.00022943993099033833,0.00030485447496175766
1772733375586121700,7.277121826171875,0.000033694785088300705,0.0005191918462514877,-0.00020647235214710236
1772733375596138000,7.287137939453125,0.001312050735577941,-0.00012364285066723824,0.00039348809514194727
1772733375606154000,7.297154052734375,0.0001463852822780609,-0.001003817655146122,0.00021052896045148373
1772733375616169000,7.3071689453125,-0.0001596403308212757,-0.00025108526460826397,-0.00047006469685584307
1772733375626185000,7.31718505859375,-0.00002062343992292881,3.1711533665657043e-7,-0.0008724683430045843
1772733375636201000,7.327200927734375,-0.0018825309816747904,0.00016686110757291317,0.0007631189655512571
1772733375646216000,7.3372158203125,-0.0009490931406617165,0.0004984245169907808,-0.0004326404305174947
1772733375656232000,7.34723193359375,-0.000738808186724782,0.00019975006580352783,0.0005644364282488823
1772733375666247000,7.357246826171875,0.0015720168594270945,-0.0003286211285740137,-0.00048005528515204787
1772733375676263000,7.367262939453125,0.00005087908357381821,0.0010673650540411472,-0.0005403379327617586
1772733375686279000,7.37727880859375,0.0019491803832352161,-0.001237600576132536,0.0000034795375540852547
1772733375696294000,7.3872939453125,-0.0003941066097468138,0.00029689492657780647,-0.000006946618668735027
1772733375706310000,7.397309814453125,0.0016072588041424751,0.0006108817178755999,0.00034325907472521067
1772733375716326000,7.407325927734375,-0.0020918152295053005,-0.00017530936747789383,0.00017539761029183865
1772733375726341000,7.417341064453125,0.0007465819362550974,-0.00036226329393684864,-0.0005130295176059008
1772733375736356900,7.42735693359375,0.0006953210104256868,-0.00013385037891566753,-0.0014925739960744977
1772733375746372000,7.4373720703125,0.0005088995676487684,-0.0003780622500926256,0.0004635177319869399
1772733375756387800,7.447387939453125,0.0002628799993544817,0.0007337124552577734,0.0004956637276336551
1772733375766403800,7.45740380859375,-0.0011856132186949253,-0.0004074519965797663,-0.0014071648474782705
1772733375776418800,7.467418701171875,0.0004974789917469025,0.0012444325257092714,-0.00010389392264187336
1772733375786434800,7.477434814453125,-0.00012703239917755127,0.0002207134384661913,-0.0005459786625579
1772733375796450800,7.487450927734375,-0.0002976444084197283,0.0003126875963062048,-0.00002196186687797308
1772733375806465800,7.4974658203125,0.0013133015017956495,-0.0015315513592213392,-0.0004051907453685999
1772733375816481800,7.507481689453125,-0.00002970779314637184,-0.0010527537669986486,0.0005093759391456842
1772733375826496800,7.517496826171875,0.00036044511944055557,-0.0002807031851261854,-0.00039796304190531373
1772733375836512800,7.5275126953125,-0.00043444428592920303,-0.0007197114173322916,-0.0001289991196244955
1772733375846529000,7.537529052734375,0.0013900871854275465,-0.00015565380454063416,0.00034664152190089226
1772733375856544000,7.5475439453125,0.0011355828028172255,-0.00040788669139146805,0.00012149440590292215
1772733375866560000,7.55756005859375,-0.0005142455920577049,-0.000167137011885643,-0.00018716597696766257
1772733375876576000,7.567575927734375,0.0007099765352904797,-0.0008220416493713856,-0.00003140745684504509
1772733375886591000,7.577591064453125,0.0005376697517931461,0.0025857393629848957,0.00020268431399017572
1772733375896607000,7.58760693359375,-0.0012114671990275383,0.0016757837729528546,0.00028518354520201683
1772733375906622000,7.5976220703125,-0.0004868211690336466,-0.0010986973065882921,-0.00013053580187261105
1772733375916638000,7.607637939453125,0.0010279484558850527,-0.00001469743438065052,-0.00017544825095683336
1772733375926654000,7.617654052734375,-0.0008378620259463787,-0.000019224826246500015,0.0002674354473128915
1772733375936669000,7.6276689453125,0.00093889981508255,-0.000973566435277462,-0.0003232875606045127
1772733375946685000,7.637684814453125,-0.0011333059519529343,-0.001266780775040388,-0.0004250202910043299
1772733375956701000,7.647700927734375,0.0010735164396464825,0.0013204519636929035,0.00034353521186858416
1772733375966716000,7.6577158203125,0.00000479002483189106,-0.0012697386555373669,-0.00003383471630513668
1772733375976732000,7.66773193359375,-0.00006671110168099403,0.0008965830784291029,0.0002947218017652631
1772733375986747000,7.677746826171875,0.00019001774489879608,-0.0015537913423031569,0.0008180330041795969
1772733375996763000,7.687762939453125,0.000052294693887233734,-0.002402567071840167,0.002207188867032528
1772733376006779000,7.69777880859375,-0.00042893853969872,0.0017671441892161965,-0.0014448037836700678
1772733376016793900,7.7077939453125,0.0013930692803114653,-0.0021854534279555082,0.0009058082941919565
1772733376026809900,7.717809814453125,0.0009113035630434752,-0.0003854227252304554,0.0021303296089172363
1772733376036824800,7.727824951171875,-0.000022174092009663582,-0.00029001967050135136,-0.0009263695683330297
1772733376046840800,7.7378408203125,-0.0011510879267007113,-0.001865812111645937,-0.0006371502531692386
1772733376056856800,7.74785693359375,0.0011307422537356615,0.0004952084273099899,0.0005449338350445032
1772733376066871800,7.757871826171875,0.001362970331683755,-0.0013181380927562714,0.001778243575245142
1772733376076887800,7.7678876953125,0.0010589449666440487,-0.00008648564107716084,-0.0003405764582566917
1772733376086903800,7.77790380859375,-0.0007911529392004013,-0.0014862429816275835,0.0006511847022920847
1772733376096918800,7.787918701171875,-0.0007025732193142176,0.0016892726998776197,0.0009172841673716903
1772733376106934800,7.797934814453125,0.00011821300722658634,0.00019284244626760483,0.001361765549518168
1772733376116949800,7.80794970703125,0.0003310318570584059,0.00035828351974487305,-0.00025716557865962386
1772733376126966000,7.817966064453125,-0.00004367483779788017,0.0013407237129285932,0.0011367329861968756
1772733376136982000,7.82798193359375,-0.00003336253575980663,-0.00028631859458982944,0.0008011003956198692
1772733376146997000,7.8379970703125,0.0004646484740078449,0.0009182291105389595,-0.0001805407810024917
1772733376157013000,7.848012939453125,0.0007072382140904665,0.0001738604623824358,0.0004822094924747944
1772733376167029000,7.858029052734375,-0.0008443193510174751,-0.00013080518692731857,-0.0003239293582737446
1772733376177044000,7.8680439453125,0.00027482560835778713,-0.002827584510669112,-0.0007229768671095371
1772733376187060000,7.87806005859375,-0.000998964300379157,-0.0008168977219611406,0.0019953115843236446
1772733376197075000,7.888074951171875,0.0003690782468765974,-0.00079968455247581,0.0010863975621759892
1772733376207091000,7.898091064453125,0.00023805093951523304,-0.0007927604019641876,-0.0005602349410764873
1772733376217107000,7.90810693359375,0.0005930331535637379,0.0008274042047560215,0.001275218091905117
1772733376227122000,7.918121826171875,0.000877192709594965,-0.00017128116451203823,0.0011021126993000507
1772733376237138000,7.928137939453125,0.0007107495330274105,0.0002232703845947981,-0.00035169441252946854
1772733376247154000,7.93815380859375,0.0009269979782402515,-0.0003272050525993109,0.0006946615176275373
1772733376257169000,7.9481689453125,0.0005535236559808254,-0.0013914762530475855,0.00012994161807000637
1772733376267185000,7.958184814453125,-0.00017058965750038624,-0.0001672208309173584,0.0008503266144543886
1772733376277200000,7.968199951171875,0.00022617611102759838,0.0007992552127689123,-0.0004509451682679355
1772733376287215900,7.9782158203125,0.0009026189800351858,-0.0017541837878525257,0.0007677173707634211
1772733376297232000,7.98823193359375,-0.0007596446666866541,0.00042981188744306564,-0.0002325107343494892
1772733376307246800,7.998246826171875,0.0014968516770750284,0.0009374103974550962,-0.0003105413634330034
1772733376317262800,8.008262939453125,0.0012595388107001781,-0.0003217868506908417,0.0010670588817447424
1772733376327277800,8.01827783203125,0.001051279716193676,-0.0017843949608504772,0.00020020001102238894
1772733376337293800,8.0282939453125,0.00044775172136723995,0.0006557307206094265,0.0011823581298813224
1772733376347309800,8.038309814453125,-0.0005658471491187811,-0.0004343010950833559,0.0005184321198612452
1772733376357324800,8.04832470703125,0.0007953918538987637,0.0007675890810787678,0.00002793991006910801
1772733376367340800,8.0583408203125,-0.0010906588286161423,-0.0007386950310319662,0.0032149446196854115
1772733376377357000,8.068357177734375,0.0008071851916611195,-0.0003670190926641226,-0.0013139140792191029
1772733376387372000,8.0783720703125,0.00007881084457039833,0.000262285815551877,-0.0003850034554488957
1772733376397388000,8.088387939453124,-0.0006186962127685547,-0.000587694812566042,-0.0006925358320586383
1772733376407403000,8.098403076171875,0.0007672128267586231,-0.0003757071681320667,-0.000048050773330032825
1772733376417419000,8.1084189453125,0.00006198417395353317,-0.00021096644923090935,-0.00015226681716740131
1772733376427435000,8.11843505859375,-0.0005068669561296701,0.000367205822840333,0.0005252413684502244
1772733376437450000,8.128449951171875,-0.0007362738251686096,0.0004241548012942076,0.00006360828410834074
1772733376447466000,8.138466064453125,0.0016488535329699516,0.000853722682222724,-0.00036915543023496866
1772733376457482000,8.14848193359375,0.000005916692316532135,-0.00013960571959614754,-0.001478582969866693
1772733376467497000,8.1584970703125,0.0008093924261629581,-0.0006139148026704788,-0.00041891116416081786
1772733376477513000,8.168512939453125,0.0007997872307896614,-0.0011059087701141834,0.00019030401017516851
1772733376487528000,8.17852783203125,0.0026381677016615868,0.00047361222095787525,0.00041374319698661566
1772733376497544000,8.1885439453125,-0.000129681546241045,-0.0012280007358640432,-0.0006961952894926071
1772733376507560000,8.198559814453125,-0.00003620469942688942,0.00022954726591706276,0.0005709367105737329
1772733376517575000,8.208574951171874,0.0008756751194596291,-0.00025193882174789906,-0.0010138761717826128
1772733376527591000,8.2185908203125,0.000302828848361969,-0.0005731161218136549,-0.0011656763963401318
1772733376537606000,8.22860595703125,0.0004860004410147667,-0.00200683088041842,0.00007834949064999819
1772733376547622000,8.238621826171874,0.0010745590552687645,0.00021477811969816685,0.00008474104106426239
1772733376557638000,8.248637939453126,-0.0008207825012505054,0.0011726212687790394,-0.0014417513739317656
1772733376567652900,8.25865283203125,-0.0004902840591967106,0.0007648912724107504,-0.0005474619101732969
1772733376577668900,8.2686689453125,0.000761459581553936,0.00009753834456205368,-0.0005161206936463714
1772733376587684900,8.278684814453126,-0.002125407103449106,0.0005859620869159698,-0.0014958976535126567
1772733376597699800,8.288699951171875,-0.0017134679947048426,-0.0013786240015178919,0.002241920679807663
1772733376607715800,8.2987158203125,-0.0004697719123214483,-0.000053168972954154015,0.0003747786395251751
1772733376617730800,8.308730712890625,0.0002015535719692707,0.0017522774869576097,-0.0008423245744779706
1772733376627746800,8.318746826171875,-0.0014863579999655485,0.001795154414139688,0.00022853247355669737
1772733376637762800,8.3287626953125,0.00027566729113459587,-0.0009584152139723301,0.00026229280047118664
1772733376647777800,8.33877783203125,-0.001219963887706399,-0.0005759852938354015,0.0001451136777177453
1772733376657794000,8.3487939453125,-0.000014338642358779907,0.0010549351572990417,-0.000057039083912968636
1772733376667810000,8.35881005859375,0.00045783957466483116,-0.0005442930851131678,0.0004620110848918557
1772733376677825000,8.368824951171876,-0.0003229626454412937,-0.0013351466041058302,0.0006303205154836178
1772733376687841000,8.378841064453125,0.0020493813790380955,0.0006137548480182886,-0.0009262970415875316
1772733376697856000,8.38885595703125,-0.0005462511908262968,0.00003891880623996258,0.0003169344272464514
1772733376707872000,8.3988720703125,0.0006476440466940403,0.0004242782015353441,0.00016087316907942295
1772733376717888000,8.408887939453125,0.00037083355709910393,0.0005353570450097322,-0.00040849437937140465
1772733376727903000,8.418903076171874,-0.00025101471692323685,0.0003116514999419451,-0.0004058312042616308
1772733376737919000,8.4289189453125,0.00047057634219527245,-0.0013737133704125881,0.0017377197509631515
1772733376747934000,8.438933837890625,0.00000798562541604042,-0.0007678442634642124,0.0004069381393492222
1772733376757950000,8.448949951171874,-0.00036850571632385254,0.0016049847472459078,-0.0011231231037527323
1772733376767965700,8.458965576171876,0.0005273818969726562,0.000021469080820679665,-0.0005545382737182081
1772733376777981000,8.46898095703125,0.0009097703732550144,0.00009384914301335812,0.0005128639750182629
1772733376787997000,8.478996826171874,0.00012733368203043938,0.0001471121795475483,-0.00007516203913837671
1772733376798013000,8.489012939453126,-0.001879722811281681,-0.0009287321008741856,-0.0013075360329821706
1772733376808028000,8.49902783203125,-0.0002045945730060339,-0.0007550939917564392,-0.0007778332219459116
1772733376818044000,8.5090439453125,-0.0005335772875696421,-0.00011256150901317596,0.0011336947791278362
1772733376828059000,8.519058837890626,-0.00030374666675925255,0.001776951365172863,0.00032276217825710773
1772733376838075000,8.529074951171875,-0.0007327769417315722,0.0009647274855524302,-0.00000421691220253706
1772733376848091000,8.5390908203125,-0.0005641989409923553,0.0011937592644244432,-0.00029290362726897
1772733376858105900,8.54910595703125,-0.00035385554656386375,-0.0004481859505176544,0.0010049979900941253
1772733376868121900,8.559121826171875,-0.000292070209980011,-0.0007067790720611811,-0.0006525535718537867
1772733376878136800,8.56913671875,0.0014152978546917439,-0.0013122111558914185,-0.0005104603478685021
1772733376888152800,8.57915283203125,-0.0011434671469032764,0.00039594038389623165,-0.00004414084833115339
1772733376898168800,8.5891689453125,-0.00011180760338902473,-0.0013156554196029902,-0.0004813032574020326
1772733376908183800,8.599183837890624,-0.00021300767548382282,-0.0006317556835711002,-0.001169730443507433
1772733376918200000,8.609199951171876,-0.002125584753230214,-0.0005125147290527821,-0.0015883810119703412
1772733376928216000,8.619216064453125,0.0004923027008771896,-0.0007292961236089468,0.0014665310736745596
1772733376938231000,8.62923095703125,0.00028149131685495377,-0.0009462132584303617,0.0002782476367428899
1772733376948247000,8.6392470703125,0.0006577963940799236,0.0009193308651447296,0.000030573573894798756
1772733376958262000,8.649261962890625,0.0001547173596918583,0.0005649083759635687,-0.00006876548286527395
1772733376968278000,8.659278076171875,0.00010145409032702446,-0.000031106872484087944,-0.0001617097295820713
1772733376978294000,8.6692939453125,-0.0003919412847608328,-0.001296141417697072,-0.00007266504690051079
1772733376988309000,8.67930908203125,0.0007622726261615753,-0.00021622958593070507,0.0003342658746987581
1772733376998325000,8.689324951171875,0.00047690095379948616,0.0015383384888991714,-0.0003053362015634775
1772733377008340700,8.6993408203125,0.0001067216508090496,0.0006142216734588146,0.00024114444386214018
1772733377018356000,8.70935595703125,-0.0004709167405962944,0.0004517182242125273,0.00006619293708354235
1772733377028371700,8.719371826171875,-0.00034335115924477577,-0.00011100759729743004,0.0013226722367107868
1772733377038387000,8.729386962890626,0.0008065672591328621,0.00038309628143906593,-0.0001830121036618948
1772733377048402700,8.739402587890625,-0.0002768067643046379,0.0005261080805212259,0.0006990268593654037
1772733377058419000,8.7494189453125,-0.0006412740331143141,0.0007088070269674063,-0.0005282678175717592
1772733377068434000,8.759433837890626,-0.0004942675586789846,0.0002326339017599821,-0.0014582436997443438
1772733377078450000,8.769449951171875,-0.0004255124367773533,0.0005632350221276283,0.00009745277930051088
1772733377088465000,8.77946484375,-0.0011006237473338842,-0.0013342669699341059,-0.0003832477959804237
1772733377098481000,8.78948095703125,-0.000537531916052103,-0.0007684093434363604,-0.0008094154763966799
1772733377108497000,8.799496826171875,0.000799108762294054,-0.001102902228012681,-0.00020301365293562412
1772733377118511900,8.809511962890625,-0.0010903303045779467,0.0009567365050315857,-0.0004934455500915647
1772733377128528000,8.81952783203125,0.001789345871657133,0.000317311380058527,-0.0008359280182048678
1772733377138542800,8.82954296875,-0.0015433714725077152,-0.001556342002004385,0.0007442194037139416
1772733377148558800,8.839558837890625,-0.001349493395537138,-0.0006178440526127815,-0.0011958935065194964
1772733377158574800,8.849574951171874,-0.00045684282667934895,-0.0014138934202492237,-0.0014665746130049229
1772733377168589800,8.85958984375,0.0017597060650587082,-0.00032386137172579765,-0.0002806689590215683
1772733377178605800,8.869605712890625,0.0019219284877181053,0.0003739532548934221,0.00015446997713297606
1772733377188622000,8.8796220703125,0.00044706976041197777,-0.0011259391903877258,-0.00016351148951798677
1772733377198637000,8.889636962890625,0.001535351388156414,-0.001633237348869443,0.00002343894448131323
1772733377208653000,8.899653076171875,-0.0003461719024926424,0.0008677374571561813,0.00036325829569250345
1772733377218668000,8.90966796875,-0.0005077810492366552,-0.0009014129173010588,-0.00003679911606013775
1772733377228683800,8.919683837890625,-0.0020526808220893145,0.00021205469965934753,0.0008886493742465973
1772733377238699800,8.92969970703125,0.001703712623566389,-0.0005826277192682028,-0.0005235137650743127
1772733377248714800,8.93971484375,0.00045895110815763474,0.0006512149702757597,0.0003899504663422704
1772733377258731000,8.94973095703125,0.00018644239753484726,-0.0005808963906019926,0.00034938741009682417
1772733377268745700,8.959745849609375,-0.00031316676177084446,0.0016745346365496516,0.0013656496303156018
1772733377278762000,8.969761962890624,0.00004125339910387993,0.00033948104828596115,-0.0005751300486736
1772733377288777700,8.97977783203125,-0.00009323633275926113,-0.0005015451461076736,-0.00030854763463139534
1772733377298793000,8.98979296875,-0.0007628051098436117,0.0009074751287698746,-0.000033653806895017624
1772733377308808700,8.99980859375,-0.0013031605631113052,0.0004531398881226778,0.00016395270358771086
1772733377318824700,9.00982470703125,0.0006270101293921471,0.0004922326188534498,-0.0007507939008064568
1772733377328839700,9.019839599609375,0.00029890844598412514,0.0009955698624253273,-0.0013779683504253626
1772733377338855700,9.029855712890624,-0.00029177451506257057,-0.00035525253042578697,0.00014391355216503143
1772733377348870700,9.03987060546875,-0.00017885654233396053,0.0007907056715339422,0.00034072110429406166
1772733377358886700,9.04988671875,-0.0018656328320503235,0.0005647554062306881,-0.00014255475252866745
1772733377368902700,9.059902587890624,0.0019482802599668503,-0.003145294263958931,0.0001479961210861802
1772733377378917600,9.069917724609375,-0.000028796028345823288,0.0019537010230123997,-0.0007731657242402434
1772733377388933600,9.07993359375,0.00029744114726781845,-0.00018854555673897266,-0.0011111208004876971
1772733377398948600,9.089948486328124,0.0002545090392231941,0.0006252250168472528,0.0010614250786602497
1772733377408964900,9.09996484375,-0.0001572156324982643,0.00014718761667609215,0.00014369981363415718
1772733377418980900,9.10998095703125,-0.00014245952479541302,0.0008561874274164438,-0.0009923079051077366
1772733377428995800,9.119995849609374,0.001089785248041153,0.0015507398638874292,-0.0000676583731546998
1772733377439011800,9.13001171875,0.00008213380351662636,0.0001468861009925604,0.001187378540635109
1772733377449027800,9.14002783203125,-0.0003740659449249506,-0.0003343471325933933,0.0001436856109648943
1772733377459042800,9.150042724609374,-0.0016570892184972763,-0.0007001610938459635,0.001556676346808672
1772733377469058800,9.160058837890626,0.0010135285556316376,-0.0009278615470975637,0.000657593016512692
1772733377479073800,9.17007373046875,0.0022534793242812157,0.0009178658947348595,-0.000030635856091976166
1772733377489089800,9.18008984375,-0.0001569476444274187,0.0012100145686417818,0.0017129357438534498
1772733377499105800,9.190105712890626,0.0007515489123761654,-0.00007420661859214306,-0.00029254640685394406
1772733377509120800,9.200120849609375,0.0014908425509929657,0.0009303377009928226,-0.0013141350354999304
1772733377519136800,9.21013671875,0.0016950923018157482,0.0008830453734844923,0.0007793674012646079
1772733377529151700,9.22015185546875,-0.0001291728112846613,-0.0003534602001309395,0.0015887018525972962
1772733377539168000,9.23016796875,-0.0007504560053348541,-0.0005036063957959414,0.000765177421271801
1772733377549183700,9.240183837890624,-0.0012045248877257109,-0.0005044050049036741,0.001178233651444316
1772733377559199000,9.250198974609376,-0.000727484468370676,0.0009736493229866028,0.0010203840211033821
1772733377569214700,9.260214599609375,0.0005167443305253983,0.00014567258767783642,0.00020519038662314415
1772733377579230000,9.27022998046875,0.00018138159066438675,0.0014493230264633894,0.0017654502298682928
1772733377589245700,9.28024560546875,0.0018557109870016575,-0.0007768133655190468,0.0007859396282583475
1772733377599261700,9.29026171875,-0.0003940560854971409,-0.0008155100513249636,0.0007764151087030768
1772733377609276700,9.300276611328124,0.0005913134664297104,0.0003781188279390335,-0.0005042991251684725
1772733377619292700,9.310292724609376,-0.000861461041495204,-0.0012190020643174648,-0.00010661303531378508
1772733377629308700,9.32030859375,0.00013828976079821587,-0.0004240486305207014,-0.0015511115780100226
1772733377639323600,9.33032373046875,0.000004896894097328186,0.0005123973824083805,-0.0006462433375418186
1772733377649339600,9.340339599609376,-0.0007735451217740774,0.0004247794859111309,-0.0000017583370208740234
1772733377659354600,9.350354736328125,-0.0002681179903447628,0.0022410042583942413,0.0007178656524047256
1772733377669371000,9.360370849609374,0.0000597173348069191,0.0002723955549299717,0.0005929634207859635
1772733377679387000,9.370386962890626,-0.0006863335147500038,0.00003994116559624672,-0.00046489061787724495
1772733377689401900,9.38040185546875,0.0006910534575581551,0.00020079617388546467,-0.0006803403957746923
1772733377699417900,9.39041796875,0.00096936896443367,0.0015918903518468142,0.0011414042674005032
1772733377709432800,9.400432861328126,-0.0001502237282693386,-0.0004978920333087444,0.0006830742349848151
1772733377719448800,9.41044873046875,-0.0011274795979261398,0.00035192142240703106,0.0005301766796037555
1772733377729464800,9.42046484375,-0.001190596492961049,0.00027415715157985687,-0.0001542557729408145
1772733377739479800,9.430479736328126,0.001528710126876831,-0.00008720671758055687,-0.000547967734746635
1772733377749495800,9.440495849609375,0.0017489534802734852,0.001161283114925027,0.0005103724543005228
1772733377759510800,9.4505107421875,-0.00021066190674901009,0.0009735038038343191,0.00006499281153082848
1772733377769526800,9.46052685546875,-0.0016018971800804138,0.0009037288837134838,-0.0006873501697555184
1772733377779542800,9.470542724609375,-0.00024750945158302784,0.0007050400599837303,-0.00017221784219145775
1772733377789557800,9.480557861328125,-0.0009692262392491102,0.00013672164641320705,-0.00015757034998387098
1772733377799573800,9.49057373046875,-0.0023801191709935665,-0.0008483785204589367,0.0005192852113395929
1772733377809588700,9.500588623046875,-0.0005723654758185148,-0.00035462831147015095,0.0014844147954136133
1772733377819605000,9.51060498046875,0.0010137544013559818,0.00040055648423731327,-0.00007774017285555601
1772733377829620700,9.520620849609376,-0.00014765001833438873,0.0012485070619732141,-0.0003256804193370044
1772733377839636000,9.530635986328125,-0.0006675261538475752,0.0019230259349569678,-0.0011295692529529333
1772733377849651700,9.540651611328125,0.00021238252520561218,0.0009312648326158524,-0.0005897464579902589
1772733377859667700,9.550667724609376,0.0002544671297073364,0.0010288041085004807,0.0003592985449358821
1772733377869682700,9.5606826171875,-0.0014544832520186901,0.00045089819468557835,0.0011550511699169874
