time,seconds_elapsed,z,y,x
1772619351653299500,0.071299560546875,0.5820189669549465,-1.4590699509017169,-0.017971856150776146
1772619351663330600,0.08133056640625,0.5938304007798433,-1.407956288127601,-0.10752316693402826
1772619351673361700,0.091361572265625,0.682320000615716,-1.3236911741189659,-0.13144830546602607
1772619351683392500,0.101392578125,0.7676794857323169,-1.258927463915944,-0.08218370462469757
1772619351693423600,0.111423583984375,0.7553402286410331,-1.1729429787687957,-0.07888532066643238
1772619351703454500,0.121454345703125,0.5330266802489757,-1.0758680675476788,-0.1296832320222631
1772619351713485600,0.131485595703125,0.06734101334512234,-1.022567562253773,-0.14658037161361426
1772619351723516400,0.141516357421875,-0.36383857284486293,-0.8965699234090745,-0.1593931645007804
1772619351733547500,0.151547607421875,-0.548772530913353,-0.7807087709143757,-0.06485259406287222
1772619351743578400,0.161578369140625,-0.4516238238036632,-0.7452661400027573,0.06890102920345961
1772619351753608400,0.1716083984375,-0.2881891653597355,-0.7493124927841126,0.1227574513470754
1772619351763639600,0.1816396484375,-0.14487901105582712,-0.8428396483957767,0.22462182533442973
1772619351773670400,0.19167041015625,-0.03265256180167198,-0.9475066221810877,0.3305493205748498
1772619351783701800,0.20170166015625,-0.011665303352475166,-1.0621914243727921,0.22474906844329087
1772619351793732600,0.211732666015625,-0.1311339788198471,-1.2133584296569226,-0.01862239248137921
1772619351803763700,0.221763671875,-0.4303068950086832,-1.2955899920113383,-0.28338344557844103
1772619351813794600,0.231794677734375,-0.9920113882094621,-1.170198940757662,-0.4811028336031362
1772619351823825700,0.24182568359375,-1.7101251712620258,-0.7743501956678926,-0.5287937188543379
1772619351833856500,0.2518564453125,-2.432859599852562,-0.24696517456769942,-0.4179296439945698
1772619351843887600,0.2618876953125,-3.0659190182149407,0.33417072594240305,-0.22247604547739028
1772619351853917700,0.271917724609375,-3.528863277456164,0.8598476279504597,-0.025782566434331237
1772619351863948500,0.281948486328125,-3.7471751889914273,1.2960330596037208,0.2515478261828422
1772619351873979600,0.291979736328125,-3.675276073950529,1.6081632186517119,0.4952155666403472
1772619351884010500,0.302010498046875,-3.2863317014217377,1.762483135008812,0.6334926952131092
1772619351894041600,0.31204150390625,-2.5704285801559683,1.7008197289086877,0.6002042466606945
1772619351904072400,0.322072509765625,-1.7206746223270892,1.4306464049719274,0.4417755067452788
1772619351914103600,0.332103515625,-0.8272574638605117,1.0847140756957232,0.0824445475179702
1772619351924134400,0.342134521484375,0.020443068569898606,0.7070635428585111,-0.3328585473652929
1772619351934165500,0.35216552734375,0.7298930681735277,0.31609058711156246,-0.6537979627475142
1772619351944196400,0.3621962890625,1.2309306189656257,-0.0050476387783885,-0.8048664760932326
1772619351954227500,0.3722275390625,1.487215410542488,-0.24028350484669206,-0.7983058754686265
1772619351964257500,0.382257568359375,1.48993460637331,-0.39080052178949115,-0.7856359981834888
1772619351974288400,0.392288330078125,1.3016460771799088,-0.37747079235613346,-0.774197854650393
1772619351984319500,0.402319580078125,0.9519330603212117,-0.2971054622650146,-0.7004809495978057
1772619351994350300,0.412350341796875,0.6094897422045469,-0.09744359840303658,-0.48756022958159445
1772619352004381700,0.422381591796875,0.37816286627352236,0.143926240375638,-0.21509769872911272
1772619352014412500,0.43241259765625,0.24223639248013495,0.34893063430935145,0.10883527244590223
1772619352024443600,0.442443603515625,0.197757783806324,0.5151318348571657,0.354039647886157
1772619352034474500,0.452474609375,0.20590368086099622,0.5832838723242283,0.5322156561270356
1772619352044505600,0.462505615234375,0.2179226199567318,0.5651262843430042,0.6079049572311341
1772619352054536700,0.47253662109375,0.3341553822427988,0.5270221791371703,0.6350627210088073
1772619352064566500,0.48256640625,0.5057482127010822,0.46921734816133975,0.5879783137507736
1772619352074597600,0.49259765625,0.6485194378226995,0.39285277814418074,0.5294523288935422
1772619352084628500,0.50262841796875,0.7490835063338279,0.29633856954574583,0.46472807391807436
1772619352094659600,0.51265966796875,0.8047142081409693,0.23242197769135237,0.3412565925501287
1772619352104690400,0.5226904296875,0.8546236096918582,0.13982786514610052,0.2144292248830199
1772619352114721500,0.532721435546875,0.8937637799471616,0.03801905727088451,0.04956628720164299
1772619352124752600,0.542752685546875,0.9578197802722453,-0.07315817519128322,-0.15506883502826094
1772619352134783500,0.552783447265625,1.0374012665092944,-0.17736732220649717,-0.2922169595710933
1772619352144814600,0.562814697265625,1.1766577615082263,-0.22012919009029863,-0.33148119459748265
1772619352154845400,0.572845458984375,1.3280138596236706,-0.2524362994551658,-0.3414730117797851
1772619352164875500,0.58287548828125,1.4581588274061679,-0.2328659220665693,-0.3235641378626227
1772619352174906400,0.59290625,1.5104893186241388,-0.19624387211203573,-0.25801804511025545
1772619352184937500,0.6029375,1.5578659868270157,-0.18330752591043709,-0.20043986249715087
1772619352194968600,0.612968505859375,1.5769886204481125,-0.2155976841405034,-0.251458686594665
1772619352204999400,0.62299951171875,1.5424743564277887,-0.29218904865086076,-0.30005700554698705
1772619352215030500,0.633030517578125,1.499313844615221,-0.40694121699035163,-0.3864696529783308
1772619352225061600,0.6430615234375,1.4496686469584703,-0.5016431154698133,-0.49404929933995007
1772619352235092700,0.6530927734375,1.3678227229207753,-0.5961135432809591,-0.5536015585049987
1772619352245123600,0.66312353515625,1.2112924370378255,-0.7209101357728243,-0.61463601905182
1772619352255154700,0.67315478515625,0.9893056363821029,-0.8564102008476853,-0.6952155764155089
1772619352265185500,0.683185546875,0.7076426579207181,-0.9509224219739436,-0.7658427718244493
1772619352275215600,0.693215576171875,0.38236265605092046,-1.0322592274457216,-0.7291513098955154
1772619352285246700,0.703246826171875,0.019848609808087347,-0.9903393633440136,-0.6189730253428221
1772619352295277600,0.713277587890625,-0.351915495339036,-0.9305813524737954,-0.5037526549696922
1772619352305308700,0.72330859375,-0.7158855856090783,-0.8781053153052926,-0.31872020496279
1772619352315339500,0.733339599609375,-0.9521639464676379,-0.759074154472351,-0.08331015137135982
1772619352325370600,0.74337060546875,-1.0345838710010051,-0.652617813052237,0.16445815627276897
1772619352335401500,0.7534013671875,-1.022801078748703,-0.6018769291132688,0.34587460773959755
1772619352345432600,0.7634326171875,-0.9131979637354611,-0.6238657658204436,0.3815447637967765
1772619352355463400,0.77346337890625,-0.7733306433618068,-0.7393830733135343,0.35182474831566213
1772619352365494500,0.78349462890625,-0.6966828724890947,-0.8428150984764099,0.3250087837129831
1772619352375524600,0.793524658203125,-0.6652467007398605,-0.944314109750092,0.3157316906712949
1772619352385555500,0.803555419921875,-0.6125806939572096,-1.0878238782793284,0.3909532281331718
1772619352395586600,0.813586669921875,-0.5482675040006637,-1.2083236503601074,0.48706908506378527
1772619352405617400,0.823617431640625,-0.5906535243093967,-1.2831871681645513,0.47921910221576686
1772619352415648500,0.8336484375,-0.7923422178238629,-1.357090024243295,0.5840544183053076
1772619352425679400,0.843679443359375,-0.9901724823445082,-1.314252753035724,0.7587342549934983
1772619352435710500,0.85371044921875,-1.0702473050564527,-1.1198305433928966,0.8761443904958665
1772619352445741600,0.863741455078125,-1.0585966147512196,-0.8827873356416821,0.9256026872783899
1772619352455774000,0.87377392578125,-1.0530044938325882,-0.6048597443163395,0.8536782186005264
1772619352465804800,0.8838046875,-1.1207523344129324,-0.26937048312127587,0.6539710542920977
1772619352475836000,0.8938359375,-1.3175292904883622,0.10940846922397612,0.48396337413340806
1772619352485865700,0.90386572265625,-1.5838345408201218,0.4864095982417464,0.4760152646731585
1772619352495896800,0.913896728515625,-1.8977251336693763,0.8261053712159395,0.6352458224907517
1772619352505927700,0.923927734375,-2.1070067665308714,1.1481561819061636,0.870774095634371
1772619352515958800,0.933958740234375,-2.082420606806874,1.3581041697219014,1.1085603037726133
1772619352525990000,0.943989990234375,-1.8021879534095524,1.3789125644728542,1.3353212600275874
1772619352536020700,0.954020751953125,-1.1719032604575157,1.375156426809728,1.4921134117171166
1772619352546051800,0.9640517578125,-0.31706045505702496,1.2554685556337237,1.5840683495759964
1772619352556082700,0.974082763671875,0.4291057025253773,0.9865493234112859,1.614098307789117
1772619352566113800,0.98411376953125,1.021007181069255,0.6954661901757121,1.409724466843903
1772619352576144600,0.99414453125,1.4705062678039074,0.45894116107970473,1.0982981452163307
1772619352586174700,1.0041748046875,1.7442630031853914,0.2809656438469887,0.7975581989064812
1772619352596205800,1.014205810546875,1.7987720074862241,0.12097469611614942,0.3677566961366683
1772619352606236700,1.024236572265625,1.6513596785604954,0.0065837623044848435,-0.07809417028874159
1772619352616267800,1.034267822265625,1.2829933991581202,-0.013447802855074405,-0.3829075765825808
1772619352626299000,1.044298828125,0.7371803025722503,0.08745674965679645,-0.5170147259943187
1772619352636330000,1.054330078125,0.13078501925170422,0.33862492887228723,-0.3857140123054385
1772619352646360800,1.06436083984375,-0.4469061476320028,0.7495768428087234,-0.07617489266395569
1772619352656392000,1.074391845703125,-0.896532660138607,1.1379925152882933,0.2678185044389218
1772619352666422800,1.0844228515625,-1.1233049415051937,1.4476090840801596,0.6454002098236232
1772619352676454000,1.094453857421875,-1.1780296343833208,1.6790142859444022,0.8620478414084762
1772619352686484700,1.104484619140625,-1.1133446885049343,1.7669509280726312,1.0061617133107035
1772619352696514800,1.114514892578125,-0.9310855026036501,1.7932877308562396,0.9853918970044702
1772619352706546000,1.1245458984375,-0.6409452031761408,1.7554101278826593,0.8225175758570432
1772619352716576800,1.13457666015625,-0.20465280401706695,1.5744205235257744,0.5499652478292584
1772619352726608000,1.14460791015625,0.32800913457274433,1.2978954924747348,0.23429953506626186
1772619352736638700,1.154638671875,0.8785515977680682,0.9843927298992872,-0.09706687404513359
1772619352746669800,1.164669921875,1.3821546151340007,0.6863312820836901,-0.32973924630098045
1772619352756700700,1.17470068359375,1.76433314678967,0.4313756932839751,-0.48296362250633534
1772619352766731800,1.184731689453125,1.9706378096669912,0.2519827104687691,-0.5573479784917086
1772619352776762600,1.1947626953125,2.0154326446831226,0.1102899282336235,-0.5279796990577131
1772619352786793700,1.204793701171875,1.950854081788659,0.01818885990232229,-0.4876503190178424
1772619352796823800,1.21482373046875,1.86370069899261,-0.02851473134458065,-0.40036439588330686
1772619352806854700,1.224854736328125,1.8147189336806535,-0.10681816046983003,-0.3643501756288111
1772619352816885800,1.2348857421875,1.8227566941857336,-0.24479484479129313,-0.349593482132256
1772619352826916600,1.24491650390625,1.796959405106306,-0.33377573527544735,-0.29108123353943227
1772619352836947700,1.25494775390625,1.7799053944528103,-0.34829029057919975,-0.2720646175760776
1772619352846978800,1.264978759765625,1.7427976068079472,-0.40426469125747677,-0.2776800463050604
1772619352857010000,1.275010009765625,1.6940303610295055,-0.4975608145922422,-0.2954734040837735
1772619352867040800,1.285040771484375,1.5894845294058322,-0.6037587973371148,-0.2750308469705284
1772619352877072000,1.29507177734375,1.3382903389662504,-0.685141487777233,-0.220065550269559
1772619352887102700,1.305102783203125,1.0125596707195044,-0.767199885521829,-0.13796959699355066
1772619352897133800,1.3151337890625,0.6894879925489426,-0.8166027988553046,0.000745338474586606
1772619352907164000,1.325163818359375,0.45503509355187416,-0.8890282758578658,0.12386106520742177
1772619352917194800,1.33519482421875,0.4282879564017057,-0.959377823369205,0.15442271914444863
1772619352927225900,1.345225830078125,0.4461965380579233,-1.039672134050727,0.12491525043547153
1772619352937256700,1.355256591796875,0.43280046539008615,-1.0736462998449803,0.010560556980967521
1772619352947287800,1.365287841796875,0.30866847428679467,-1.0183908610910177,-0.15415040500909089
1772619352957318700,1.375318603515625,0.004678513205051422,-0.905370923371613,-0.250298702904582
1772619352967349800,1.385349853515625,-0.40583004087805746,-0.6564107755944132,-0.22189948769845066
1772619352977380900,1.395380859375,-0.8831056078106164,-0.3331114261478185,-0.08501684569139033
1772619352987411700,1.40541162109375,-1.2842758401840924,-0.12291326296329498,0.26999394878186284
1772619352997442800,1.41544287109375,-1.41483055781126,-0.04820493572056293,0.758324505148828
1772619353007472600,1.42547265625,-1.1927362051278352,-0.08107990810126066,1.1857445196095853
1772619353017503700,1.435503662109375,-0.7379273215472698,-0.3886754924595356,1.5272605668134986
1772619353027534800,1.445534912109375,-0.23814181664288042,-0.8856862719535827,1.557432563845813
1772619353037565700,1.455565673828125,0.17930501227080822,-1.2677335784450172,1.1569468066051602
1772619353047596800,1.4655966796875,0.3528209197461605,-1.5586989305198191,0.4905091425150633
1772619353057627600,1.475627685546875,0.030934651967883108,-1.6876073422446847,-0.19888916245643048
1772619353067659000,1.485658935546875,-0.8342927693247795,-1.4765239206582308,-0.7076374702889472
1772619353077689900,1.49568994140625,-2.0277602113366124,-0.899294526067376,-0.7974908327586948
1772619353087721000,1.505720947265625,-3.069161945658922,-0.011316928306221961,-0.7488675254955888
1772619353097751800,1.515751708984375,-3.6827111923873423,0.7143585221722721,-0.6455553273200988
1772619353107782000,1.525781982421875,-3.901146438041329,1.151558976086974,-0.31609387504719194
1772619353117813000,1.53581298828125,-3.6963726379930972,1.4647230082273481,-0.051361810582596805
1772619353127843800,1.54584375,-3.0652614310890436,1.6254484077125786,0.10277706838548183
1772619353137875000,1.555875,-2.0877315726965664,1.6115417551741003,0.28069756749533115
1772619353147905800,1.56590576171875,-1.0933984635412692,1.5117816965222357,0.39893450921066104
1772619353157937000,1.57593701171875,-0.20607553029656409,1.3422048820614814,0.35237500260956583
1772619353167967700,1.5859677734375,0.5330588289529085,1.1146966876357793,0.22927308520637452
1772619353177998800,1.595998779296875,1.1963929740697146,0.861696032296121,0.06940214712601155
1772619353188029700,1.60602978515625,1.762522297975421,0.5951473285973071,-0.09284450710974633
1772619353198060800,1.616060791015625,2.1483622747480866,0.299727042940259,-0.26817856992296873
1772619353208091000,1.6260908203125,2.3390017509818075,0.05130290173590183,-0.443498713808693
1772619353218121700,1.636121826171875,2.2009704138636588,-0.0803983555778861,-0.6278869841605424
1772619353228152800,1.64615283203125,1.8487708408862351,-0.05430442163944244,-0.7620179528392851
1772619353238183700,1.65618359375,1.3420803788989781,0.09262859933674335,-0.7867688016057014
1772619353248214800,1.66621484375,0.8937368919402361,0.3491685347184539,-0.7572920933611691
1772619353258245600,1.67624560546875,0.5997627134382725,0.6140475516393781,-0.6775548320405185
1772619353268276700,1.68627685546875,0.520405683606863,0.9178688781559466,-0.4861836074661463
1772619353278307600,1.6963076171875,0.6369383056223392,1.2046195351451634,-0.3065870649028569
1772619353288339000,1.7063388671875,0.8881757506817579,1.4130641326606272,-0.18355949137751013
1772619353298369800,1.716369873046875,1.1792238126039505,1.4899313915029166,-0.06598813743144273
1772619353308401000,1.72640087890625,1.4705261415481568,1.5025129329174756,0.06231229846291244
1772619353318431000,1.736430908203125,1.6575304761499166,1.4161071536183356,0.1776117984868586
1772619353328461800,1.7464619140625,1.7508406280100344,1.2215011118412018,0.22906017310805618
1772619353338493000,1.756492919921875,1.6521382617175577,0.9685767366081476,0.21772271347045896
1772619353348523800,1.766523681640625,1.3714029194951056,0.6690016693592071,0.17747925814837218
1772619353358555000,1.776554931640625,1.004689667996764,0.4529553646683693,0.07735460396781563
1772619353368585700,1.786585693359375,0.6621271074146032,0.3034188831955194,-0.05048800515644252
1772619353378616800,1.796616943359375,0.4154565318793058,0.1374623050585389,-0.08357523204833268
1772619353388647700,1.806647705078125,0.20675591377615926,-0.02100187149643898,-0.11155929058231413
1772619353398678800,1.8166787109375,0.0006155015498399734,-0.14177052364647388,-0.1750586068727076
1772619353408710000,1.8267099609375,-0.2046586492359638,-0.2597600664719939,-0.21699644502252338
1772619353418739700,1.83673974609375,-0.45285482690334317,-0.3467553360968828,-0.18243030468448995
1772619353428770800,1.846770751953125,-0.7410574362665414,-0.36751959944516416,-0.1021828288193792
1772619353438801700,1.8568017578125,-0.9562620294362306,-0.3458972579628229,0.056334758423268794
1772619353448832800,1.866832763671875,-1.048502506238222,-0.34716771629005666,0.21403204225897787
1772619353458862600,1.876862548828125,-1.0328507635980844,-0.40541210772693154,0.38693179059736427
1772619353468893400,1.8868935546875,-1.0606389342337845,-0.5523812229298055,0.6339454804819077
1772619353478924500,1.896924560546875,-1.1089648659855127,-0.7113939732782543,0.7884737058274447
1772619353488955400,1.906955322265625,-1.1277812101364135,-0.8765183383747934,0.7952752025358378
1772619353498986500,1.916986572265625,-1.0771470014423132,-1.033542399124056,0.7044196772862226
1772619353509017300,1.927017333984375,-0.9347533774614334,-1.1646544583730398,0.47215603196173905
1772619353519048400,1.93704833984375,-0.7355915720760822,-1.3409944833584129,0.176581578656286
1772619353529078500,1.94707861328125,-0.5491074619561434,-1.4806127974070609,-0.029148608801327643
1772619353539109400,1.957109375,-0.4321522306144237,-1.5027885349884629,-0.15354060254767538
1772619353549140500,1.967140380859375,-0.3976531641632318,-1.3888833388671278,-0.17468838532082737
1772619353559171300,1.97717138671875,-0.3973334306895733,-1.1798409215889871,-0.06257748873773962
1772619353569202400,1.987202392578125,-0.41251171059906483,-0.9578576280646025,0.15056885672789067
1772619353579233300,1.9972333984375,-0.42640287330746646,-0.76740329913944,0.36246246218606826
1772619353589264400,2.007264404296875,-0.45088732622265815,-0.619980156558752,0.4639241371240467
1772619353599295500,2.01729541015625,-0.4830424598962068,-0.5229319872140884,0.42914691131860017
1772619353609326300,2.027326416015625,-0.5428314504265785,-0.4378229697272181,0.3509128211025148
1772619353619357400,2.037357421875,-0.6381815836817025,-0.3065618573963642,0.1751052224934101
1772619353629387300,2.04738720703125,-0.774031485107541,-0.23296587530970572,0.032747035152092575
1772619353639418400,2.05741845703125,-0.9211720113545656,-0.16093524284362792,-0.054153030470013616
1772619353649449500,2.067449462890625,-1.0256704967051744,-0.1550651817664504,-0.08220540499985217
1772619353659480600,2.07748046875,-1.0562474212765693,-0.1657119557261467,-0.12488299213368445
1772619353669511700,2.08751171875,-1.0590192240774632,-0.15437573819756506,-0.23684991366881875
1772619353679542500,2.09754248046875,-1.0045125578641891,-0.17453911304324865,-0.3308208309926092
1772619353689573600,2.10757373046875,-0.8329851938575505,-0.25708675560951233,-0.2933225096601993
1772619353699604500,2.1176044921875,-0.5540922646313905,-0.36387715128958226,-0.11130191828776151
1772619353709635600,2.127635498046875,-0.1829740561723709,-0.450736519575119,0.16856285164523868
1772619353719666400,2.13766650390625,0.2169587433606386,-0.49725277155637737,0.35930973377618936
1772619353729696500,2.147696533203125,0.45488253333866596,-0.5978209317207336,0.43731476447675377
1772619353739727600,2.1577275390625,0.2228267586112022,-0.6133996091246604,0.32386827190835027
1772619353749758500,2.167758544921875,-0.3981652053385973,-0.3740148066833615,0.11663038330152631
1772619353759789600,2.17778955078125,-1.0920593238919973,0.07714753708839416,-0.015811700708512216
1772619353769820400,2.1878203125,-1.7208716062039136,0.6523693912491202,0.1324499385229312
1772619353779851500,2.1978515625,-2.2647008354961873,1.267392509922385,0.48546219785641875
1772619353789882400,2.20788232421875,-2.4059715929269787,1.7636752674028275,0.8514528707012534
1772619353799913500,2.21791357421875,-2.066633839610219,2.028105663773417,1.2126113376166672
1772619353809944300,2.2279443359375,-1.3372124806016683,1.9793807958319782,1.3779422581359744
1772619353819975400,2.237975341796875,-0.3748679163813591,1.6419479993537067,1.2265446589663624
1772619353830005500,2.248005615234375,0.4364309308469295,1.175030160306394,0.9423804382737725
1772619353840036400,2.258036376953125,0.9537357258290052,0.7693418659865856,0.7459901434283703
1772619353850067500,2.2680673828125,1.239134383687377,0.44308132864683863,0.4399736449550837
1772619353860098300,2.278098388671875,1.3257926764428616,0.14841069231331347,0.10382199259484186
1772619353870129400,2.28812939453125,1.3222890522360802,-0.12325988444387911,-0.15106135295256973
1772619353880160500,2.298160400390625,1.2973089247584342,-0.2974783872306347,-0.3910937691150233
1772619353890191600,2.308191650390625,1.2431079634934663,-0.34649171672463414,-0.5331467264320701
1772619353900222500,2.318222412109375,1.1561539026618004,-0.29445991619229317,-0.5767295918425545
1772619353910253600,2.328253662109375,1.0236012892156838,-0.1157595918163657,-0.5370517710465937
1772619353920284400,2.338284423828125,0.8604939630299806,0.16843290512263773,-0.3443940868582576
1772619353930315500,2.3483154296875,0.6322282282352447,0.44911739394068717,-0.1581573938944377
1772619353940345600,2.358345703125,0.3572948502898216,0.6541463377937674,-0.03284402925316244
1772619353950376400,2.36837646484375,0.17568682177364825,0.818002728781104,0.06592531959461048
1772619353960407600,2.378407470703125,0.13051847727000712,0.9039780077084898,0.11937586435107514
1772619353970438400,2.3884384765625,0.1151999121069908,0.8385703005135059,0.14225648053251205
1772619353980469500,2.398469482421875,0.19327040925920008,0.7362684484243393,0.036091779002733526
1772619353990500400,2.408500244140625,0.3563450022190809,0.519025627425313,-0.1180760703315027
1772619354000531500,2.418531494140625,0.6227034440428019,0.2640542565345764,-0.23331242372505365
1772619354010562300,2.428562255859375,0.9009808717191219,0.01036152727752924,-0.3379944489490241
1772619354020593400,2.438593505859375,1.0931593940883875,-0.1999944568172097,-0.40101467648558314
1772619354030624500,2.44862451171875,1.180871579810977,-0.3060299424767494,-0.4066014271093532
1772619354040654300,2.458654296875,1.2162538588374852,-0.32674948990046976,-0.39998321454599495
1772619354050685400,2.468685546875,1.1987415830224752,-0.3042524114102125,-0.364978828921169
1772619354060716300,2.47871630859375,1.1195768608927725,-0.28279081344753504,-0.28861751030702143
1772619354070747400,2.488747314453125,0.9757885676831006,-0.1937768974766135,-0.21725352505613116
1772619354080778200,2.4987783203125,0.8073451411664485,-0.0997220647290349,-0.18782346896491944
1772619354090809300,2.508809326171875,0.5898533138424158,-0.047452656048536296,-0.13882219523489475
1772619354100840400,2.51884033203125,0.3467050672143698,-0.01030132152289152,-0.1127047342903912
1772619354110871600,2.52887158203125,0.14261632682085038,0.020608780525624752,-0.07658504436742514
1772619354120902700,2.538902587890625,0.07647182978391646,0.0010629530563950537,-0.04012384753040969
1772619354130933500,2.54893359375,0.19664719221591948,-0.057397419218719,-0.02484638156276196
1772619354140963600,2.558963623046875,0.4653969130903482,-0.155112528039515,0.014622947581671177
1772619354150994400,2.568994384765625,0.7315624626904725,-0.26533260590732094,0.14004329799506812
1772619354161025500,2.579025634765625,0.8603706289112567,-0.37625615586936473,0.24817787482570855
1772619354171056400,2.589056396484375,0.7874123602062463,-0.4935445646882057,0.3636742125960067
1772619354181087500,2.59908740234375,0.5313783285200595,-0.5929048103675246,0.35540834242347624
1772619354191118600,2.60911865234375,0.11474047790169715,-0.6289744871363043,0.25276841748636214
1772619354201149400,2.6191494140625,-0.31899463798999783,-0.6314338629871606,0.11606752525437622
1772619354211180500,2.6291806640625,-0.7518897959262132,-0.5403326193481683,-0.027639647276792672
1772619354221211400,2.63921142578125,-1.1780658747404813,-0.3822223707973957,-0.0843428554199636
1772619354231242500,2.649242431640625,-1.6468120982587338,-0.13624445370137692,-0.03726146210292354
1772619354241272600,2.6592724609375,-2.0678169119149445,0.11200111606568097,0.12607169046159833
1772619354251303400,2.669303466796875,-2.2940625390589235,0.31893793936669823,0.32564145559333263
1772619354261334500,2.67933447265625,-2.2341718417197463,0.34674715279042717,0.7093237428754567
1772619354271365400,2.689365478515625,-1.7424200056672094,0.19859949532747267,1.030066978098452
1772619354281396500,2.699396484375,-0.9400929849237203,-0.215605867446959,1.250478346130997
1772619354291427300,2.70942724609375,-0.19849545043110847,-0.6665104370653628,1.431333218192309
1772619354301458400,2.71945849609375,0.38807226586937904,-1.07308691239655,1.4677981778889893
1772619354311489300,2.7294892578125,0.8290636364996433,-1.457162509845197,1.1564325734727083
1772619354321520600,2.739520751953125,1.0760323181986808,-1.6887319623604415,0.38939160483963786
1772619354331551500,2.749551513671875,0.9061959760189056,-1.8531398497506975,-0.4295213341215625
1772619354341582600,2.75958251953125,0.07201251228749751,-1.768219925095141,-0.9201555277884006
1772619354351612700,2.76961279296875,-1.3315870419353246,-1.0632318733364343,-0.8511625094525516
1772619354361643500,2.7796435546875,-2.8056711682260036,0.07065262211114168,-0.7181224778156727
1772619354371674600,2.789674560546875,-4.094865760111809,0.9628136430367827,-0.39764249663874507
1772619354381705500,2.79970556640625,-4.759411619105935,1.7397314972355962,0.055756282681878655
1772619354391736600,2.809736572265625,-4.415522193834185,2.2859870768919586,0.26284504514159635
1772619354401767400,2.819767333984375,-3.0668168438374996,2.407206395418942,0.2795680154761299
1772619354411798500,2.829798583984375,-1.163333000510931,2.0390008595362303,0.19590521474219857
1772619354421829400,2.839829345703125,0.6052426061540842,1.5845821443170307,-0.08012403214853256
1772619354431860500,2.849860595703125,1.898068832540512,1.1359671469405292,-0.21919578169770537
1772619354441891300,2.859891357421875,2.6679607336252924,0.6504030596122146,-0.3320985227782279
1772619354451921400,2.86992138671875,3.0387481026947496,0.25320932965427634,-0.4402150890281424
1772619354461951700,2.87995166015625,3.097799426600337,-0.028885318222641943,-0.5533749101422727
1772619354471982600,2.889982666015625,2.9358599751502275,-0.24786270792931317,-0.6601437515776604
1772619354482014000,2.900013916015625,2.5145453648924825,-0.3551081539005041,-0.7474415843456983
1772619354492044800,2.910044921875,1.8005261576771736,-0.2824611431017518,-0.7401485047280788
1772619354502076000,2.920075927734375,0.9412292954772711,0.014973989509046076,-0.6235340496480465
1772619354512107000,2.93010693359375,0.20262685114741324,0.4373974377915263,-0.4728173454146832
1772619354522137900,2.940137939453125,-0.3048275809496641,0.7291089320585131,-0.259188952053152
1772619354532169000,2.9501689453125,-0.5730792891740799,1.004635599721968,-0.027998598515987395
1772619354542199800,2.96019970703125,-0.6671820527166128,1.2845759921744464,0.22250107032079247
1772619354552231000,2.97023095703125,-0.6556026740819215,1.4486875269666313,0.3912254692032933
1772619354562261000,2.980260986328125,-0.501009493741393,1.5133824097171424,0.5053123785670847
1772619354572291800,2.990291748046875,-0.20649580153524874,1.4251076216757297,0.5325230781083926
1772619354582323000,3.000322998046875,0.16068389843106268,1.1563570240184664,0.3926086306573823
1772619354592353800,3.010353759765625,0.507462615403533,0.7933867584407329,0.17719890683703124
1772619354602385000,3.020385009765625,0.7136012740641832,0.41973347854614257,-0.05261120785549283
1772619354612415700,3.030415771484375,0.8415402562350034,0.12080635381191968,-0.24324377942439168
1772619354622446800,3.04044677734375,0.934625367167592,-0.041379181353747845,-0.3672670859888196
1772619354632477700,3.050477783203125,0.9032090691626071,-0.17529051593244074,-0.45504667439181357
1772619354642508800,3.0605087890625,0.8418319326579571,-0.24100772746801374,-0.4653094174699858
1772619354652539600,3.07053955078125,0.8204933765530585,-0.21780103940367698,-0.4093200018856674
1772619354662569700,3.08056982421875,0.8577356042325496,-0.17489304104745387,-0.3103520434595644
1772619354672600800,3.090600830078125,0.9098609282672405,-0.1264239014327526,-0.20407098554112016
1772619354682631700,3.100631591796875,0.9143851276934146,-0.05933335571736097,-0.09333053706102072
1772619354692662800,3.110662841796875,0.808676097509265,0.013676058652997015,-0.013704700225591658
1772619354702694000,3.12069384765625,0.6976976024895906,0.028584289449453352,0.010509995837509632
1772619354712725000,3.13072509765625,0.564720041629672,-0.004591127182543278,-0.028375980461016297
1772619354722755800,3.140755859375,0.38750644868016243,-0.042428105884790415,-0.11176175435185431
1772619354732787000,3.150786865234375,0.206062670814991,-0.10231529609262943,-0.1983040925774723
1772619354742817800,3.16081787109375,0.06284954714477062,-0.14649199921041725,-0.27304398400224744
1772619354752849000,3.170848876953125,-0.024385668715834617,-0.19184855976253748,-0.3496397324267775
1772619354762879700,3.180879638671875,-0.03555938915908336,-0.22695377541333436,-0.41257440057173367
1772619354772909800,3.190909912109375,0.013071663019061089,-0.24184563959687946,-0.43940614726543425
1772619354782941000,3.20094091796875,0.0985959833085537,-0.26291093171834945,-0.423507444126904
1772619354792971800,3.2109716796875,0.1400222186744213,-0.2814636564970016,-0.40307833101712165
1772619354803003000,3.2210029296875,0.18555472031533718,-0.2876768319234252,-0.3808925834983587
1772619354813033700,3.23103369140625,0.20190438209176062,-0.354475993476808,-0.32374132106043396
1772619354823064800,3.24106494140625,0.18748714968264102,-0.4251385524600744,-0.24686653649881482
1772619354833095700,3.251095703125,0.1408463945388794,-0.5032610720604658,-0.20341873217746614
1772619354843126800,3.261126708984375,0.0659177025437355,-0.5798167807355523,-0.20651348332241176
1772619354853157600,3.27115771484375,-0.07263327453434466,-0.6207631236299872,-0.24551132249757646
1772619354863188700,3.281188720703125,-0.29690438673496244,-0.6136962539836764,-0.33441374091804027
1772619354873218800,3.29121875,-0.6084522158503533,-0.5436182168900966,-0.4466718274194747
1772619354883249700,3.301249755859375,-0.9086872083127499,-0.4839449616938829,-0.4989703160639852
1772619354893280800,3.31128076171875,-1.1089391470223664,-0.404158016012609,-0.5124537747543305
1772619354903311600,3.3213115234375,-1.096371926394105,-0.3402183355435729,-0.5203417515251785
1772619354913342700,3.3313427734375,-0.9223679431408643,-0.34420740517973897,-0.434643828234449
1772619354923373800,3.341373779296875,-0.6914426337480545,-0.38367169282287356,-0.23931100655272602
1772619354933405000,3.351405029296875,-0.37251755386292934,-0.4750713348865509,-0.05532090520560741
1772619354943436000,3.36143603515625,0.04763151974678039,-0.5896171669989824,0.13795556846819818
1772619354953467000,3.371466796875,0.40839609197378157,-0.7736787261471152,0.27132169025428593
1772619354963498000,3.381498046875,0.5843851115643978,-0.9962550171285867,0.2551511844370514
1772619354973528800,3.39152880859375,0.5981885959893465,-1.0869091015219687,0.10201434038467705
1772619354983559000,3.401558837890625,0.1617377913981676,-1.0596072530984877,-0.03980747505761683
1772619354993589800,3.41158984375,-0.9003034108489751,-0.7032447152227163,-0.1358040895227343
1772619355003620900,3.421620849609375,-2.102100289788842,-0.09884937354773282,-0.16598938442803918
1772619355013652000,3.43165185546875,-2.979151419866085,0.5834735496774316,0.04511018457561731
1772619355023682800,3.441682861328125,-3.5571196501255034,1.2167694071441888,0.41804245671927925
1772619355033714000,3.4517138671875,-3.6422681228399276,1.7258397500053047,0.7235822045262903
1772619355043744800,3.461744873046875,-3.024391076040268,2.05093796556741,0.9355202701807022
1772619355053776000,3.47177587890625,-1.7821826917350292,2.0595546950042247,1.0040028547763824
1772619355063806700,3.481806640625,-0.47325580989718435,1.794570171882212,1.0029008848838508
1772619355073837800,3.491837890625,0.6013672260254621,1.409838156351447,0.8725061070587485
1772619355083868000,3.501867919921875,1.4109399801135063,0.9365110347837209,0.7181585720423609
1772619355093898800,3.511898681640625,1.8959429264277219,0.4898126846835017,0.5962165652640163
1772619355103929900,3.521929931640625,2.0790005692303177,0.12130991941988467,0.4453548265367746
1772619355113960700,3.531960693359375,2.0781682100594043,-0.2133402606025338,0.17408077481649814
1772619355123991800,3.54199169921875,1.9338778125464915,-0.5233887910708784,-0.11631423002444206
1772619355134023000,3.55202294921875,1.635280065897107,-0.6941580301865935,-0.29570553233921526
1772619355144054000,3.562053955078125,1.1702402956813573,-0.6550789424687623,-0.3306673209313303
1772619355154084900,3.5720849609375,0.5168979677468538,-0.3872755625337362,-0.21749255797639488
1772619355164116000,3.582115966796875,-0.1677683037340641,0.10248773005008698,-0.05014244312178343
1772619355174146800,3.592146728515625,-0.7044213577866554,0.5055778245702386,0.08349778289794921
1772619355184177000,3.602177001953125,-1.1087877558529375,0.7810767274439334,0.34890122555177655
1772619355194208000,3.6122080078125,-1.5147797092944382,1.029030036266148,0.657648281500116
1772619355204238800,3.62223876953125,-1.8015169222801923,1.2533017329886555,0.8128593014780432
1772619355214270000,3.63227001953125,-1.9204197805583476,1.3206193654581904,0.884680602042377
1772619355224300800,3.64230078125,-1.8743202926844358,1.2483783051118253,0.7638629961840808
1772619355234332000,3.652331787109375,-1.6761942600876092,1.0207949996232986,0.5028893161386251
1772619355244362800,3.66236279296875,-1.3721733193457126,0.7369424021631479,0.19670845741648227
1772619355254393900,3.672393798828125,-0.9801075999259948,0.45868952440619465,-0.042222609907947475
1772619355264424700,3.6824248046875,-0.5956991172611713,0.30779929023683067,-0.15913012965042142
1772619355274455800,3.692455810546875,-0.23451310475170611,0.24565993718802928,-0.24521478723641482
1772619355284486700,3.702486572265625,0.13705226295292378,0.19296908822506664,-0.3208727798867971
1772619355294516700,3.712516845703125,0.5402870266407728,0.1463721722230315,-0.29979674717560406
1772619355304547800,3.7225478515625,0.9272153831720351,0.1331876964792609,-0.22444449600614605
1772619355314578700,3.73257861328125,1.2649778499960898,0.11788374436348675,-0.22401224206872283
1772619355324609800,3.74260986328125,1.5376573115348815,0.05217822326570749,-0.18750611011143772
1772619355334640600,3.752640625,1.7685007878631351,-0.021241525471210478,-0.15986998823229223
1772619355344671700,3.762671630859375,1.9017676870584488,-0.09268471343815327,-0.13038356231134385
1772619355354702800,3.772702880859375,1.9043880986899135,-0.16157997048795222,-0.05824672952443361
1772619355364734000,3.78273388671875,1.8297031523227691,-0.21681845810711384,-0.048461102438718075
1772619355374764800,3.792764892578125,1.7067577406555414,-0.2697273337349295,-0.0984913538902998
1772619355384796000,3.8027958984375,1.5363964978188276,-0.3295850055873394,-0.15960567474029957
1772619355394826000,3.812825927734375,1.2804974906891584,-0.3707978904634714,-0.1849480961916968
1772619355404856800,3.82285693359375,0.9990589686334133,-0.3982151819601655,-0.2438724327167496
1772619355414888000,3.832887939453125,0.789563400760293,-0.41995238199383017,-0.24459698413163422
1772619355424918800,3.842918701171875,0.6128729549020528,-0.4329939421355724,-0.18881401437222955
1772619355434950000,3.852949951171875,0.47977498253285883,-0.4152066487714648,-0.12227456320095807
1772619355444980700,3.862980712890625,0.3884574657946825,-0.4078799591451883,-0.03614500702731311
1772619355455011800,3.87301171875,0.34054596006274224,-0.4089131015852093,0.0444066759487614
1772619355465044000,3.8830439453125,0.31118133389055724,-0.46265433638393877,0.11131192822512238
1772619355475075000,3.893074951171875,0.22723171557188032,-0.5391878332272172,0.17145944986958056
1772619355485106000,3.90310595703125,0.13957915108203886,-0.5728966260835529,0.21021562577597797
1772619355495136000,3.913135986328125,0.03285305280983448,-0.5930231760501862,0.26876751225944606
1772619355505167000,3.9231669921875,-0.02454232058227062,-0.6130874744355678,0.3286789966583252
1772619355515198000,3.933197998046875,-0.10694821659028529,-0.6008122224912047,0.4065918920960277
1772619355525229000,3.94322900390625,-0.23700842869877814,-0.6013327392339706,0.5058769536472857
1772619355535260000,3.953260009765625,-0.4141676611125469,-0.5878720768973231,0.6219258837990462
1772619355545291000,3.963291015625,-0.5003928231477737,-0.6096043084949254,0.7061931166995317
1772619355555321900,3.97332177734375,-0.467592377308011,-0.7191802432402968,0.8388944179013371
1772619355565353000,3.98335302734375,-0.3369143255621195,-0.8326330194190144,0.938456031371653
1772619355575383800,3.9933837890625,-0.2134247240155935,-0.9814882406294345,0.9575131985411047
1772619355585415000,4.003414794921875,-0.08204875313341617,-1.2048483754649757,0.9363982220590114
1772619355595445800,4.01344580078125,0.11796937682032585,-1.531410526099801,0.8371996697474271
1772619355605475800,4.023475830078125,-0.0017424597531557082,-1.7098559989318252,0.6265114580236375
1772619355615507000,4.0335068359375,-0.518273932275176,-1.6190218817964195,0.32373262629732485
1772619355625537800,4.043537841796875,-1.2945873908400536,-1.3156675882697104,0.03743694653399288
1772619355635569000,4.05356884765625,-2.0727911931961773,-0.8615873112246394,-0.1664916713943705
1772619355645599700,4.063599853515625,-2.8499744203329085,-0.29986615915000436,-0.10864347620084881
1772619355655630800,4.073630859375,-3.4918197872191667,0.30978637240082024,0.06709277420509606
1772619355665661700,4.08366162109375,-3.7678929828494785,0.8482257253482938,0.2218975514696911
1772619355675693000,4.093693115234375,-3.641681847384572,1.2001584640830754,0.3932587285965681
1772619355685724000,4.103723876953125,-3.2344472004055973,1.4000497527867555,0.49509405915252863
1772619355695755000,4.113755126953125,-2.5523756215929985,1.4486837275743483,0.5477660207519307
1772619355705784800,4.123784912109375,-1.7989982174575327,1.3847083912700413,0.4980533473495394
1772619355715816000,4.13381591796875,-1.0796318039953707,1.2389441218122839,0.37764658731445666
1772619355725847000,4.143846923828125,-0.33580899466872216,1.0118222963556647,0.22150504502076654
1772619355735878000,4.1538779296875,0.3166162184208631,0.780020204128325,0.13818141311332582
1772619355745909000,4.163908935546875,0.8036047855943441,0.613846183848381,0.028596783604845404
1772619355755939800,4.17393994140625,1.155620818698406,0.4475535056248307,-0.10151468376684933
1772619355765971000,4.183970947265625,1.4668617738217113,0.32156478073894973,-0.2599856919214129
1772619355776002000,4.194001953125,1.6772896541088818,0.19172142625153063,-0.36703996270205824
1772619355786033000,4.204032958984375,1.7497200995475053,0.09423457322865723,-0.42024318163394925
1772619355796064000,4.21406396484375,1.6580273197561501,0.11158639778494835,-0.3953459831994027
1772619355806094800,4.2240947265625,1.4165736020863056,0.2560378310784697,-0.3163498956348747
1772619355816125000,4.234125,1.131105386123061,0.489552864703536,-0.14567962338160723
1772619355826155800,4.24415576171875,0.839515472409129,0.713415103842318,0.0433636331692338
1772619355836187000,4.254186767578125,0.5242530066847801,0.8720631125316023,0.19992402192950248
1772619355846218000,4.264218017578125,0.10930383980572222,0.9948992186054587,0.29438089613933116
1772619355856248800,4.274248779296875,-0.20265432367622851,1.139009291115403,0.40369529387168585
1772619355866280000,4.284280029296875,-0.36632045278847214,1.2262217106223106,0.5076228474665433
1772619355876310800,4.294310791015625,-0.38180151503682136,1.2503694789290427,0.6176192726463079
1772619355886342000,4.304341796875,-0.20314064588844774,1.1835878530323505,0.6537100652683526
1772619355896373000,4.314373046875,0.12323825713396072,1.0388161017432809,0.6102334001787006
1772619355906404000,4.324404052734375,0.5331149430543184,0.8174260979369282,0.518847494379431
1772619355916434000,4.334433837890625,0.9295610695153474,0.5566679603382945,0.4317880004119128
1772619355926465000,4.344465087890625,1.2105968559890985,0.36161183670610186,0.382486209365353
1772619355936496000,4.35449609375,1.384080614760518,0.24666239222884176,0.36262364409714937
1772619355946527000,4.36452685546875,1.505466522026062,0.1138388528868556,0.31748036096952853
1772619355956558000,4.37455810546875,1.5441484271198511,-0.026111469595134256,0.23045908012054858
1772619355966589000,4.3845888671875,1.4726993939340114,-0.16919775201529264,0.11327435087189078
1772619355976620000,4.3946201171875,1.2974573933184146,-0.242271756054461,0.08320048045180738
1772619355986651000,4.40465087890625,1.0554267525434493,-0.23600977305024862,0.06576032002493738
1772619355996682000,4.414681884765625,0.8417273032397031,-0.20347528467029333,0.08867503940537572
1772619356006712800,4.424712890625,0.6151794782787561,-0.1619073027461767,0.1586743121743202
1772619356016744000,4.434743896484375,0.45819677245318885,-0.11612754834592341,0.24260917131528256
1772619356026774000,4.44477392578125,0.3097358112573623,-0.03490355559885502,0.36973837147317823
1772619356036804900,4.454804931640625,0.16369652425050735,0.01445318050533533,0.49915151784978806
1772619356046836000,4.4648359375,0.029930443361401556,0.04122603661864996,0.5923840744290501
1772619356056866800,4.47486669921875,-0.053497196909785265,0.046482057450711725,0.6724496909212321
1772619356066898000,4.48489794921875,-0.028080431580543515,-0.008771043215692043,0.705022173224017
1772619356076928800,4.4949287109375,0.02602992879152298,-0.11054156490713357,0.7230431292135268
1772619356086959900,4.5049599609375,0.08940963729023933,-0.2342059384986758,0.6386749932218343
1772619356096990700,4.51499072265625,0.10862170276045799,-0.3479848778918385,0.516298467483744
1772619356107021800,4.525021728515625,0.04698153140544891,-0.3848471663430333,0.46148675390928984
1772619356117053000,4.535052978515625,-0.06812427267730235,-0.3805155668795109,0.4412369428891688
1772619356127082800,4.545082763671875,-0.2372667873740196,-0.33202187734544275,0.4511271993931383
1772619356137113900,4.55511376953125,-0.33786534267663954,-0.3392328316375613,0.3791854142542928
1772619356147145000,4.56514501953125,-0.3278197494804859,-0.340990196698904,0.32527715232558546
1772619356157176000,4.575176025390625,-0.2893547020077705,-0.3723898358300328,0.28496640392094846
1772619356167207000,4.58520703125,-0.2832815195739269,-0.3953662222698331,0.2706865341559052
1772619356177238000,4.595238037109375,-0.26487960144281386,-0.3764452487006783,0.22528547687493264
1772619356187268900,4.605268798828125,-0.24689795455038546,-0.3749804368451237,0.15511084753908216
1772619356197300000,4.615300048828125,-0.2818354124188423,-0.3729059686586261,0.096520126882568
1772619356207330800,4.625330810546875,-0.41186639843285083,-0.30074352650642394,0.04054674911759794
1772619356217362000,4.63536181640625,-0.5811982982218266,-0.18238924202173948,0.04816993747241795
1772619356227393000,4.64539306640625,-0.7147346620082855,-0.05676058261990547,0.11962898059561848
1772619356237422800,4.6554228515625,-0.7654489502012729,0.023881518585979936,0.26546872644238173
1772619356247454000,4.665453857421875,-0.6756605427265167,0.054234571273624896,0.4449659733496606
1772619356257484800,4.67548486328125,-0.5004875156939029,-0.011337971094250679,0.6017095366571098
1772619356267516000,4.685515869140625,-0.2536322312414646,-0.12722148155122995,0.7863161624673753
1772619356277547000,4.695547119140625,0.11305939294695853,-0.22093407673239707,0.84785499233976
1772619356287577900,4.705577880859375,0.5994570084899663,-0.2756003174215555,0.8750986077699809
1772619356297609000,4.71560888671875,1.0242682286918163,-0.3500514550328255,0.9502736026763915
1772619356307639800,4.725639892578125,1.176199496346712,-0.3327659737110138,0.8770444811407476
1772619356317671000,4.7356708984375,0.9304559725284576,-0.17683774537444114,0.760774747845158
1772619356327701800,4.74570166015625,0.0922428148895502,0.092491236692667,0.780754948143661
1772619356337731800,4.75573193359375,-1.0925123283565044,0.5959557223707437,0.8651036487825214
1772619356347763000,4.765762939453125,-2.0860732840955256,1.1689026173368096,0.960113955624029
1772619356357793800,4.775793701171875,-2.7615134620696304,1.6638775070890783,1.2740408618956804
1772619356367825200,4.7858251953125,-3.077327131935954,2.0654010829448697,1.5848619841717182
1772619356377856000,4.79585595703125,-2.839279423317313,2.337396946133673,1.7663268048249183
1772619356387887000,4.80588720703125,-2.066372558325529,2.345375085406005,1.8591867286995052
1772619356397918000,4.81591796875,-0.9059598291754722,2.070252030107379,1.811196897034347
1772619356407949000,4.825948974609375,0.24704759215414523,1.5929647727370262,1.7298478166028857
1772619356417980000,4.83597998046875,1.1177256800681352,1.167421146607399,1.7445444504752754
1772619356428011000,4.846010986328125,1.7135773575425146,0.8247679851323366,1.6010038484163582
1772619356438041900,4.856041748046875,2.067849645140767,0.4128957414805889,1.3340621998772024
1772619356448072000,4.866072021484375,2.12634918038249,0.12784253605902193,1.144975798304379
1772619356458103000,4.87610302734375,1.8606483256846664,0.0002782324194908142,1.0000563821729271
1772619356468133400,4.88613330078125,1.361611008799076,0.027863573959469794,0.8137380570739507
1772619356478164500,4.89616455078125,0.8129320013880729,0.1192936111614108,0.6607382834047079
1772619356488195300,4.9061953125,0.3454015834003687,0.2839206942602992,0.6206832633268088
1772619356498226400,4.916226318359375,-0.09491934062242507,0.5400102555260062,0.7796971096538007
1772619356508257300,4.92625732421875,-0.5867851584434509,0.8551844584450126,0.9815325912278144
1772619356518288400,4.936288330078125,-1.0184709405899046,1.1566668206200004,1.158766204052046
1772619356528319200,4.9463193359375,-1.330482295563817,1.3545403397604823,1.3041713578738272
1772619356538350300,4.956350341796875,-1.515427359548211,1.489773862853646,1.4261942478686571
1772619356548380400,4.96638037109375,-1.5768559339791535,1.4366381927326322,1.4372818974636494
1772619356558411300,4.976411376953125,-1.499207461631298,1.272635671272874,1.2866905001103877
1772619356568442400,4.9864423828125,-1.2876572993159294,1.1111924789071081,1.076766477692127
1772619356578473200,4.99647314453125,-0.9249784179002046,0.8981134995892643,0.857939163980633
1772619356588504300,5.00650439453125,-0.4593050259560346,0.7087862749978899,0.7221110359951853
1772619356598535400,5.016535400390625,-0.01799625993967056,0.5680690597966312,0.648301265027374
1772619356608566500,5.02656640625,0.3179547735482454,0.4354854666903615,0.5342896493894979
1772619356618597600,5.03659765625,0.5674637873798608,0.35862376080602404,0.4901138595871627
1772619356628628500,5.04662841796875,0.7192763970911502,0.27381986374557016,0.4881267043579369
1772619356638659600,5.05665966796875,0.8331570432931185,0.2176458488419652,0.47121323468629267
1772619356648690400,5.0666904296875,0.9592571195989846,0.10976941149085759,0.4275961747452616
1772619356658720500,5.076720458984375,1.0499813466191292,-0.036324820573627944,0.39302517556902017
1772619356668751400,5.08675146484375,1.083747422620654,-0.16570815633386374,0.32412794575784354
1772619356678782500,5.096782470703125,1.0739800618439912,-0.26125293537825345,0.27201993818413467
1772619356688813600,5.1068134765625,1.0598100821942091,-0.32671909476220606,0.2366199773704633
1772619356698844400,5.116844482421875,1.0100912347793578,-0.38300329204201694,0.2311261291945353
1772619356708875500,5.12687548828125,0.8634878841489553,-0.4131792345970869,0.18188768570777028
1772619356718906400,5.13690625,0.6339858855575323,-0.42823213456124065,0.09542429446987807
1772619356728937500,5.1469375,0.36953590770363803,-0.43549744938910007,0.01858417936284095
1772619356738968300,5.15696826171875,0.0987257471680641,-0.4521186215832829,-0.09912179728094488
1772619356748999400,5.16699951171875,-0.12474924621880054,-0.4537546983525157,-0.21714659408293663
1772619356759030300,5.1770302734375,-0.2646662509530783,-0.4364353147611022,-0.23985811904147267
1772619356769060400,5.187060302734375,-0.2972469165623188,-0.4362795396775007,-0.21350111372005193
1772619356779091500,5.197091552734375,-0.28468846376240253,-0.44321635320335623,-0.14875702153295278
1772619356789122300,5.207122314453125,-0.2118751564860344,-0.4247650429725647,-0.02976769054774195
1772619356799153400,5.2171533203125,-0.09331716612279414,-0.3942456938073039,0.11933598899841308
1772619356809184300,5.227184326171875,0.06015022505819797,-0.4270835490480065,0.2309958538783714
1772619356819215400,5.23721533203125,0.2545382401704788,-0.4279264296129346,0.36836996919680387
1772619356829246500,5.24724658203125,0.4267980101048946,-0.4246268035456538,0.5063625452071427
1772619356839277600,5.257277587890625,0.5288561165660619,-0.42468379442989823,0.6312693200752139
1772619356849308400,5.267308349609375,0.5300947184503079,-0.3726499480709433,0.736194214144349
1772619356859339500,5.277339599609375,0.3786474349200725,-0.30971126133799554,0.8334836448989809
1772619356869370400,5.287370361328125,0.12066168464422225,-0.26746991019696,0.9169649150535464
1772619356879400400,5.297400390625,-0.09409867188930511,-0.2481748426184058,0.9632401978857815
1772619356889431600,5.307431640625,-0.2046370219260454,-0.2599117499023676,1.0757124385945498
1772619356899462400,5.31746240234375,-0.1514905381500721,-0.28609686925560235,1.1471461280807853
1772619356909493500,5.327493408203125,0.017719196563959122,-0.32925884237289427,1.1269053771499544
1772619356919524400,5.3375244140625,0.16291969465911388,-0.4377700704962015,1.0780008417926727
1772619356929555500,5.347555419921875,0.1941629741847515,-0.5204363710060715,0.9167510531071573
1772619356939586300,5.35758642578125,0.08015022603571414,-0.5603866886004806,0.6795567464474588
1772619356949617400,5.367617431640625,-0.16015490612089633,-0.5304685201987623,0.510638980417326
1772619356959648300,5.377648193359375,-0.5848644195139407,-0.4116340509817004,0.5097168606037273
1772619356969679400,5.387679443359375,-1.075724275162816,-0.11310557017624377,0.5515865654207766
1772619356979710500,5.39771044921875,-1.6396218944936989,0.17884060962945222,0.6106129740808158
1772619356989741300,5.4077412109375,-2.1027613840460777,0.4840256257146597,0.699154377169162
1772619356999771400,5.417771484375,-2.2799591949045657,0.8457198800072073,0.841845084400475
1772619357009802200,5.42780224609375,-2.2286668145626782,1.0684341181546448,0.9595538375232369
1772619357019833300,5.437833251953125,-1.9706459929734468,1.2040323829069732,1.003336280626431
1772619357029864200,5.4478642578125,-1.6056500667870044,1.267073945492506,0.9842587282560765
1772619357039895600,5.4578955078125,-1.1364794803768397,1.2628490212738512,0.9064324151232838
1772619357049926400,5.467926513671875,-0.698306674298644,1.172350127442181,0.8373908084053546
1772619357059957500,5.47795751953125,-0.27266660205721854,1.0292772890254855,0.7172893879923969
1772619357069988600,5.487988525390625,0.17617606659531593,0.875198780208826,0.6527872513350099
1772619357080019500,5.49801953125,0.5803980877548456,0.7443550165072083,0.6667918843552469
1772619357090050600,5.508050537109375,0.8995482085675001,0.6124190736547113,0.666423489434272
1772619357100081400,5.518081298828125,1.125517941379547,0.4427987123131752,0.5881479712292552
1772619357110111500,5.528111572265625,1.3494488618403673,0.2167608827009797,0.4119492544107139
1772619357120142300,5.538142333984375,1.4924772765934466,-0.061786886349320405,0.3479678171591833
1772619357130173400,5.54817333984375,1.46779700884521,-0.2548310856372118,0.23579258663561195
1772619357140204500,5.55820458984375,1.3243880703419446,-0.3552735735952854,0.0945117096696049
1772619357150235400,5.5682353515625,1.0895423726350069,-0.41688861050903797,0.002753244230896234
1772619357160266500,5.5782666015625,0.8139706967860459,-0.3454153196647763,-0.04459854525905102
1772619357170297300,5.58829736328125,0.5562620098859071,-0.16401771902889012,0.03380377766340971
1772619357180328400,5.598328369140625,0.31055881807804103,0.10885755734294653,0.25841053329287095
1772619357190359300,5.608359375,0.09709551561772822,0.4279828359752893,0.6688971860714257
1772619357200390400,5.618390380859375,-0.0546025278031826,0.7411541746392846,1.0336211634486914
1772619357210420500,5.62842041015625,-0.08785773167312144,0.8902765223532915,1.2900241745777428
1772619357220451300,5.638451416015625,-0.08804127154648303,0.9104524644196033,1.4367464754126966
1772619357230482400,5.648482421875,-0.07557575772702693,0.8234992803707718,1.4463720896311103
1772619357240513300,5.65851318359375,-0.06116495505869388,0.691549893514812,1.3308518595285712
1772619357250544400,5.66854443359375,-0.016999650117754936,0.4954176650837063,1.1861993507049977
1772619357260575500,5.678575439453125,0.05882745202183723,0.32752018201202154,1.058436601883918
1772619357270606600,5.688606689453125,0.1735971560180187,0.18852847542911766,0.935368440619856
1772619357280637400,5.698637451171875,0.2649509131133556,0.024874036754667758,0.7470083805602044
1772619357290668500,5.70866845703125,0.30319267322421073,-0.10299597183316946,0.5687570785934105
1772619357300699400,5.718699462890625,0.2706733824133873,-0.2016010152310133,0.4161984362877905
1772619357310729500,5.7287294921875,0.2003624133467674,-0.2012593621864915,0.3189017355421558
1772619357320760600,5.738760498046875,0.07087211008071899,-0.08183277229517698,0.3750320574345067
1772619357330791400,5.74879150390625,-0.144640526124835,0.17277999441623687,0.5066769083859398
1772619357340822500,5.758822509765625,-0.40634091300964353,0.40055063917040823,0.5877378560584038
1772619357350853400,5.768853271484375,-0.6367237860888242,0.5434983899027109,0.5400867182957008
1772619357360884500,5.778884521484375,-0.8292214574098586,0.6070932024568318,0.4417316676035523
1772619357370915300,5.788915283203125,-0.9322072001099586,0.6376669121578336,0.40527657171376047
1772619357380946400,5.798946533203125,-0.9362164357513189,0.6481432979866862,0.3167541290542111
1772619357390977300,5.808977294921875,-0.8148392963141202,0.6070508246198296,0.21907463953606782
1772619357401008400,5.81900830078125,-0.6187310332804918,0.5571083975821733,0.19539613270889966
1772619357411039200,5.829039306640625,-0.45483401802182194,0.5105576588094234,0.2111036971895024
1772619357421069300,5.8390693359375,-0.30192309167981146,0.47167760079503057,0.11539408297222108
1772619357431100400,5.849100341796875,-0.20194822123348713,0.37872839120179413,-0.024040289344266056
1772619357441131300,5.85913134765625,-0.120302203682065,0.2231912080094218,-0.14290950108114628
1772619357451162400,5.869162353515625,-0.026933599632978436,0.12790946381539106,-0.25719978752993045
1772619357461193000,5.87919287109375,0.09884966580867767,0.025035657057166098,-0.3871587312210351
1772619357471224000,5.88922412109375,0.24704993024170396,-0.08592676361054181,-0.4684537799103185
1772619357481255200,5.899255126953125,0.33614334118962286,-0.18351093952804803,-0.517581493031606
1772619357491286300,5.909286376953125,0.46007601032853124,-0.23063421749174592,-0.4935622830079868
1772619357501317400,5.9193173828125,0.5448983198285102,-0.24515754062384365,-0.43066798340603707
1772619357511348200,5.92934814453125,0.5579962863326072,-0.24850480522513388,-0.3543414073117077
1772619357521379300,5.93937939453125,0.5368056142657995,-0.23536329184025526,-0.19433087809756397
1772619357531409200,5.9494091796875,0.44292555356323715,-0.18642565793097018,-0.012002572482824325
1772619357541440300,5.959440185546875,0.41037820570170874,-0.18622341335713863,0.06579919073060154
1772619357551471400,5.969471435546875,0.4157838641375303,-0.27918197530061006,0.06280979965627193
1772619357561502200,5.979502197265625,0.41035365578234195,-0.37306320504695173,-0.10374671713523566
1772619357571533300,5.989533203125,0.358519423648715,-0.4852104515850544,-0.24819208601415155
1772619357581564200,5.999564208984375,0.31067163080275056,-0.5852469890907407,-0.31309155142605305
1772619357591595300,6.00959521484375,0.3208072403699159,-0.6038295244857669,-0.39858226170688865
1772619357601626000,6.019626220703125,0.290913037365675,-0.6041413669139146,-0.3913629779778421
1772619357611657200,6.0296572265625,0.18793956962525843,-0.5680655526652932,-0.40426432593129574
1772619357621688000,6.03968798828125,-0.06731821699142455,-0.5084133402571082,-0.45069779499992724
1772619357631719200,6.04971923828125,-0.3984036902695894,-0.3940568932369351,-0.4394113348972052
1772619357641749200,6.059749267578125,-0.7058592816352843,-0.22739041326493023,-0.33029717244468626
1772619357651780000,6.069780029296875,-0.8542056765407323,-0.04414689250141382,-0.21478337208293377
1772619357661811200,6.079811279296875,-0.8313099541217088,0.06441635807007551,-0.04880385146178305
1772619357671842000,6.089842041015625,-0.6870189720869064,0.07560644512623547,0.0630708617452532
1772619357681873200,6.099873046875,-0.4020294795513153,-0.02864917137920856,0.054174950040876864
1772619357691904000,6.109904052734375,-0.08654898716211318,-0.19972002379000187,0.10037680231072008
1772619357701935000,6.11993505859375,0.10454349353611468,-0.35151042166948315,0.19424889890253544
1772619357711966200,6.12996630859375,0.2635392927497625,-0.49495589279085395,0.2750076122254133
1772619357721997300,6.139997314453125,0.44659985816180703,-0.6033844110667705,0.38297961890548465
1772619357732028200,6.150028076171875,0.6535889961719512,-0.7601081736952066,0.4847853580407798
1772619357742059300,6.160059326171875,0.9283090236276388,-0.8524734459206461,0.5320606847610324
1772619357752089300,6.17008935546875,1.088038982334733,-0.903188903157413,0.4177808101084083
1772619357762120200,6.1801201171875,0.9419371514856815,-0.9356178853362798,0.19537578404061495
1772619357772151300,6.1901513671875,0.5160837287545204,-0.78902797870934,0.0030212475173175333
1772619357782182100,6.20018212890625,-0.06894961758553982,-0.5747752794370055,-0.07904511433802544
1772619357792213200,6.210213134765625,-0.6205518189668655,-0.3346110170558095,-0.19779146688021718
1772619357802244000,6.220244140625,-1.0077537317425012,0.009361410324275492,-0.24130130358710883
1772619357812275200,6.230275146484375,-1.2140092947810888,0.3534095332890749,-0.17939729366414248
1772619357822306000,6.24030615234375,-1.1653782426029442,0.6383525563344359,0.014717822790890931
1772619357832337200,6.250337158203125,-0.9550146597236394,0.8051008693709969,0.224642721991986
1772619357842368000,6.260367919921875,-0.7865536975502967,0.923487594820559,0.46538215391263366
1772619357852399000,6.270399169921875,-0.7300356915146112,1.0390940419018269,0.6851338889926671
1772619357862429200,6.28042919921875,-0.6103583417326212,1.0861454236730932,0.8765497564263641
1772619357872460000,6.2904599609375,-0.3885948284387588,1.0387868756487966,1.0550615724928676
1772619357882491100,6.3004912109375,-0.04818506197631359,0.8835501367077231,1.06935707821846
1772619357892522000,6.31052197265625,0.39483576865494246,0.6382230847358703,0.9744510354690253
1772619357902553000,6.320552978515625,0.7462514977782965,0.482441571393609,0.9215919903323053
1772619357912584200,6.330584228515625,0.9937468336999415,0.35824557514339683,0.8762722546592354
1772619357922615000,6.340614990234375,1.1540683285593987,0.2716767142370343,0.7518669995725155
1772619357932646400,6.350646484375,1.2263304316937922,0.21099135938882826,0.620050153055042
1772619357942677200,6.36067724609375,1.1329583205133675,0.22686346678137778,0.4839190966002643
1772619357952708400,6.370708251953125,0.810969761404395,0.30697277628481384,0.4083025684714317
1772619357962739200,6.3807392578125,0.44394554426074023,0.39841333488076924,0.4211030133336782
1772619357972769300,6.390769287109375,0.06723112322986126,0.5366682516217232,0.37338776082620023
1772619357982800100,6.400800048828125,-0.23384324266612527,0.6602051994413137,0.45682153857722874
1772619357992831200,6.410831298828125,-0.45979251721203324,0.7276707159489393,0.5671152662031352
1772619358002862300,6.4208623046875,-0.6077782621115446,0.7647282347112894,0.622887568438053
1772619358012893200,6.43089306640625,-0.6574363192498683,0.7566071798369288,0.6591184271179139
1772619358022924300,6.44092431640625,-0.5772141970217227,0.7136392679870128,0.6414741954863071
1772619358032955100,6.450955078125,-0.3713900111377239,0.6077525431483983,0.5283452444344758
1772619358042986200,6.460986328125,-0.14222995785176754,0.4628735320925712,0.39764673442244525
1772619358053017000,6.47101708984375,0.0036368951976299283,0.37687107289731503,0.2814743240214884
1772619358063048200,6.481048095703125,0.11540332572460174,0.31340164028853174,0.1771256224051118
1772619358073079000,6.4910791015625,0.25290683957636356,0.30821897695362566,0.16673647646829484
1772619358083109000,6.501109130859375,0.37710838878452774,0.29750644428133965,0.19191256490945816
1772619358093140200,6.51114013671875,0.4471937324017286,0.31214521048665045,0.2450895899541676
1772619358103171000,6.521171142578125,0.48328386743664736,0.3441086209803819,0.3245867589086294
1772619358113202200,6.5312021484375,0.48192894569635386,0.36283816363066435,0.35757732049301266
1772619358123233000,6.54123291015625,0.47629357015788554,0.3241775935858488,0.37268297355771063
1772619358133264100,6.55126416015625,0.5247229622840881,0.2822878323614597,0.36227044674530623
1772619358143295000,6.561294921875,0.557166849771142,0.20678835474103688,0.3298464330025017
1772619358153326300,6.571326416015625,0.6298515622317791,0.1671291290476918,0.25797683631703255
1772619358163357200,6.581357177734375,0.7282511461853981,0.07628536730110645,0.17565379628688096
1772619358173388300,6.59138818359375,0.7739321163862943,-0.019838672935962677,0.10850012220740318
1772619358183419100,6.601419189453125,0.788106772211194,-0.08841536555588245,0.013977452752366662
1772619358193449200,6.61144921875,0.8091027984887361,-0.15035276629179714,-0.07287460900954902
1772619358203480300,6.621480224609375,0.8476812432080507,-0.22413667216598987,-0.12569317600540816
1772619358213511200,6.63151123046875,0.815369457668066,-0.29090748440772296,-0.16506021381914615
1772619358223542300,6.641542236328125,0.7492728914260863,-0.31267069566547867,-0.17160400943942367
1772619358233573000,6.651572998046875,0.6484972259908914,-0.35395343090742826,-0.11951529108807443
1772619358243604200,6.661604248046875,0.5836743329465389,-0.39969869851619005,-0.05665018104799092
1772619358253635000,6.671635009765625,0.4769599251121282,-0.44087183590382334,0.0066983285948634145
1772619358263666200,6.681666259765625,0.32418460784852504,-0.45618367906510826,0.10010375752300023
1772619358273697000,6.691697021484375,0.13517419412136078,-0.4637967844173312,0.14011479232870042
1772619358283728100,6.70172802734375,-0.05797697267234325,-0.4661503618061542,0.18885843803584573
1772619358293758200,6.71175830078125,-0.291765270280838,-0.4304071405127644,0.2793296401429921
1772619358303789000,6.7217890625,-0.5286223078101873,-0.3558203938230872,0.35172486813776194
1772619358313820200,6.731820068359375,-0.6929138753443956,-0.2910638440132141,0.40572146593704816
1772619358323851000,6.74185107421875,-0.7770762596309184,-0.22557576505839824,0.42127931974865496
1772619358333882000,6.751882080078125,-0.8324205457121133,-0.22784809390455482,0.3793842978272587
1772619358343913000,6.761912841796875,-0.9274497764497995,-0.1925157914996147,0.3300478007934987
1772619358353944000,6.771944091796875,-1.030827733337879,-0.19666385108977555,0.3071728289015591
1772619358363975200,6.78197509765625,-1.0723007304549217,-0.2231836092248559,0.31382556478902696
1772619358374006300,6.79200634765625,-0.9622001873135566,-0.29855770689994093,0.32200697154849767
1772619358384037400,6.802037353515625,-0.6731330700755119,-0.43033787466883655,0.332871406846866
1772619358394068200,6.812068115234375,-0.2549865684598684,-0.5835691190063953,0.46113867112398144
1772619358404099300,6.822099365234375,0.09212298790216446,-0.7848603376358747,0.5727725613124668
1772619358414129200,6.832129150390625,0.3102402536481619,-1.0007546666353941,0.6547340745538472
1772619358424160300,6.84216015625,0.4405728529572487,-1.1639289205774663,0.7158437192287296
1772619358434191000,6.852191162109375,0.4428793763339519,-1.354570734898746,0.7145469574164599
1772619358444222200,6.86222216796875,0.2939513821482658,-1.4821598807185887,0.5969061549633741
1772619358454253300,6.87225341796875,0.07269464933276176,-1.5243883723780511,0.2724843042928725
1772619358464284200,6.8822841796875,-0.22663316515684126,-1.449682090961933,-0.1044483625985682
1772619358474315300,6.892315185546875,-0.7026701302051543,-1.193460135488212,-0.2720223128043115
1772619358484346000,6.90234619140625,-1.7093571094989775,-0.6567784398630261,-0.20445245913937687
1772619358494377200,6.912377197265625,-2.6346201895594596,-0.18443506863564252,0.009588789339363574
1772619358504408000,6.922407958984375,-3.4805081196099517,0.3066469053313136,0.16485508316848427
1772619358514439200,6.932439208984375,-4.017295613697171,0.8257990817457437,0.10535470032114536
1772619358524469200,6.94246923828125,-3.9298669210910795,1.0960840493634343,0.19174590310566125
1772619358534500000,6.9525,-3.3695670339912174,1.2735016404524444,0.44876156624034047
1772619358544531200,6.96253125,-2.6554659937113523,1.412374981352687,0.6829374018616974
