time,seconds_elapsed,z,y,x
1772619351653299500,0.071299560546875,0.061376020312309265,-0.06739632040262222,0.06526675075292587
1772619351663330600,0.08133056640625,0.027651486918330193,-0.10045337677001953,0.12051316350698471
1772619351673361700,0.091361572265625,0.00904691033065319,-0.15478266775608063,0.1466800570487976
1772619351683392500,0.101392578125,-0.009142729453742504,-0.22887000441551208,0.15591229498386383
1772619351693423600,0.111423583984375,-0.033312514424324036,-0.32687005400657654,0.17541195452213287
1772619351703454500,0.121454345703125,-0.054954323917627335,-0.3560393750667572,0.2344835102558136
1772619351713485600,0.131485595703125,-0.05517296865582466,-0.2966085374355316,0.3120957314968109
1772619351723516400,0.141516357421875,-0.031415749341249466,-0.1858569085597992,0.36616888642311096
1772619351733547500,0.151547607421875,0.008087185211479664,-0.0684828832745552,0.3784652352333069
1772619351743578400,0.161578369140625,0.04671582579612732,0.03807524964213371,0.33483582735061646
1772619351753608400,0.1716083984375,0.08967261016368866,0.12255630642175674,0.24827857315540314
1772619351763639600,0.1816396484375,0.1271868646144867,0.18222679197788239,0.1390218585729599
1772619351773670400,0.19167041015625,0.12424647063016891,0.18857496976852417,-0.008172648958861828
1772619351783701800,0.20170166015625,0.060917213559150696,0.09503398835659027,-0.1791250854730606
1772619351793732600,0.211732666015625,-0.05984728783369064,-0.08408064395189285,-0.35679391026496887
1772619351803763700,0.221763671875,-0.20065145194530487,-0.2976705729961395,-0.500776469707489
1772619351813794600,0.231794677734375,-0.32569432258605957,-0.4505850374698639,-0.5613541007041931
1772619351823825700,0.24182568359375,-0.3938400149345398,-0.5064019560813904,-0.535712480545044
1772619351833856500,0.2518564453125,-0.4038311243057251,-0.46753552556037903,-0.4427167475223541
1772619351843887600,0.2618876953125,-0.3623470664024353,-0.33997273445129395,-0.28938809037208557
1772619351853917700,0.271917724609375,-0.2624121904373169,-0.1288764476776123,-0.08511564135551453
1772619351863948500,0.281948486328125,-0.114050954580307,0.13245847821235657,0.15016266703605652
1772619351873979600,0.291979736328125,0.05752506107091904,0.39738360047340393,0.3884926736354828
1772619351884010500,0.302010498046875,0.22775821387767792,0.6303321719169617,0.6004046201705933
1772619351894041600,0.31204150390625,0.3608459532260895,0.797756016254425,0.7762238383293152
1772619351904072400,0.322072509765625,0.42882272601127625,0.9116107225418091,0.8745551109313965
1772619351914103600,0.332103515625,0.43562737107276917,0.9769854545593262,0.8901231288909912
1772619351924134400,0.342134521484375,0.38477689027786255,0.9756466150283813,0.8311964273452759
1772619351934165500,0.35216552734375,0.290789932012558,0.9068707227706909,0.7088374495506287
1772619351944196400,0.3621962890625,0.17409414052963257,0.7805808186531067,0.5584191679954529
1772619351954227500,0.3722275390625,0.03006107360124588,0.6422911286354065,0.4028485119342804
1772619351964257500,0.382257568359375,-0.13679741322994232,0.4965869188308716,0.2667418122291565
1772619351974288400,0.392288330078125,-0.29901322722435,0.3803119957447052,0.16497576236724854
1772619351984319500,0.402319580078125,-0.43007177114486694,0.3127051889896393,0.10901068896055222
1772619351994350300,0.412350341796875,-0.5162838697433472,0.29056209325790405,0.07658696919679642
1772619352004381700,0.422381591796875,-0.5479443073272705,0.28540512919425964,0.05460318922996521
1772619352014412500,0.43241259765625,-0.5304502844810486,0.2980585992336273,0.04232548549771309
1772619352024443600,0.442443603515625,-0.4915671944618225,0.3264230489730835,0.035259898751974106
1772619352034474500,0.452474609375,-0.43415313959121704,0.35287997126579285,0.034285981208086014
1772619352044505600,0.462505615234375,-0.37649214267730713,0.36595743894577026,0.02732580155134201
1772619352054536700,0.47253662109375,-0.32755815982818604,0.34088245034217834,0.012350046075880527
1772619352064566500,0.48256640625,-0.28300246596336365,0.2857958972454071,-0.009745456278324127
1772619352074597600,0.49259765625,-0.24055220186710358,0.23167727887630463,-0.017871294170618057
1772619352084628500,0.50262841796875,-0.18906410038471222,0.1889287829399109,-0.02212953381240368
1772619352094659600,0.51265966796875,-0.14204758405685425,0.16750258207321167,-0.015503855422139168
1772619352104690400,0.5226904296875,-0.1083606705069542,0.16339637339115143,-0.008071981370449066
1772619352114721500,0.532721435546875,-0.09328851103782654,0.18291868269443512,0.0034520491026341915
1772619352124752600,0.542752685546875,-0.09360611438751221,0.21129809319972992,0.015810025855898857
1772619352134783500,0.552783447265625,-0.09312275052070618,0.22350682318210602,0.023184318095445633
1772619352144814600,0.562814697265625,-0.08630795031785965,0.2242172658443451,0.021652670577168465
1772619352154845400,0.572845458984375,-0.06935559958219528,0.20811393857002258,0.012164094485342503
1772619352164875500,0.58287548828125,-0.043144043534994125,0.1728714257478714,0.002790960017591715
1772619352174906400,0.59290625,-0.004086124710738659,0.13328592479228973,0.0012002538423985243
1772619352184937500,0.6029375,0.033283233642578125,0.0907004177570343,0.00037562998477369547
1772619352194968600,0.612968505859375,0.06633705645799637,0.04351771995425224,0.005272916983813047
1772619352204999400,0.62299951171875,0.08367317169904709,0.0057977717369794846,0.016896549612283707
1772619352215030500,0.633030517578125,0.09331274777650833,-0.031870245933532715,0.012491414323449135
1772619352225061600,0.6430615234375,0.08963163197040558,-0.07070609927177429,-0.0008286432712338865
1772619352235092700,0.6530927734375,0.06998495757579803,-0.10066932439804077,-0.02079888805747032
1772619352245123600,0.66312353515625,0.03301136568188667,-0.1208217665553093,-0.04544545337557793
1772619352255154700,0.67315478515625,-0.02783280983567238,-0.12799285352230072,-0.07042296975851059
1772619352265185500,0.683185546875,-0.0937165692448616,-0.12010229378938675,-0.08817015588283539
1772619352275215600,0.693215576171875,-0.15482759475708008,-0.09790324419736862,-0.08899280428886414
1772619352285246700,0.703246826171875,-0.1979971081018448,-0.06815814971923828,-0.07159154862165451
1772619352295277600,0.713277587890625,-0.22518958151340485,-0.022995730862021446,-0.03216904029250145
1772619352305308700,0.72330859375,-0.22171279788017273,0.022687196731567383,0.012112915515899658
1772619352315339500,0.733339599609375,-0.19387397170066833,0.05282805114984512,0.046448517590761185
1772619352325370600,0.74337060546875,-0.1402824968099594,0.06253942847251892,0.0710710883140564
1772619352335401500,0.7534013671875,-0.09875156730413437,0.026770245283842087,0.07137735188007355
1772619352345432600,0.7634326171875,-0.0725792720913887,-0.06660033762454987,0.07535652071237564
1772619352355463400,0.77346337890625,-0.06606943905353546,-0.18859174847602844,0.08469089865684509
1772619352365494500,0.78349462890625,-0.0591241754591465,-0.33069536089897156,0.09545806050300598
1772619352375524600,0.793524658203125,-0.061995867639780045,-0.45864346623420715,0.10914137959480286
1772619352385555500,0.803555419921875,-0.07620056718587875,-0.5778034925460815,0.11481499671936035
1772619352395586600,0.813586669921875,-0.1143743172287941,-0.6751226186752319,0.11330524832010269
1772619352405617400,0.823617431640625,-0.1588594615459442,-0.7163190841674805,0.10567256808280945
1772619352415648500,0.8336484375,-0.17691250145435333,-0.6967121362686157,0.10907448828220367
1772619352425679400,0.843679443359375,-0.16009794175624847,-0.6369708180427551,0.09005758166313171
1772619352435710500,0.85371044921875,-0.12612266838550568,-0.5870674252510071,0.05447082221508026
1772619352445741600,0.863741455078125,-0.08660869300365448,-0.5775389075279236,0.0037006959319114685
1772619352455774000,0.87377392578125,-0.056148793548345566,-0.6042192578315735,-0.04340290278196335
1772619352465804800,0.8838046875,-0.03692470118403435,-0.6495935320854187,-0.056260623037815094
1772619352475836000,0.8938359375,-0.014594893902540207,-0.6691403388977051,-0.014251386746764183
1772619352485865700,0.90386572265625,0.02666788548231125,-0.6196774244308472,0.09783368557691574
1772619352495896800,0.913896728515625,0.10214639455080032,-0.4585026204586029,0.26461175084114075
1772619352505927700,0.923927734375,0.20119379460811615,-0.1996612697839737,0.44898292422294617
1772619352515958800,0.933958740234375,0.32329225540161133,0.11838620156049728,0.6067046523094177
1772619352525990000,0.943989990234375,0.4590042233467102,0.40802475810050964,0.6879496574401855
1772619352536020700,0.954020751953125,0.5931966304779053,0.5831800699234009,0.6790778636932373
1772619352546051800,0.9640517578125,0.710169792175293,0.6508633494377136,0.6183998584747314
1772619352556082700,0.974082763671875,0.7808767557144165,0.6421806216239929,0.506588339805603
1772619352566113800,0.98411376953125,0.8145348429679871,0.5599621534347534,0.3632631003856659
1772619352576144600,0.99414453125,0.807732343673706,0.42339661717414856,0.21722467243671417
1772619352586174700,1.0041748046875,0.745998740196228,0.2632962465286255,0.07336395978927612
1772619352596205800,1.014205810546875,0.6353569626808167,0.07342273741960526,-0.05177319049835205
1772619352606236700,1.024236572265625,0.4847401976585388,-0.1305447667837143,-0.14375272393226624
1772619352616267800,1.034267822265625,0.3149562478065491,-0.3037612736225128,-0.18667834997177124
1772619352626299000,1.044298828125,0.17475081980228424,-0.40440478920936584,-0.1735522747039795
1772619352636330000,1.054330078125,0.0969202071428299,-0.43644580245018005,-0.11971434950828552
1772619352646360800,1.06436083984375,0.08160710334777832,-0.4156688451766968,-0.03772982209920883
1772619352656392000,1.074391845703125,0.11017642915248871,-0.3631339967250824,0.049538504332304
1772619352666422800,1.0844228515625,0.17129309475421906,-0.30386409163475037,0.12375088781118393
1772619352676454000,1.094453857421875,0.2576484680175781,-0.2311941534280777,0.18499188125133514
1772619352686484700,1.104484619140625,0.34798792004585266,-0.11853111535310745,0.22041939198970795
1772619352696514800,1.114514892578125,0.4336136281490326,0.0373477004468441,0.21635247766971588
1772619352706546000,1.1245458984375,0.5012341737747192,0.21638916432857513,0.176577627658844
1772619352716576800,1.13457666015625,0.5351119637489319,0.38895508646965027,0.1028948724269867
1772619352726608000,1.14460791015625,0.5346083641052246,0.5361748933792114,-0.006746746599674225
1772619352736638700,1.154638671875,0.49882689118385315,0.624444305896759,-0.1155371367931366
1772619352746669800,1.164669921875,0.4490607678890228,0.6495046615600586,-0.22473102807998657
1772619352756700700,1.17470068359375,0.3852173388004303,0.6271543502807617,-0.30344605445861816
1772619352766731800,1.184731689453125,0.3190925717353821,0.5663062334060669,-0.3447410762310028
1772619352776762600,1.1947626953125,0.25851258635520935,0.5034846663475037,-0.3435695469379425
1772619352786793700,1.204793701171875,0.21568597853183746,0.4421803057193756,-0.31060901284217834
1772619352796823800,1.21482373046875,0.17418940365314484,0.38195958733558655,-0.2668074667453766
1772619352806854700,1.224854736328125,0.1348465532064438,0.31230005621910095,-0.2304624319076538
1772619352816885800,1.2348857421875,0.10688282549381256,0.24256597459316254,-0.20473016798496246
1772619352826916600,1.24491650390625,0.0928470641374588,0.18730288743972778,-0.18126101791858673
1772619352836947700,1.25494775390625,0.0806063786149025,0.125493586063385,-0.16045400500297546
1772619352846978800,1.264978759765625,0.06172795593738556,0.03479745611548424,-0.13511526584625244
1772619352857010000,1.275010009765625,0.03104301169514656,-0.07688965648412704,-0.11707768589258194
1772619352867040800,1.285040771484375,-0.008790325373411179,-0.184303417801857,-0.08396740257740021
1772619352877072000,1.29507177734375,-0.03851892426609993,-0.26094281673431396,-0.027275899425148964
1772619352887102700,1.305102783203125,-0.06388379633426666,-0.31233999133110046,0.050827618688344955
1772619352897133800,1.3151337890625,-0.08581040054559708,-0.3514533042907715,0.13133497536182404
1772619352907164000,1.325163818359375,-0.1192125678062439,-0.40115267038345337,0.18371908366680145
1772619352917194800,1.33519482421875,-0.15744517743587494,-0.4687514305114746,0.20206506550312042
1772619352927225900,1.345225830078125,-0.21389541029930115,-0.537998616695404,0.1880660355091095
1772619352937256700,1.355256591796875,-0.28936195373535156,-0.6431865692138672,0.14648371934890747
1772619352947287800,1.365287841796875,-0.3766525685787201,-0.7812055349349976,0.09966247528791428
1772619352957318700,1.375318603515625,-0.4557205140590668,-0.8819595575332642,0.07966026663780212
1772619352967349800,1.385349853515625,-0.49905824661254883,-0.8551172614097595,0.09059687703847885
1772619352977380900,1.395380859375,-0.4730586111545563,-0.6738523840904236,0.12315402179956436
1772619352987411700,1.40541162109375,-0.36754465103149414,-0.3920302093029022,0.16076751053333282
1772619352997442800,1.41544287109375,-0.21670161187648773,-0.09759432077407837,0.1542789787054062
1772619353007472600,1.42547265625,-0.06167757511138916,0.10361099988222122,0.09016362577676773
1772619353017503700,1.435503662109375,0.03762584179639816,0.19635318219661713,-0.03841112554073334
1772619353027534800,1.445534912109375,0.06601852178573608,0.14414513111114502,-0.23891681432724
1772619353037565700,1.455565673828125,0.003695492399856448,-0.10742824524641037,-0.5058795213699341
1772619353047596800,1.4655966796875,-0.15264979004859924,-0.4740808606147766,-0.7726919651031494
1772619353057627600,1.475627685546875,-0.3381624221801758,-0.777331531047821,-0.9242386221885681
1772619353067659000,1.485658935546875,-0.4588719308376312,-0.908168375492096,-0.9260937571525574
1772619353077689900,1.49568994140625,-0.5068346858024597,-0.843095600605011,-0.7821411490440369
1772619353087721000,1.505720947265625,-0.4731852114200592,-0.634629487991333,-0.5284048318862915
1772619353097751800,1.515751708984375,-0.365120530128479,-0.32219642400741577,-0.21234114468097687
1772619353107782000,1.525781982421875,-0.23006772994995117,0.014486207626760006,0.1041257455945015
1772619353117813000,1.53581298828125,-0.08251342922449112,0.30769625306129456,0.363571435213089
1772619353127843800,1.54584375,0.060179006308317184,0.5186824202537537,0.5439711809158325
1772619353137875000,1.555875,0.19830384850502014,0.6183575987815857,0.6538696885108948
1772619353147905800,1.56590576171875,0.3010141849517822,0.63737952709198,0.7040495276451111
1772619353157937000,1.57593701171875,0.37855398654937744,0.6103338003158569,0.7127644419670105
1772619353167967700,1.5859677734375,0.4159432649612427,0.5565215945243835,0.6708425283432007
1772619353177998800,1.595998779296875,0.4192596971988678,0.45866450667381287,0.5745932459831238
1772619353188029700,1.60602978515625,0.38740068674087524,0.3212997615337372,0.43691587448120117
1772619353198060800,1.616060791015625,0.3132670819759369,0.13104380667209625,0.29084333777427673
1772619353208091000,1.6260908203125,0.19911862909793854,-0.07314513623714447,0.15339380502700806
1772619353218121700,1.636121826171875,0.06460236012935638,-0.25298601388931274,0.056221455335617065
1772619353228152800,1.64615283203125,-0.0585470050573349,-0.3540564477443695,0.005373721942305565
1772619353238183700,1.65618359375,-0.16353386640548706,-0.3765154182910919,-0.002430139109492302
1772619353248214800,1.66621484375,-0.2532094717025757,-0.3254152536392212,0.01515513937920332
1772619353258245600,1.67624560546875,-0.31676816940307617,-0.20771285891532898,0.044455237686634064
1772619353268276700,1.68627685546875,-0.3351098299026489,-0.05907979607582092,0.06466399878263474
1772619353278307600,1.6963076171875,-0.32935822010040283,0.08969902247190475,0.04668446257710457
1772619353288339000,1.7063388671875,-0.30629822611808777,0.20528629422187805,-0.007406910415738821
1772619353298369800,1.716369873046875,-0.2688294053077698,0.2694793939590454,-0.0891510397195816
1772619353308401000,1.72640087890625,-0.22281432151794434,0.28235241770744324,-0.192148819565773
1772619353318431000,1.736430908203125,-0.18247276544570923,0.25180888175964355,-0.2924860715866089
1772619353328461800,1.7464619140625,-0.1606145203113556,0.16710002720355988,-0.3691105246543884
1772619353338493000,1.756492919921875,-0.15727464854717255,0.0688975602388382,-0.41356775164604187
1772619353348523800,1.766523681640625,-0.16577282547950745,0.0022647446021437645,-0.41926005482673645
1772619353358555000,1.776554931640625,-0.18180853128433228,-0.03289217874407768,-0.4134812653064728
1772619353368585700,1.786585693359375,-0.20641355216503143,-0.05992211401462555,-0.4124162793159485
1772619353378616800,1.796616943359375,-0.23058386147022247,-0.08231770247220993,-0.4158235192298889
1772619353388647700,1.806647705078125,-0.2563779056072235,-0.0973762795329094,-0.4210957884788513
1772619353398678800,1.8166787109375,-0.28497597575187683,-0.11452063918113708,-0.43193483352661133
1772619353408710000,1.8267099609375,-0.3069424629211426,-0.12328419834375381,-0.4368903338909149
1772619353418739700,1.83673974609375,-0.3141458034515381,-0.1028905063867569,-0.4262635111808777
1772619353428770800,1.846770751953125,-0.2882084846496582,-0.04068564623594284,-0.4022683799266815
1772619353438801700,1.8568017578125,-0.2376324087381363,0.023310646414756775,-0.3739352822303772
1772619353448832800,1.866832763671875,-0.16059845685958862,0.06279569864273071,-0.3446565568447113
1772619353458862600,1.876862548828125,-0.06042419373989105,0.05682968720793724,-0.31040963530540466
1772619353468893400,1.8868935546875,0.045463159680366516,0.02154984511435032,-0.2544557750225067
1772619353478924500,1.896924560546875,0.15515263378620148,-0.03066302463412285,-0.174543097615242
1772619353488955400,1.906955322265625,0.25743529200553894,-0.06256768107414246,-0.08514729887247086
1772619353498986500,1.916986572265625,0.32842665910720825,-0.07873360067605972,-0.0019730504136532545
1772619353509017300,1.927017333984375,0.35537511110305786,-0.07834111154079437,0.05446861684322357
1772619353519048400,1.93704833984375,0.33693885803222656,-0.08315930515527725,0.08116947114467621
1772619353529078500,1.94707861328125,0.30330315232276917,-0.06443721055984497,0.08707019686698914
1772619353539109400,1.957109375,0.2746230363845825,0.008942726068198681,0.0911048874258995
1772619353549140500,1.967140380859375,0.2737538814544678,0.09190016984939575,0.09598151594400406
1772619353559171300,1.97717138671875,0.29969626665115356,0.16799280047416687,0.10532362014055252
1772619353569202400,1.987202392578125,0.3494095206260681,0.22261741757392883,0.12919600307941437
1772619353579233300,1.9972333984375,0.40345412492752075,0.22639138996601105,0.15587209165096283
1772619353589264400,2.007264404296875,0.4514959156513214,0.1823648065328598,0.19372111558914185
1772619353599295500,2.01729541015625,0.4887276887893677,0.09854209423065186,0.24620190262794495
1772619353609326300,2.027326416015625,0.5148575305938721,-0.008535541594028473,0.3012107312679291
1772619353619357400,2.037357421875,0.5412765741348267,-0.10038983076810837,0.368724524974823
1772619353629387300,2.04738720703125,0.5710522532463074,-0.1449703872203827,0.43423891067504883
1772619353639418400,2.05741845703125,0.607768177986145,-0.15088926255702972,0.500778317451477
1772619353649449500,2.067449462890625,0.6473734378814697,-0.14455048739910126,0.5603086352348328
1772619353659480600,2.07748046875,0.6684038639068604,-0.12505854666233063,0.6198928952217102
1772619353669511700,2.08751171875,0.6664052605628967,-0.07130032777786255,0.6708383560180664
1772619353679542500,2.09754248046875,0.649803638458252,0.017726216465234756,0.6789799332618713
1772619353689573600,2.10757373046875,0.6529597043991089,0.14299920201301575,0.6388222575187683
1772619353699604500,2.1176044921875,0.6730396747589111,0.24557751417160034,0.5432944297790527
1772619353709635600,2.127635498046875,0.6861553192138672,0.22848470509052277,0.39272865653038025
1772619353719666400,2.13766650390625,0.6530697345733643,0.04264640435576439,0.2166803777217865
1772619353729696500,2.147696533203125,0.5675478577613831,-0.21353647112846375,0.059956327080726624
1772619353739727600,2.1577275390625,0.4568338394165039,-0.42065852880477905,-0.03431904315948486
1772619353749758500,2.167758544921875,0.3536161482334137,-0.5057468414306641,-0.062163516879081726
1772619353759789600,2.17778955078125,0.3027378022670746,-0.4583095610141754,-0.004186235833913088
1772619353769820400,2.1878203125,0.328372985124588,-0.2515520751476288,0.13789428770542145
1772619353779851500,2.1978515625,0.43421366810798645,0.05738791823387146,0.32584795355796814
1772619353789882400,2.20788232421875,0.5937108993530273,0.3589966595172882,0.4949045479297638
1772619353799913500,2.21791357421875,0.7593621015548706,0.5439587831497192,0.6031553745269775
1772619353809944300,2.2279443359375,0.8565312623977661,0.5762612819671631,0.6239103078842163
1772619353819975400,2.237975341796875,0.8992885947227478,0.4969768524169922,0.5841293334960938
1772619353830005500,2.248005615234375,0.9109318256378174,0.3836946189403534,0.5145202279090881
1772619353840036400,2.258036376953125,0.8855887055397034,0.2658036947250366,0.43274787068367004
1772619353850067500,2.2680673828125,0.809752345085144,0.13428136706352234,0.3649592995643616
1772619353860098300,2.278098388671875,0.6896147727966309,0.0011512823402881622,0.28901445865631104
1772619353870129400,2.28812939453125,0.5444521903991699,-0.09503235667943954,0.19987380504608154
1772619353880160500,2.298160400390625,0.3953385651111603,-0.1366215944290161,0.08667987585067749
1772619353890191600,2.308191650390625,0.25700321793556213,-0.11989586055278778,-0.04133972153067589
1772619353900222500,2.318222412109375,0.14558908343315125,-0.05002330243587494,-0.17678384482860565
1772619353910253600,2.328253662109375,0.07901852577924728,0.04452099651098251,-0.2947322130203247
1772619353920284400,2.338284423828125,0.059998489916324615,0.1484854817390442,-0.3775179088115692
1772619353930315500,2.3483154296875,0.06996114552021027,0.260562002658844,-0.4071739912033081
1772619353940345600,2.358345703125,0.10656522959470749,0.33531108498573303,-0.3939545750617981
1772619353950376400,2.36837646484375,0.15951870381832123,0.3719691038131714,-0.351569801568985
1772619353960407600,2.378407470703125,0.22067366540431976,0.382828950881958,-0.28538626432418823
1772619353970438400,2.3884384765625,0.2580176591873169,0.37404659390449524,-0.2030404955148697
1772619353980469500,2.398469482421875,0.2736949026584625,0.3372395634651184,-0.1233331561088562
1772619353990500400,2.408500244140625,0.25924283266067505,0.2697972059249878,-0.0744330957531929
1772619354000531500,2.418531494140625,0.2218259871006012,0.18272194266319275,-0.052739519625902176
1772619354010562300,2.428562255859375,0.1684308499097824,0.10780498385429382,-0.055117592215538025
1772619354020593400,2.438593505859375,0.10833342373371124,0.048842329531908035,-0.0726795420050621
1772619354030624500,2.44862451171875,0.053836870938539505,0.015709150582551956,-0.10653267055749893
1772619354040654300,2.458654296875,-0.0009004105813801289,-0.0032544205896556377,-0.15266713500022888
1772619354050685400,2.468685546875,-0.04174020141363144,-0.01037998590618372,-0.19774842262268066
1772619354060716300,2.47871630859375,-0.07394713908433914,-0.017201673239469528,-0.22102393209934235
1772619354070747400,2.488747314453125,-0.09589441865682602,-0.03469780087471008,-0.22978758811950684
1772619354080778200,2.4987783203125,-0.11108828336000443,-0.04868552088737488,-0.20481327176094055
1772619354090809300,2.508809326171875,-0.1243693083524704,-0.05290161073207855,-0.15092313289642334
1772619354100840400,2.51884033203125,-0.13310126960277557,-0.04045400023460388,-0.06590677797794342
1772619354110871600,2.52887158203125,-0.13952231407165527,-0.007486419752240181,0.027127819135785103
1772619354120902700,2.538902587890625,-0.1547316312789917,0.016195472329854965,0.09342189133167267
1772619354130933500,2.54893359375,-0.17295829951763153,0.027827557176351547,0.10513618588447571
1772619354140963600,2.558963623046875,-0.19159935414791107,0.020357657223939896,0.07881882786750793
1772619354150994400,2.568994384765625,-0.21265101432800293,-0.01363062858581543,0.019457757472991943
1772619354161025500,2.579025634765625,-0.23915451765060425,-0.08206907659769058,-0.0492376834154129
1772619354171056400,2.589056396484375,-0.27143967151641846,-0.1631196141242981,-0.1174391508102417
1772619354181087500,2.59908740234375,-0.3145650327205658,-0.24018190801143646,-0.16264498233795166
1772619354191118600,2.60911865234375,-0.37198564410209656,-0.32458260655403137,-0.19797773659229279
1772619354201149400,2.6191494140625,-0.4400869309902191,-0.404405802488327,-0.21470265090465546
1772619354211180500,2.6291806640625,-0.49643567204475403,-0.46521151065826416,-0.21169961988925934
1772619354221211400,2.63921142578125,-0.5355237126350403,-0.47449928522109985,-0.17021742463111877
1772619354231242500,2.649242431640625,-0.5424224734306335,-0.39113691449165344,-0.0866377055644989
1772619354241272600,2.6592724609375,-0.5052807331085205,-0.19984151422977448,0.02416284568607807
1772619354251303400,2.669303466796875,-0.4155145287513733,0.08554872125387192,0.1389586627483368
1772619354261334500,2.67933447265625,-0.3096911609172821,0.3461398184299469,0.19835567474365234
1772619354271365400,2.689365478515625,-0.2190643548965454,0.5182049870491028,0.17193515598773956
1772619354281396500,2.699396484375,-0.13372762501239777,0.6063569784164429,0.09634505957365036
1772619354291427300,2.70942724609375,-0.06786695867776871,0.5895153284072876,-0.021820945665240288
1772619354301458400,2.71945849609375,-0.05951661616563797,0.4096747040748596,-0.1621093451976776
1772619354311489300,2.7294892578125,-0.15141141414642334,0.038098230957984924,-0.32138243317604065
1772619354321520600,2.739520751953125,-0.34999722242355347,-0.5270940661430359,-0.47321832180023193
1772619354331551500,2.749551513671875,-0.5968888401985168,-1.131074070930481,-0.5461589694023132
1772619354341582600,2.75958251953125,-0.757077157497406,-1.5805461406707764,-0.46076124906539917
1772619354351612700,2.76961279296875,-0.8389461040496826,-1.7905826568603516,-0.21315361559391022
1772619354361643500,2.7796435546875,-0.8092305660247803,-1.6505638360977173,0.18698473274707794
1772619354371674600,2.789674560546875,-0.6786928176879883,-1.2071720361709595,0.6514389514923096
1772619354381705500,2.79970556640625,-0.4738968014717102,-0.5792788863182068,1.051969051361084
1772619354391736600,2.809736572265625,-0.2638736963272095,0.06000976264476776,1.2398167848587036
1772619354401767400,2.819767333984375,-0.11689995974302292,0.5258991718292236,1.1951947212219238
1772619354411798500,2.829798583984375,-0.04189986735582352,0.8469516038894653,0.9904652833938599
1772619354421829400,2.839829345703125,-0.011618128046393394,1.0201425552368164,0.7020308375358582
1772619354431860500,2.849860595703125,-0.020081888884305954,1.0675103664398193,0.4070320725440979
1772619354441891300,2.859891357421875,-0.06223679706454277,0.9919013977050781,0.13770551979541779
1772619354451921400,2.86992138671875,-0.1342589259147644,0.8026283383369446,-0.08188896626234055
1772619354461951700,2.87995166015625,-0.23727239668369293,0.5194634795188904,-0.2398250699043274
1772619354471982600,2.889982666015625,-0.36869049072265625,0.14019037783145905,-0.32876551151275635
1772619354482014000,2.900013916015625,-0.5105767846107483,-0.25253188610076904,-0.3339461386203766
1772619354492044800,2.910044921875,-0.6109727621078491,-0.5232522487640381,-0.26645782589912415
1772619354502076000,2.920075927734375,-0.6703191995620728,-0.6560899019241333,-0.16327127814292908
1772619354512107000,2.93010693359375,-0.6940581798553467,-0.678252100944519,-0.0739021897315979
1772619354522137900,2.940137939453125,-0.6675485372543335,-0.6073837876319885,-0.010857179760932922
1772619354532169000,2.9501689453125,-0.599328875541687,-0.45619142055511475,0.02179623395204544
1772619354542199800,2.96019970703125,-0.5004278421401978,-0.23476344347000122,0.02805732563138008
1772619354552231000,2.97023095703125,-0.3728458881378174,0.01285434328019619,0.008205936290323734
1772619354562261000,2.980260986328125,-0.25270456075668335,0.23784483969211578,-0.032863467931747437
1772619354572291800,2.990291748046875,-0.16305766999721527,0.3900567293167114,-0.08116333186626434
1772619354582323000,3.000322998046875,-0.11586272716522217,0.4574384093284607,-0.1297907829284668
1772619354592353800,3.010353759765625,-0.09659819304943085,0.4599071741104126,-0.16772103309631348
1772619354602385000,3.020385009765625,-0.10718852281570435,0.417179137468338,-0.19739024341106415
1772619354612415700,3.030415771484375,-0.13039690256118774,0.3463515639305115,-0.21515433490276337
1772619354622446800,3.04044677734375,-0.16376949846744537,0.2690591812133789,-0.21597138047218323
1772619354632477700,3.050477783203125,-0.2017514705657959,0.19580595195293427,-0.20538192987442017
1772619354642508800,3.0605087890625,-0.22257100045681,0.14752043783664703,-0.20069290697574615
1772619354652539600,3.07053955078125,-0.2357228845357895,0.1174166351556778,-0.21354177594184875
1772619354662569700,3.08056982421875,-0.2268814593553543,0.0932183489203453,-0.2443244606256485
1772619354672600800,3.090600830078125,-0.20520257949829102,0.08780635893344879,-0.28017881512641907
1772619354682631700,3.100631591796875,-0.17170239984989166,0.08549606800079346,-0.30822429060935974
1772619354692662800,3.110662841796875,-0.12647341191768646,0.09030279517173767,-0.3277724087238312
1772619354702694000,3.12069384765625,-0.09023018181324005,0.08688171207904816,-0.32665735483169556
1772619354712725000,3.13072509765625,-0.06079524755477905,0.06475547701120377,-0.30903321504592896
1772619354722755800,3.140755859375,-0.03374898061156273,0.04647047817707062,-0.26409050822257996
1772619354732787000,3.150786865234375,-0.01845281571149826,0.029933571815490723,-0.20487983524799347
1772619354742817800,3.16081787109375,-0.006660872139036655,0.01964019052684307,-0.14579227566719055
1772619354752849000,3.170848876953125,0.000627368688583374,0.026303691789507866,-0.09914283454418182
1772619354762879700,3.180879638671875,0.007845068350434303,0.056326575577259064,-0.07243692129850388
1772619354772909800,3.190909912109375,0.01962888240814209,0.10116785019636154,-0.06319834291934967
1772619354782941000,3.20094091796875,0.026572810485959053,0.16409114003181458,-0.06564365327358246
1772619354792971800,3.2109716796875,0.03805268928408623,0.22590483725070953,-0.07746510207653046
1772619354803003000,3.2210029296875,0.054456695914268494,0.26411083340644836,-0.08779843151569366
1772619354813033700,3.23103369140625,0.07268547266721725,0.2675265967845917,-0.08946166187524796
1772619354823064800,3.24106494140625,0.08493255078792572,0.2312876135110855,-0.0882110446691513
1772619354833095700,3.251095703125,0.09293899685144424,0.15543882548809052,-0.07815775275230408
1772619354843126800,3.261126708984375,0.09267428517341614,0.06330782920122147,-0.06689418107271194
1772619354853157600,3.27115771484375,0.08605951815843582,-0.02280348539352417,-0.04277914762496948
1772619354863188700,3.281188720703125,0.07822849601507187,-0.0765649825334549,-0.006253092549741268
1772619354873218800,3.29121875,0.06775490194559097,-0.06887872517108917,0.04466108977794647
1772619354883249700,3.301249755859375,0.07504184544086456,0.0069816866889595985,0.08780323714017868
1772619354893280800,3.31128076171875,0.08014048635959625,0.11801113188266754,0.1086520403623581
1772619354903311600,3.3213115234375,0.09636765718460083,0.23173315823078156,0.10359203070402145
1772619354913342700,3.3313427734375,0.11572166532278061,0.3435070216655731,0.08154570311307907
1772619354923373800,3.341373779296875,0.14128375053405762,0.4449465572834015,0.04206806793808937
1772619354933405000,3.351405029296875,0.17786265909671783,0.4868144094944,-0.02671677991747856
1772619354943436000,3.36143603515625,0.2043115794658661,0.4175674319267273,-0.12975022196769714
1772619354953467000,3.371466796875,0.1965506225824356,0.2535582482814789,-0.2703211009502411
1772619354963498000,3.381498046875,0.14282293617725372,-0.04483881592750549,-0.43279576301574707
1772619354973528800,3.39152880859375,0.06287627667188644,-0.3969019949436188,-0.5583329200744629
1772619354983559000,3.401558837890625,-0.003042018972337246,-0.6619637608528137,-0.5661059021949768
1772619354993589800,3.41158984375,-0.03755291551351547,-0.7732701897621155,-0.4375186860561371
1772619355003620900,3.421620849609375,-0.023787299171090126,-0.7790707945823669,-0.19797693192958832
1772619355013652000,3.43165185546875,0.06710578501224518,-0.6289320588111877,0.12533880770206451
1772619355023682800,3.441682861328125,0.205250084400177,-0.3253583610057831,0.460353285074234
1772619355033714000,3.4517138671875,0.374606728553772,0.06717723608016968,0.7123448252677917
1772619355043744800,3.461744873046875,0.536301851272583,0.41590195894241333,0.8185152411460876
1772619355053776000,3.47177587890625,0.6770559549331665,0.6765947937965393,0.8049047589302063
1772619355063806700,3.481806640625,0.7709278464317322,0.818642258644104,0.7193661332130432
1772619355073837800,3.491837890625,0.8111569285392761,0.8160960078239441,0.5923246741294861
1772619355083868000,3.501867919921875,0.8175535798072815,0.7119861245155334,0.4435546100139618
1772619355093898800,3.511898681640625,0.7918116450309753,0.555241584777832,0.3080931007862091
1772619355103929900,3.521929931640625,0.7182332873344421,0.33457982540130615,0.17797663807868958
1772619355113960700,3.531960693359375,0.5894551873207092,0.03444104641675949,0.05449001118540764
1772619355123991800,3.54199169921875,0.4157816767692566,-0.3155422508716583,-0.06101527810096741
1772619355134023000,3.55202294921875,0.22198426723480225,-0.6508239507675171,-0.15933853387832642
1772619355144054000,3.562053955078125,0.07681960612535477,-0.8541224598884583,-0.2216370701789856
1772619355154084900,3.5720849609375,-0.006108773872256279,-0.9005712866783142,-0.2557494342327118
1772619355164116000,3.582115966796875,-0.05495807155966759,-0.8536291122436523,-0.27027803659439087
1772619355174146800,3.592146728515625,-0.04991815239191055,-0.7599031329154968,-0.2653723359107971
1772619355184177000,3.602177001953125,0.007096133194863796,-0.6132193803787231,-0.22089914977550507
1772619355194208000,3.6122080078125,0.09827415645122528,-0.4329914152622223,-0.15622389316558838
1772619355204238800,3.62223876953125,0.19864070415496826,-0.2512727677822113,-0.07982951402664185
1772619355214270000,3.63227001953125,0.2824309766292572,-0.08882898837327957,-0.007031210232526064
1772619355224300800,3.64230078125,0.3292626440525055,0.03518616408109665,0.05756056681275368
1772619355234332000,3.652331787109375,0.3372911810874939,0.12095688283443451,0.10723637044429779
1772619355244362800,3.66236279296875,0.313336044549942,0.17806118726730347,0.14089074730873108
1772619355254393900,3.672393798828125,0.2800512909889221,0.22740085422992706,0.1607731580734253
1772619355264424700,3.6824248046875,0.24745526909828186,0.2932714521884918,0.172545924782753
1772619355274455800,3.692455810546875,0.20692142844200134,0.353328675031662,0.17216669023036957
1772619355284486700,3.702486572265625,0.17017300426959991,0.40703079104423523,0.158161923289299
1772619355294516700,3.712516845703125,0.1440374255180359,0.44609078764915466,0.12852096557617188
1772619355304547800,3.7225478515625,0.12027990072965622,0.4653851389884949,0.09867890924215317
1772619355314578700,3.73257861328125,0.09291575103998184,0.4629291892051697,0.06110675632953644
1772619355324609800,3.74260986328125,0.06209072843194008,0.4187582731246948,0.013264668174088001
1772619355334640600,3.752640625,0.029631730169057846,0.3498223125934601,-0.036327458918094635
1772619355344671700,3.762671630859375,0.008630573749542236,0.26506829261779785,-0.07589510828256607
1772619355354702800,3.772702880859375,-0.008020905777812004,0.16878245770931244,-0.10072420537471771
1772619355364734000,3.78273388671875,-0.03471856191754341,0.07548712939023972,-0.11833649128675461
1772619355374764800,3.792764892578125,-0.06017930805683136,-0.009832593612372875,-0.1283484399318695
1772619355384796000,3.8027958984375,-0.08718962222337723,-0.07399560511112213,-0.11717914789915085
1772619355394826000,3.812825927734375,-0.11899173259735107,-0.11620578169822693,-0.09469969570636749
1772619355404856800,3.82285693359375,-0.15186606347560883,-0.14907024800777435,-0.06559401005506516
1772619355414888000,3.832887939453125,-0.17702844738960266,-0.17109644412994385,-0.039610039442777634
1772619355424918800,3.842918701171875,-0.1977478265762329,-0.17516548931598663,-0.012521162629127502
1772619355434950000,3.852949951171875,-0.20922912657260895,-0.1726960986852646,0.0016565372934564948
1772619355444980700,3.862980712890625,-0.2143024504184723,-0.16736231744289398,0.0012312304461374879
1772619355455011800,3.87301171875,-0.22090737521648407,-0.1697814017534256,-0.011857915669679642
1772619355465044000,3.8830439453125,-0.22667579352855682,-0.1557827591896057,-0.03559546917676926
1772619355475075000,3.893074951171875,-0.23163652420043945,-0.13927434384822845,-0.04810396581888199
1772619355485106000,3.90310595703125,-0.22956857085227966,-0.12092916667461395,-0.06665901094675064
1772619355495136000,3.913135986328125,-0.2324066460132599,-0.10638459026813507,-0.07483821362257004
1772619355505167000,3.9231669921875,-0.22139793634414673,-0.11037853360176086,-0.08334381878376007
1772619355515198000,3.933197998046875,-0.20563213527202606,-0.11033469438552856,-0.06953766942024231
1772619355525229000,3.94322900390625,-0.17655707895755768,-0.08410441875457764,-0.04172974452376366
1772619355535260000,3.953260009765625,-0.14778029918670654,-0.044860877096652985,-0.01641533337533474
1772619355545291000,3.963291015625,-0.11543513834476471,-0.012530902400612831,-0.006383206229656935
1772619355555321900,3.97332177734375,-0.08889616280794144,-0.011161582544445992,-0.012987910769879818
1772619355565353000,3.98335302734375,-0.07798918336629868,-0.03866671025753021,-0.040926601737737656
1772619355575383800,3.9933837890625,-0.07976784557104111,-0.11064478009939194,-0.11042056977748871
1772619355585415000,4.003414794921875,-0.10760799795389175,-0.2642154097557068,-0.2501260042190552
1772619355595445800,4.01344580078125,-0.18150492012500763,-0.45418986678123474,-0.41433799266815186
1772619355605475800,4.023475830078125,-0.27724742889404297,-0.6347590684890747,-0.5422661900520325
1772619355615507000,4.0335068359375,-0.3839832544326782,-0.7746601104736328,-0.6038689613342285
1772619355625537800,4.043537841796875,-0.4770519435405731,-0.8538406491279602,-0.5932163000106812
1772619355635569000,4.05356884765625,-0.5110485553741455,-0.8158292770385742,-0.4972761273384094
1772619355645599700,4.063599853515625,-0.47879716753959656,-0.6564339995384216,-0.31966432929039
1772619355655630800,4.073630859375,-0.3950015902519226,-0.43336984515190125,-0.10890484601259232
1772619355665661700,4.08366162109375,-0.28787511587142944,-0.17773489654064178,0.09603658318519592
1772619355675693000,4.093693115234375,-0.162688210606575,0.09247349947690964,0.25650179386138916
1772619355685724000,4.103723876953125,-0.038600340485572815,0.3261845111846924,0.3731527626514435
1772619355695755000,4.113755126953125,0.06770902127027512,0.5120241641998291,0.46229904890060425
1772619355705784800,4.123784912109375,0.14738281071186066,0.6292387247085571,0.5357128381729126
1772619355715816000,4.13381591796875,0.19142594933509827,0.6606068015098572,0.5880509614944458
1772619355725847000,4.143846923828125,0.2095210701227188,0.6131447553634644,0.616217851638794
1772619355735878000,4.1538779296875,0.19598177075386047,0.5196294188499451,0.6316480040550232
1772619355745909000,4.163908935546875,0.16222113370895386,0.4004761576652527,0.6301659941673279
1772619355755939800,4.17393994140625,0.09437732398509979,0.25727829337120056,0.5890457630157471
1772619355765971000,4.183970947265625,-0.00037341518327593803,0.10213533043861389,0.5121212005615234
1772619355776002000,4.194001953125,-0.10593260824680328,-0.038502804934978485,0.4101407527923584
1772619355786033000,4.204032958984375,-0.21133466064929962,-0.1242470070719719,0.2884196639060974
1772619355796064000,4.21406396484375,-0.28978440165519714,-0.1428382694721222,0.1601382941007614
1772619355806094800,4.2240947265625,-0.3343958258628845,-0.109627865254879,0.03526878356933594
1772619355816125000,4.234125,-0.3466567099094391,-0.0626961812376976,-0.07097592204809189
1772619355826155800,4.24415576171875,-0.33495238423347473,-0.014162467792630196,-0.1465737372636795
1772619355836187000,4.254186767578125,-0.3013959228992462,0.059880971908569336,-0.16791263222694397
1772619355846218000,4.264218017578125,-0.24965257942676544,0.13524043560028076,-0.13424281775951385
1772619355856248800,4.274248779296875,-0.17610985040664673,0.20382681488990784,-0.07127045094966888
1772619355866280000,4.284280029296875,-0.09221575409173965,0.26346537470817566,0.008112517185509205
1772619355876310800,4.294310791015625,-0.009431682527065277,0.3179571330547333,0.08585703372955322
1772619355886342000,4.304341796875,0.056587014347314835,0.362140029668808,0.14157995581626892
1772619355896373000,4.314373046875,0.1074812114238739,0.38036754727363586,0.15764659643173218
1772619355906404000,4.324404052734375,0.13299056887626648,0.3779563009738922,0.14464691281318665
1772619355916434000,4.334433837890625,0.15527161955833435,0.3698185384273529,0.10650473833084106
1772619355926465000,4.344465087890625,0.1742517054080963,0.3565123379230499,0.05919048562645912
1772619355936496000,4.35449609375,0.18514275550842285,0.3351232707500458,-0.0007779868319630623
1772619355946527000,4.36452685546875,0.18485194444656372,0.2931598424911499,-0.054615918546915054
1772619355956558000,4.37455810546875,0.17122554779052734,0.23629413545131683,-0.10322411358356476
1772619355966589000,4.3845888671875,0.15645059943199158,0.16961044073104858,-0.13457830250263214
1772619355976620000,4.3946201171875,0.14183546602725983,0.1181224063038826,-0.14887981116771698
1772619355986651000,4.40465087890625,0.13387635350227356,0.09011819958686829,-0.16095858812332153
1772619355996682000,4.414681884765625,0.13869960606098175,0.07983546704053879,-0.18112829327583313
1772619356006712800,4.424712890625,0.15960408747196198,0.10272800177335739,-0.20143410563468933
1772619356016744000,4.434743896484375,0.1968090832233429,0.14149300754070282,-0.22357723116874695
1772619356026774000,4.44477392578125,0.25158417224884033,0.18794439733028412,-0.2337007075548172
1772619356036804900,4.454804931640625,0.31602561473846436,0.23105642199516296,-0.2290162742137909
1772619356046836000,4.4648359375,0.3909560441970825,0.2705356478691101,-0.20692269504070282
1772619356056866800,4.47486669921875,0.46893659234046936,0.29838699102401733,-0.18321630358695984
1772619356066898000,4.48489794921875,0.5368594527244568,0.3071889877319336,-0.16092777252197266
1772619356076928800,4.4949287109375,0.5925174951553345,0.30375969409942627,-0.14303693175315857
1772619356086959900,4.5049599609375,0.6298108100891113,0.2816466689109802,-0.12906678020954132
1772619356096990700,4.51499072265625,0.6698451638221741,0.24128243327140808,-0.10287253558635712
1772619356107021800,4.525021728515625,0.7094402313232422,0.20220160484313965,-0.054426439106464386
1772619356117053000,4.535052978515625,0.7529757618904114,0.17227059602737427,0.01275507640093565
1772619356127082800,4.545082763671875,0.7855235934257507,0.16795708239078522,0.07702061533927917
1772619356137113900,4.55511376953125,0.8100239634513855,0.18415567278862,0.11947799474000931
1772619356147145000,4.56514501953125,0.837866485118866,0.20302097499370575,0.1455969512462616
1772619356157176000,4.575176025390625,0.8587239980697632,0.21973013877868652,0.1570754498243332
1772619356167207000,4.58520703125,0.8760873079299927,0.22747407853603363,0.16673393547534943
1772619356177238000,4.595238037109375,0.880217432975769,0.21204523742198944,0.1647528111934662
1772619356187268900,4.605268798828125,0.8718079328536987,0.19775816798210144,0.15812766551971436
1772619356197300000,4.615300048828125,0.856452226638794,0.20919762551784515,0.15622924268245697
1772619356207330800,4.625330810546875,0.8462989330291748,0.23671208322048187,0.15861596167087555
1772619356217362000,4.63536181640625,0.8387507200241089,0.281141459941864,0.16808819770812988
1772619356227393000,4.64539306640625,0.8497822880744934,0.34571006894111633,0.1785493642091751
1772619356237422800,4.6554228515625,0.8596277236938477,0.4138561189174652,0.17757970094680786
1772619356247454000,4.665453857421875,0.8657892346382141,0.48895883560180664,0.14384649693965912
1772619356257484800,4.67548486328125,0.8790189623832703,0.5998838543891907,0.07805873453617096
1772619356267516000,4.685515869140625,0.8862832188606262,0.7096830606460571,-0.03433039411902428
1772619356277547000,4.695547119140625,0.8899972438812256,0.7518233060836792,-0.2003650665283203
1772619356287577900,4.705577880859375,0.8778896927833557,0.6636098623275757,-0.40583324432373047
1772619356297609000,4.71560888671875,0.8316559195518494,0.4720762073993683,-0.6388033628463745
1772619356307639800,4.725639892578125,0.7650704979896545,0.22095932066440582,-0.8468731641769409
1772619356317671000,4.7356708984375,0.7244890332221985,-0.008994531817734241,-0.9437860250473022
1772619356327701800,4.74570166015625,0.7061513066291809,-0.1758096069097519,-0.8939929008483887
1772619356337731800,4.75573193359375,0.7117267847061157,-0.2694397270679474,-0.7321731448173523
1772619356347763000,4.765762939453125,0.7918024659156799,-0.24395622313022614,-0.4777965247631073
1772619356357793800,4.775793701171875,0.9192483425140381,-0.08434361219406128,-0.17351794242858887
1772619356367825200,4.7858251953125,1.0775957107543945,0.16351360082626343,0.12328124046325684
1772619356377856000,4.79585595703125,1.2318618297576904,0.42825162410736084,0.34479254484176636
1772619356387887000,4.80588720703125,1.3372575044631958,0.5948643088340759,0.4349951446056366
1772619356397918000,4.81591796875,1.4022763967514038,0.6592344045639038,0.4052092432975769
1772619356407949000,4.825948974609375,1.4510798454284668,0.6462312340736389,0.3000897467136383
1772619356417980000,4.83597998046875,1.458178162574768,0.6043616533279419,0.15285524725914001
1772619356428011000,4.846010986328125,1.40548837184906,0.5075200796127319,-0.024639910086989403
1772619356438041900,4.856041748046875,1.327305793762207,0.35629573464393616,-0.1855185478925705
1772619356448072000,4.866072021484375,1.234714150428772,0.1786801815032959,-0.29448020458221436
1772619356458103000,4.87610302734375,1.1330927610397339,0.010046936571598053,-0.34665974974632263
1772619356468133400,4.88613330078125,1.0184857845306396,-0.14208374917507172,-0.3607281446456909
1772619356478164500,4.89616455078125,0.9112637042999268,-0.2640947997570038,-0.3548435866832733
1772619356488195300,4.9061953125,0.8397091031074524,-0.34232649207115173,-0.3379378318786621
1772619356498226400,4.916226318359375,0.8207929134368896,-0.3605627119541168,-0.3112702965736389
1772619356508257300,4.92625732421875,0.8319867253303528,-0.31580695509910583,-0.2671436071395874
1772619356518288400,4.936288330078125,0.8793192505836487,-0.24242816865444183,-0.2064131647348404
1772619356528319200,4.9463193359375,0.9510318040847778,-0.16018494963645935,-0.1355254203081131
1772619356538350300,4.956350341796875,1.0159292221069336,-0.07342195510864258,-0.06551568955183029
1772619356548380400,4.96638037109375,1.0592862367630005,0.034848857671022415,-0.013557682745158672
1772619356558411300,4.976411376953125,1.0848100185394287,0.168341264128685,0.017092429101467133
1772619356568442400,4.9864423828125,1.0850460529327393,0.2924269735813141,0.019923636689782143
1772619356578473200,4.99647314453125,1.0665231943130493,0.38406825065612793,-0.012472769245505333
1772619356588504300,5.00650439453125,1.0445398092269897,0.4553099572658539,-0.05349130928516388
1772619356598535400,5.016535400390625,1.0124455690383911,0.5008339881896973,-0.09802137315273285
1772619356608566500,5.02656640625,0.9845525026321411,0.5135721564292908,-0.1281430721282959
1772619356618597600,5.03659765625,0.9577575922012329,0.5083261728286743,-0.1416279524564743
1772619356628628500,5.04662841796875,0.9291810393333435,0.4890461564064026,-0.13838662207126617
1772619356638659600,5.05665966796875,0.8970639109611511,0.44443008303642273,-0.13354848325252533
1772619356648690400,5.0666904296875,0.8614236116409302,0.39233171939849854,-0.13846254348754883
1772619356658720500,5.076720458984375,0.8170998692512512,0.350206583738327,-0.15078389644622803
1772619356668751400,5.08675146484375,0.7728434801101685,0.3292432427406311,-0.1779199093580246
1772619356678782500,5.096782470703125,0.7312257885932922,0.31257882714271545,-0.20823447406291962
1772619356688813600,5.1068134765625,0.6917414665222168,0.2783481478691101,-0.24306142330169678
1772619356698844400,5.116844482421875,0.6548802852630615,0.2359490692615509,-0.2680535614490509
1772619356708875500,5.12687548828125,0.6197279095649719,0.19665251672267914,-0.2676255702972412
1772619356718906400,5.13690625,0.5863067507743835,0.16410112380981445,-0.24937987327575684
1772619356728937500,5.1469375,0.544969379901886,0.1411246955394745,-0.20738102495670319
1772619356738968300,5.15696826171875,0.510627806186676,0.13722801208496094,-0.15119971334934235
1772619356748999400,5.16699951171875,0.4733981788158417,0.15622885525226593,-0.08241584897041321
1772619356759030300,5.1770302734375,0.43540704250335693,0.1750185489654541,-0.01119630690664053
1772619356769060400,5.187060302734375,0.3968103528022766,0.18898655474185944,0.0547235906124115
1772619356779091500,5.197091552734375,0.36589136719703674,0.19450855255126953,0.11825821548700333
1772619356789122300,5.207122314453125,0.33608418703079224,0.20871572196483612,0.1545344740152359
1772619356799153400,5.2171533203125,0.30645692348480225,0.21935074031352997,0.162135049700737
1772619356809184300,5.227184326171875,0.2787429988384247,0.19903534650802612,0.15056361258029938
1772619356819215400,5.23721533203125,0.2529483735561371,0.15273845195770264,0.11619411408901215
1772619356829246500,5.24724658203125,0.22872373461723328,0.0755230113863945,0.08015062659978867
1772619356839277600,5.257277587890625,0.20865973830223083,-0.02268976718187332,0.047471653670072556
1772619356849308400,5.267308349609375,0.19219662249088287,-0.12518924474716187,0.03668318688869476
1772619356859339500,5.277339599609375,0.18355447053909302,-0.19708116352558136,0.055564604699611664
1772619356869370400,5.287370361328125,0.17335616052150726,-0.23068706691265106,0.08561544865369797
1772619356879400400,5.297400390625,0.1740252822637558,-0.2170397937297821,0.10097075253725052
1772619356889431600,5.307431640625,0.17946825921535492,-0.19996653497219086,0.08001913130283356
1772619356899462400,5.31746240234375,0.18376170098781586,-0.18561865389347076,0.01650090143084526
1772619356909493500,5.327493408203125,0.18499527871608734,-0.1906973123550415,-0.08412744104862213
1772619356919524400,5.3375244140625,0.16413211822509766,-0.2116839587688446,-0.21693655848503113
1772619356929555500,5.347555419921875,0.12457352876663208,-0.24968034029006958,-0.3513351082801819
1772619356939586300,5.35758642578125,0.07437438517808914,-0.28342902660369873,-0.47768786549568176
1772619356949617400,5.367617431640625,0.03720756992697716,-0.307504266500473,-0.5724175572395325
1772619356959648300,5.377648193359375,0.021315505728125572,-0.3331165611743927,-0.6173769235610962
1772619356969679400,5.387679443359375,0.030315926298499107,-0.32979241013526917,-0.579422116279602
1772619356979710500,5.39771044921875,0.07438308000564575,-0.29763472080230713,-0.4714260995388031
1772619356989741300,5.4077412109375,0.14756914973258972,-0.24569852650165558,-0.3316407799720764
1772619356999771400,5.417771484375,0.2451472133398056,-0.18116018176078796,-0.1936587393283844
1772619357009802200,5.42780224609375,0.36574792861938477,-0.07808013260364532,-0.0675002709031105
1772619357019833300,5.437833251953125,0.48547786474227905,0.05450792610645294,0.02672123908996582
1772619357029864200,5.4478642578125,0.5995343923568726,0.1953662484884262,0.08731454610824585
1772619357039895600,5.4578955078125,0.6978087425231934,0.335013747215271,0.14254795014858246
1772619357049926400,5.467926513671875,0.7803062796592712,0.4770965874195099,0.19969192147254944
1772619357059957500,5.47795751953125,0.8456350564956665,0.5793259143829346,0.2501823604106903
1772619357069988600,5.487988525390625,0.9063996076583862,0.6284926533699036,0.2964332401752472
1772619357080019500,5.49801953125,0.9563983678817749,0.6395758986473083,0.3384062945842743
1772619357090050600,5.508050537109375,0.976344883441925,0.5935636162757874,0.37338024377822876
1772619357100081400,5.518081298828125,0.9608945250511169,0.48308995366096497,0.3784342408180237
1772619357110111500,5.528111572265625,0.9110121726989746,0.3336450755596161,0.35530683398246765
1772619357120142300,5.538142333984375,0.8259341716766357,0.17661061882972717,0.31662896275520325
1772619357130173400,5.54817333984375,0.7066170573234558,0.05691538006067276,0.2727717459201813
1772619357140204500,5.55820458984375,0.5768235921859741,0.0013559968210756779,0.21803325414657593
1772619357150235400,5.5682353515625,0.44873297214508057,0.01127600483596325,0.16857169568538666
1772619357160266500,5.5782666015625,0.3411561846733093,0.07865824550390244,0.11745871603488922
1772619357170297300,5.58829736328125,0.2820579707622528,0.17700691521167755,0.07442016899585724
1772619357180328400,5.598328369140625,0.2828727662563324,0.27913200855255127,0.04799449071288109
1772619357190359300,5.608359375,0.3244279623031616,0.3676717281341553,0.03899114206433296
1772619357200390400,5.618390380859375,0.39315491914749146,0.4156035780906677,0.0366968996822834
1772619357210420500,5.62842041015625,0.4748394191265106,0.42819952964782715,0.03903329372406006
1772619357220451300,5.638451416015625,0.5456792116165161,0.41060671210289,0.057578399777412415
1772619357230482400,5.648482421875,0.6039597988128662,0.3824909031391144,0.08121129870414734
1772619357240513300,5.65851318359375,0.6374474167823792,0.3467424511909485,0.09950782358646393
1772619357250544400,5.66854443359375,0.6574022173881531,0.3053135275840759,0.1051553264260292
1772619357260575500,5.678575439453125,0.6625410914421082,0.2723955512046814,0.07932844012975693
1772619357270606600,5.688606689453125,0.6508373022079468,0.24479004740715027,0.029911885038018227
1772619357280637400,5.698637451171875,0.622998058795929,0.23980262875556946,-0.05301086977124214
1772619357290668500,5.70866845703125,0.5823707580566406,0.24628371000289917,-0.14726120233535767
1772619357300699400,5.718699462890625,0.5421679019927979,0.25789037346839905,-0.25774022936820984
1772619357310729500,5.7287294921875,0.5248876810073853,0.2731465697288513,-0.3590357005596161
1772619357320760600,5.738760498046875,0.5388836860656738,0.2891770005226135,-0.43016088008880615
1772619357330791400,5.74879150390625,0.5745036602020264,0.3090899884700775,-0.4552385210990906
1772619357340822500,5.758822509765625,0.617631196975708,0.31138530373573303,-0.4515819847583771
1772619357350853400,5.768853271484375,0.663653552532196,0.30660679936408997,-0.4107469320297241
1772619357360884500,5.778884521484375,0.7139608263969421,0.31015175580978394,-0.3534605801105499
1772619357370915300,5.788915283203125,0.7621608376502991,0.32869693636894226,-0.2916094660758972
1772619357380946400,5.798946533203125,0.807719886302948,0.35080939531326294,-0.23943214118480682
1772619357390977300,5.808977294921875,0.8510609865188599,0.3611675202846527,-0.20925480127334595
1772619357401008400,5.81900830078125,0.8895887136459351,0.37337934970855713,-0.18558025360107422
1772619357411039200,5.829039306640625,0.9288839101791382,0.3859420120716095,-0.16071484982967377
1772619357421069300,5.8390693359375,0.9521780610084534,0.39983779191970825,-0.13492238521575928
1772619357431100400,5.849100341796875,0.9665729999542236,0.40220826864242554,-0.10341080278158188
1772619357441131300,5.85913134765625,0.9627183675765991,0.3970605134963989,-0.07309393584728241
1772619357451162400,5.869162353515625,0.9499652981758118,0.40308964252471924,-0.043866269290447235
1772619357461193000,5.87919287109375,0.9268258810043335,0.41132497787475586,-0.03175326809287071
1772619357471224000,5.88922412109375,0.8993399143218994,0.43124088644981384,-0.022496655583381653
1772619357481255200,5.899255126953125,0.8763599395751953,0.4552359879016876,-0.02126871421933174
1772619357491286300,5.909286376953125,0.8617581129074097,0.47643396258354187,-0.022498294711112976
1772619357501317400,5.9193173828125,0.8548995852470398,0.47542306780815125,-0.01845363713800907
1772619357511348200,5.92934814453125,0.8564341068267822,0.4455682337284088,0.0024977168068289757
1772619357521379300,5.93937939453125,0.8728434443473816,0.3998860716819763,0.03679738566279411
1772619357531409200,5.9494091796875,0.8898354768753052,0.35097259283065796,0.06741628050804138
1772619357541440300,5.959440185546875,0.9016830921173096,0.314130961894989,0.0965331494808197
1772619357551471400,5.969471435546875,0.8843648433685303,0.28432831168174744,0.10877570509910583
1772619357561502200,5.979502197265625,0.8483078479766846,0.27699875831604004,0.11858789622783661
1772619357571533300,5.989533203125,0.8091074228286743,0.27510470151901245,0.1191634088754654
1772619357581564200,5.999564208984375,0.75697261095047,0.2659074068069458,0.11259393393993378
1772619357591595300,6.00959521484375,0.7051094174385071,0.2428087592124939,0.08959327638149261
1772619357601626000,6.019626220703125,0.6513821482658386,0.21976985037326813,0.06653735786676407
1772619357611657200,6.0296572265625,0.6002395749092102,0.2102953940629959,0.050452932715415955
1772619357621688000,6.03968798828125,0.553452730178833,0.2506800591945648,0.05985986441373825
1772619357631719200,6.04971923828125,0.5413255095481873,0.33981046080589294,0.09437896311283112
1772619357641749200,6.059749267578125,0.5549509525299072,0.45689132809638977,0.1456177979707718
1772619357651780000,6.069780029296875,0.5910719037055969,0.576775074005127,0.20546568930149078
1772619357661811200,6.079811279296875,0.6329261660575867,0.6722001433372498,0.2491689771413803
1772619357671842000,6.089842041015625,0.65614253282547,0.7161990404129028,0.27122896909713745
1772619357681873200,6.099873046875,0.6639955639839172,0.7172548770904541,0.25870081782341003
1772619357691904000,6.109904052734375,0.6757528781890869,0.716656506061554,0.24002672731876373
1772619357701935000,6.11993505859375,0.6826834082603455,0.730929970741272,0.22127874195575714
1772619357711966200,6.12996630859375,0.6849756240844727,0.7139883041381836,0.19127610325813293
1772619357721997300,6.139997314453125,0.6750785112380981,0.6345899701118469,0.1398424655199051
1772619357732028200,6.150028076171875,0.6493065357208252,0.4863666892051697,0.058561451733112335
1772619357742059300,6.160059326171875,0.5925010442733765,0.29099273681640625,-0.060910664498806
1772619357752089300,6.17008935546875,0.5133870840072632,0.12269587069749832,-0.20676426589488983
1772619357762120200,6.1801201171875,0.43155544996261597,0.013935614377260208,-0.32592129707336426
1772619357772151300,6.1901513671875,0.34850847721099854,-0.024483412504196167,-0.41337311267852783
1772619357782182100,6.20018212890625,0.28405219316482544,0.057938504964113235,-0.45658254623413086
1772619357792213200,6.210213134765625,0.25307032465934753,0.22151705622673035,-0.4591740667819977
1772619357802244000,6.220244140625,0.24353452026844025,0.3987516462802887,-0.4349417984485626
1772619357812275200,6.230275146484375,0.25782689452171326,0.5392371416091919,-0.4022879898548126
1772619357822306000,6.24030615234375,0.28321191668510437,0.6070579290390015,-0.38347721099853516
1772619357832337200,6.250337158203125,0.3252573609352112,0.6449587345123291,-0.3428719937801361
1772619357842368000,6.260367919921875,0.3900904655456543,0.6766812205314636,-0.2555396556854248
1772619357852399000,6.270399169921875,0.4681074917316437,0.6911882758140564,-0.1430077999830246
1772619357862429200,6.28042919921875,0.5502152442932129,0.6717655062675476,-0.025041019544005394
1772619357872460000,6.2904599609375,0.6070177555084229,0.6129235029220581,0.07414228469133377
1772619357882491100,6.3004912109375,0.6323832273483276,0.508435845375061,0.12176133692264557
1772619357892522000,6.31052197265625,0.6432286500930786,0.36751893162727356,0.1309146285057068
1772619357902553000,6.320552978515625,0.6328830718994141,0.21160666644573212,0.11088071763515472
1772619357912584200,6.330584228515625,0.6044274568557739,0.06814511120319366,0.05326109379529953
1772619357922615000,6.340614990234375,0.5665821433067322,-0.057712115347385406,-0.039698150008916855
1772619357932646400,6.350646484375,0.5184623003005981,-0.14865374565124512,-0.13789555430412292
1772619357942677200,6.36067724609375,0.47814199328422546,-0.20097972452640533,-0.2227945774793625
1772619357952708400,6.370708251953125,0.44009262323379517,-0.2230091243982315,-0.2858353555202484
1772619357962739200,6.3807392578125,0.4088647663593292,-0.19690638780593872,-0.3196861743927002
1772619357972769300,6.390769287109375,0.39892637729644775,-0.13720950484275818,-0.3284892439842224
1772619357982800100,6.400800048828125,0.41539689898490906,-0.06127603352069855,-0.3152714669704437
1772619357992831200,6.410831298828125,0.4410625994205475,0.013046931475400925,-0.2816197872161865
1772619358002862300,6.4208623046875,0.46895959973335266,0.068662628531456,-0.22970440983772278
1772619358012893200,6.43089306640625,0.49467694759368896,0.09844449162483215,-0.17955282330513
1772619358022924300,6.44092431640625,0.500726580619812,0.09131508320569992,-0.14779649674892426
1772619358032955100,6.450955078125,0.48919159173965454,0.0803801417350769,-0.140661358833313
1772619358042986200,6.460986328125,0.4675029516220093,0.0892629399895668,-0.14216159284114838
1772619358053017000,6.47101708984375,0.4442511796951294,0.12648648023605347,-0.1545543521642685
1772619358063048200,6.481048095703125,0.4239718019962311,0.14892379939556122,-0.16453993320465088
1772619358073079000,6.4910791015625,0.40315544605255127,0.15801210701465607,-0.18022434413433075
1772619358083109000,6.501109130859375,0.3931916356086731,0.15207968652248383,-0.18927636742591858
1772619358093140200,6.51114013671875,0.3927048146724701,0.1431431770324707,-0.18874479830265045
1772619358103171000,6.521171142578125,0.39716431498527527,0.1317777931690216,-0.17158664762973785
1772619358113202200,6.5312021484375,0.3979129493236542,0.11274365335702896,-0.15016470849514008
1772619358123233000,6.54123291015625,0.39580202102661133,0.09113357961177826,-0.12555964291095734
1772619358133264100,6.55126416015625,0.39552026987075806,0.07543397694826126,-0.10517927259206772
1772619358143295000,6.561294921875,0.3888329565525055,0.06629377603530884,-0.08524003624916077
1772619358153326300,6.571326416015625,0.37355145812034607,0.03911914676427841,-0.07737092673778534
1772619358163357200,6.581357177734375,0.3527461886405945,0.008839894086122513,-0.07459573447704315
1772619358173388300,6.59138818359375,0.32473719120025635,-0.008719924837350845,-0.06627389043569565
1772619358183419100,6.601419189453125,0.2957974970340729,-0.018824497237801552,-0.06897559016942978
1772619358193449200,6.61144921875,0.26411890983581543,-0.03085293062031269,-0.07505133002996445
1772619358203480300,6.621480224609375,0.22609683871269226,-0.03787099942564964,-0.08328177034854889
1772619358213511200,6.63151123046875,0.19203659892082214,-0.04602745920419693,-0.08442053943872452
1772619358223542300,6.641542236328125,0.16217046976089478,-0.05269951373338699,-0.08096462488174438
1772619358233573000,6.651572998046875,0.13135956227779388,-0.07728901505470276,-0.07633499056100845
1772619358243604200,6.661604248046875,0.10087642073631287,-0.12023420631885529,-0.07361862063407898
1772619358253635000,6.671635009765625,0.07346104085445404,-0.16205382347106934,-0.06050441786646843
1772619358263666200,6.681666259765625,0.04356962814927101,-0.20995135605335236,-0.03949713334441185
1772619358273697000,6.691697021484375,0.015385927632451057,-0.28305697441101074,-0.011068685911595821
1772619358283728100,6.70172802734375,-0.003558206371963024,-0.35611778497695923,0.026897745206952095
1772619358293758200,6.71175830078125,-0.01667667180299759,-0.41358962655067444,0.060590196400880814
1772619358303789000,6.7217890625,-0.014898654073476791,-0.44196927547454834,0.0839754045009613
1772619358313820200,6.731820068359375,-0.010433066636323929,-0.43925365805625916,0.08939600735902786
1772619358323851000,6.74185107421875,0.0006874934770166874,-0.4100424647331238,0.07619085907936096
1772619358333882000,6.751882080078125,0.014815296977758408,-0.36271676421165466,0.08605121821165085
1772619358343913000,6.761912841796875,0.02452257089316845,-0.29943251609802246,0.11213253438472748
1772619358353944000,6.771944091796875,0.03843039646744728,-0.22680678963661194,0.1656160056591034
1772619358363975200,6.78197509765625,0.04598063975572586,-0.14840371906757355,0.2170974314212799
1772619358374006300,6.79200634765625,0.05018390715122223,-0.07658198475837708,0.24194499850273132
1772619358384037400,6.802037353515625,0.06276915222406387,-0.041809070855379105,0.2225627303123474
1772619358394068200,6.812068115234375,0.06751224398612976,-0.03198546916246414,0.17316775023937225
1772619358404099300,6.822099365234375,0.0757249966263771,-0.04087546467781067,0.10354737192392349
1772619358414129200,6.832129150390625,0.07940495014190674,-0.07573997229337692,0.019987227395176888
1772619358424160300,6.84216015625,0.07080892473459244,-0.1500057727098465,-0.07998109608888626
1772619358434191000,6.852191162109375,0.05520147085189819,-0.20453639328479767,-0.20482343435287476
1772619358444222200,6.86222216796875,0.00001540081575512886,-0.2754770815372467,-0.34160998463630676
1772619358454253300,6.87225341796875,-0.09642139077186584,-0.3796982765197754,-0.48872804641723633
1772619358464284200,6.8822841796875,-0.19519558548927307,-0.5152121186256409,-0.5826277136802673
1772619358474315300,6.892315185546875,-0.2864898145198822,-0.7258763909339905,-0.5136523842811584
1772619358484346000,6.90234619140625,-0.3288666009902954,-0.8908349871635437,-0.46801120042800903
1772619358494377200,6.912377197265625,-0.30336445569992065,-0.7196600437164307,-0.33003681898117065
1772619358504408000,6.922407958984375,-0.25016260147094727,-0.409868985414505,-0.14029982686042786
1772619358514439200,6.932439208984375,-0.16104473173618317,-0.0393628366291523,0.0576755665242672
1772619358524469200,6.94246923828125,-0.030793149024248123,0.3185547888278961,0.2354709953069687
1772619358534500000,6.9525,0.08474782109260559,0.5466771721839905,0.44670411944389343
1772619358544531200,6.96253125,0.18908897042274475,0.566694974899292,0.6293590664863586
