time,seconds_elapsed,z,y,x
1772619006264576300,0.073576171875,0.18974691130816934,0.07138575869128108,0.04935838007200509
1772619006274606300,0.0836064453125,0.21216040316820142,0.04322334791570902,0.03365739146266132
1772619006284637200,0.09363720703125,0.20358254443705082,0.048461102438718075,0.025229864455014465
1772619006294668300,0.103668212890625,0.17348668138086795,0.06762056093886494,0.05838606492988765
1772619006304699100,0.11369921875,0.12359247739911079,0.08885843314826487,0.08630549726244062
1772619006314729200,0.123729248046875,0.03812076407968998,0.09608107787817716,0.08809475529938936
1772619006324760300,0.13376025390625,-0.02197860757410526,0.07492313903719186,0.04068586532734334
1772619006334791200,0.143791259765625,-0.1046083754658699,0.06497048482149839,-0.041258039192110296
1772619006344821200,0.1538212890625,-0.17530805158913135,0.06936112099587917,-0.06678820176795125
1772619006354852000,0.16385205078125,-0.20548574770987033,0.052470776471495624,-0.09685326782707124
1772619006364883200,0.17388330078125,-0.2150935340106487,0.036278643344342706,-0.09568371259104459
1772619006374913300,0.183913330078125,-0.2142231809169054,0.013160218085348604,-0.07744936957918107
1772619006384944000,0.193944091796875,-0.2152034241259098,-0.018933979181200263,-0.10232958034630864
1772619006394975200,0.203975341796875,-0.2352104393661022,-0.08839753763824701,-0.16373433551024644
1772619006405005300,0.21400537109375,-0.2123451120853424,-0.12241335061714052,-0.20059739114642142
1772619006415036200,0.2240361328125,-0.18755612326562404,-0.1830788317210972,-0.23977646864000707
1772619006425067300,0.2340673828125,-0.13187515257596968,-0.24856632615402338,-0.26129008905086665
1772619006435097300,0.244097412109375,-0.08939736233055591,-0.2665231308661401,-0.28032825925890353
1772619006445128200,0.254128173828125,-0.03278174113929271,-0.24500644171535968,-0.25753471857272087
1772619006455159300,0.2641591796875,0.006098901396989822,-0.2274286994487047,-0.22826792675182223
1772619006465189000,0.274189208984375,0.011480594435334205,-0.20708368442580102,-0.21538064385633915
1772619006475220200,0.28422021484375,0.009656886139512062,-0.17655702873691914,-0.17626126066073775
1772619006485251000,0.2942509765625,0.014662147080898283,-0.13217515843585131,-0.14941080926656722
1772619006495281200,0.30428125,0.046020577418804165,-0.07793941811844705,-0.14352693885974585
1772619006505312300,0.314312255859375,0.12019056000113487,-0.033689942025393244,-0.10300737001001835
1772619006515343000,0.324343017578125,0.22184709992408752,-0.011201777493953704,-0.06661686378903686
1772619006525374200,0.334374267578125,0.2550391754299402,0.06284662453532218,-0.0033808746099472046
1772619006535404300,0.344404296875,0.2458803019404411,0.1158797110646963,0.03181808373890817
1772619006545435100,0.35443505859375,0.15300328080058098,0.10212532647848128,0.033432825459167356
1772619006555466200,0.36446630859375,0.040299861684441565,0.12336392934024333,0.004719502802565694
1772619006565496300,0.374496337890625,0.03359013491272926,0.13454670987278222,0.014844006453827023
1772619006575527200,0.384527099609375,0.11248773053884506,0.10665960890725254,0.01955583740659058
1772619006585558300,0.394558349609375,0.1902817488372326,0.07997618464305996,0.07199110417328775
1772619006595588000,0.404588134765625,0.22299451639354229,0.09619754386469721,0.11077033216170966
1772619006605619200,0.414619140625,0.19190847325623034,0.09259162832722068,0.13196195407658814
1772619006615650300,0.424650390625,0.15554127484560012,0.10102803276106714,0.1485804228570312
1772619006625680100,0.43468017578125,0.12540332621335984,0.11276815491542219,0.1838368835467845
1772619006635711200,0.444711181640625,0.1059241342395544,0.09855915842950344,0.14809979973323642
1772619006645742000,0.4547421875,0.08596738788187504,0.071251610917598,0.12373758495822548
1772619006655772200,0.464772216796875,0.07981587951481342,0.08010492558926344,0.11564794813543558
1772619006665803300,0.47480322265625,0.12069266430437564,0.05927563418075442,0.13778371903263031
1772619006675834000,0.484834228515625,0.17770108420550823,0.02889569348618388,0.12521445257775485
1772619006685864200,0.4948642578125,0.17820201946496964,-0.009187515062093735,0.09863302738331257
1772619006695895300,0.504895263671875,0.16253391021192073,-0.04464928906559944,0.06607442747540772
1772619006705926100,0.514926025390625,0.15447686048448084,-0.0720353086411953,0.010050707762688398
1772619006715956200,0.524956298828125,0.15074410369694233,-0.10328618695139884,-0.030428236815705893
1772619006725987000,0.534987060546875,0.13704407964646814,-0.1002345442958176,-0.06971366076059639
1772619006736018200,0.54501806640625,0.11736907283961773,-0.08037877409458159,-0.11423497606497257
1772619006746049300,0.55504931640625,0.07261398531198501,-0.0694740798510611,-0.11981982699260114
1772619006756079000,0.5650791015625,0.062464347219467156,-0.02368044305592775,-0.08874057892225683
1772619006766110200,0.575110107421875,0.017367314386367797,-0.001085164888203144,-0.042528972443379456
1772619006776141000,0.58514111328125,-0.0744265876919031,0.02196881683245301,-0.023653335853293538
1772619006786171100,0.595171142578125,-0.15702654496729374,0.03629150282591581,-0.0520831288607791
1772619006796202200,0.6052021484375,-0.23283786501586437,0.008596417301148176,-0.057340026475675404
1772619006806233000,0.615233154296875,-0.25754268268346786,-0.023434797731786965,-0.07738664307389408
1772619006816263200,0.62526318359375,-0.2174421429634094,-0.03544263091161847,-0.13436722512003033
1772619006826294300,0.635294189453125,-0.15143442404866217,-0.06533946426436305,-0.09084580757319927
1772619006836325000,0.6453251953125,-0.06422901880443095,-0.06035729193761944,-0.05092588511705398
1772619006846355200,0.655355224609375,0.010800795477628708,-0.049492491313070056,0.026806612252444028
1772619006856386300,0.66538623046875,0.04273556439876556,-0.052258302764594554,0.07967168527115136
1772619006866417200,0.675417236328125,0.027969372421503064,-0.038295536124706264,0.10038889460731297
1772619006876447200,0.685447265625,0.016315759506821632,-0.008715659766644238,0.07501330153867602
1772619006886478000,0.69547802734375,-0.03740238667726516,-0.0684708941578865,0.021030330405943095
1772619006896509200,0.70550927734375,-0.09684709381461143,-0.08921879089325666,-0.017445128862932324
1772619006906539300,0.715539306640625,-0.16594927161335943,-0.05798939376249909,-0.0094174878930673
1772619006916570000,0.725570068359375,-0.21505261747837065,-0.03127557436004281,0.01845112756770104
1772619006926601200,0.735601318359375,-0.19743045154809952,-0.029885727436840533,0.0362434989657253
1772619006936632000,0.745632080078125,-0.14709610258340836,-0.007433949393033981,0.06143438311722129
1772619006946662100,0.755662109375,-0.08796177656948566,-0.014468085813522338,0.08066380158104001
1772619006956693200,0.765693359375,-0.01875438483059406,-0.015618863283842802,0.07156575490068644
1772619006966724000,0.77572412109375,0.057628597626090045,-0.02266381335929036,0.06627042497154324
1772619006976754200,0.785754150390625,0.08676993643641472,-0.07711246577501296,0.05223090330101549
1772619006986785300,0.795785400390625,0.07147709023654461,-0.10819485565051436,-0.008415800037235022
1772619006996816100,0.805816162109375,0.048179801279306406,-0.1133278346247971,-0.04026405971869826
1772619007006846200,0.81584619140625,0.06891162366271018,-0.09282499869167804,-0.02889204022437334
1772619007016877000,0.825876953125,0.12933482044339178,-0.101694095454365,-0.022414733969047664
1772619007026908200,0.835908203125,0.1763426553338766,-0.10899068220332264,-0.03377473423201591
1772619007036938200,0.845938232421875,0.19060966561734674,-0.09978665439784526,-0.04125584723502397
1772619007046969000,0.855968994140625,0.15723405023813247,-0.08502250824719666,-0.04828333471901715
1772619007057000200,0.866000244140625,0.10859423023164272,-0.04711100300401449,-0.02451294835731387
1772619007067030300,0.8760302734375,0.015575170272588729,-0.02614990190938115,-0.002817468573525548
1772619007077061000,0.88606103515625,-0.07485621128082275,0.0002672726340591907,-0.022240692576393484
1772619007087092200,0.89609228515625,-0.1583084014713764,0.0171047179274261,-0.05834171433150768
1772619007097122300,0.906122314453125,-0.21294483154416083,0.022628742045909166,-0.05981193301454186
1772619007107153200,0.916153076171875,-0.21458733805418012,0.03392375078126788,-0.051382067919336256
1772619007117184300,0.926184326171875,-0.16251988168656825,0.0324514862716198,-0.06153272892516106
1772619007127215000,0.936215087890625,-0.10491291137039661,0.014101882849633693,-0.07052804588340222
1772619007137245700,0.94624560546875,-0.053092123240232464,0.004390636174380779,-0.06494841912016272
1772619007147276500,0.956276611328125,-0.038652094477415085,-0.022053718636929988,-0.055388161755539476
1772619007157307600,0.9663076171875,-0.013120178335905074,-0.023740941071510313,-0.009385704515315592
1772619007167337700,0.976337646484375,0.03935995048582554,-0.05187967871055007,0.024423333845101296
1772619007177368600,0.98636865234375,0.05185936657488346,-0.06485679531395434,0.008279569904319942
1772619007187399700,0.996399658203125,0.03981880016922951,-0.08217574051395059,0.03040511166844517
1772619007197429800,1.0064296875,0.03661562021374702,-0.06671382135748863,0.04502046046555042
1772619007207460600,1.016460693359375,-0.01875087769925594,-0.04379983262941241,0.04399681650623679
1772619007217491700,1.02649169921875,-0.08086042013168335,-0.02762085124477744,0.016948942843824623
1772619007227521500,1.036521484375,-0.0970838251799345,-0.007719634466618299,0.013365019942447542
1772619007237552600,1.046552734375,-0.1113572652041912,0.004811784195899963,0.008293817625381053
1772619007247583700,1.056583740234375,-0.10586568205058575,0.024870529623329637,0.011652480403520167
1772619007257613600,1.066613525390625,-0.060030982592701905,0.03384644776135683,0.02009071146827191
1772619007267644700,1.076644775390625,-0.014369886136054992,0.0367876157797873,0.047099129903130234
1772619007277675500,1.086675537109375,0.028737434184551238,0.022808628657460212,0.060794441245868795
1772619007287705600,1.09670556640625,0.024189269360899924,0.014707447527348995,0.01066525946445763
1772619007297736700,1.10673681640625,-0.009992401704192161,0.009786503868550062,-0.0017011413620784878
1772619007307767600,1.116767578125,-0.034281039786338806,-0.0018681319594383238,-0.012609050475992261
1772619007317797600,1.126797607421875,0.02147942588031292,-0.002936784104257822,-0.011661248231865465
1772619007327828700,1.136828857421875,0.057415831658244126,-0.02258461064323783,0.02697108209915459
1772619007337859600,1.146859619140625,0.047023616981506346,-0.024752894593030213,0.004721073705144226
1772619007347889700,1.1568896484375,0.03936754927039146,-0.028678835865110157,-0.03556333468183875
1772619007357920800,1.166920654296875,0.02203004550039768,-0.06921367534920572,-0.04572068115677684
1772619007367951600,1.17695166015625,-0.022385434809327125,-0.07341419577896595,-0.06556918136700987
1772619007377982700,1.186982666015625,-0.08160627006292343,-0.045563481301069256,-0.06353994056172668
1772619007388012500,1.197012451171875,-0.10441197611093521,-0.019282792618870732,-0.07677333348114043
1772619007398043600,1.207043701171875,-0.09037409840822219,-0.039773353592306375,-0.06881346051786094
1772619007408074500,1.217074462890625,-0.051825464305281635,-0.042211248263716694,-0.08588705265466123
1772619007418104600,1.2271044921875,-0.026577041280269623,-0.06330956587195397,-0.10438121564649044
1772619007428135700,1.2371357421875,-0.04158697888553142,-0.0678133070319891,-0.118705545607768
1772619007438166500,1.24716650390625,-0.10404898801743984,-0.05849091354385018,-0.16423380946498364
1772619007448196600,1.257196533203125,-0.18381401412785053,-0.039974867513775825,-0.19834837011061607
1772619007458227700,1.267227783203125,-0.1882113723039627,-0.047056496337801214,-0.20401640580967068
1772619007468258600,1.277258544921875,-0.15481763674616814,-0.09021832332462072,-0.22486378086414185
1772619007478288600,1.28728857421875,-0.13256430388391016,-0.15216186154037714,-0.2433047523640096
1772619007488319700,1.29731982421875,-0.09543839606046677,-0.18531974251568317,-0.24373444901816546
1772619007498350600,1.3073505859375,-0.07424187877476215,-0.2042259569071233,-0.23638912775665522
1772619007508380700,1.317380615234375,-0.06337269423604011,-0.20529899296611545,-0.25110307809002697
1772619007518411500,1.32741162109375,-0.041245033580064774,-0.19181392684057355,-0.21338994496315716
1772619007528442600,1.337442626953125,-0.011499883657693862,-0.16624898521229622,-0.2169274714395404
1772619007538472700,1.34747265625,0.041001872473955155,-0.08880436487346888,-0.14558131410628555
1772619007548503600,1.357503662109375,0.054120881766080854,-0.057528936643898486,-0.06200652044937014
1772619007558534700,1.36753466796875,0.05345978750884533,-0.005426116701960563,0.009778101366385817
1772619007568564700,1.377564697265625,0.04074760545194149,0.030411651007086038,0.04975896022953093
1772619007578595600,1.387595703125,0.04950958857834339,0.027711890529096124,0.04127418660931289
1772619007588626700,1.397626708984375,0.07286123807132244,0.062319824182242155,0.019860884767770766
1772619007598657500,1.407657470703125,0.12713701813817024,0.08641936943307518,0.06091163788475096
1772619007608687600,1.4176875,0.16352467481493949,0.08630246505513786,0.08654518776983022
1772619007618718700,1.42771875,0.17828735966086387,0.08565919871553779,0.07442943723611534
1772619007628749600,1.43774951171875,0.15921265683472155,0.10406608528271317,0.05281096821129322
1772619007638779600,1.447779541015625,0.15705752462744713,0.11172492947280406,0.060592927324399345
1772619007648810800,1.457810791015625,0.17498539550602435,0.09594780688732862,0.09430625022538006
1772619007658841600,1.467841552734375,0.15954700335562227,0.0945692120105028,0.12809570710249243
1772619007668871700,1.47787158203125,0.11882862399816513,0.1086190724119544,0.18259966990202664
1772619007678902500,1.487902587890625,0.07514438057243823,0.10718611699938774,0.2327104392439127
1772619007688933600,1.49793359375,0.02977788314819336,0.09907602191045879,0.2515222533501685
1772619007698963700,1.507963623046875,0.0013186813831329346,0.11193871835395693,0.25150457156300543
1772619007708994600,1.51799462890625,0.004932195705175399,0.11348214840367436,0.24562187019996343
1772619007719025700,1.528025634765625,0.05006488437354564,0.060477118925005194,0.2146829804483801
1772619007729055700,1.5380556640625,0.0599094020396471,0.054643882726877924,0.16068375230059026
1772619007739086600,1.548086669921875,0.026887422403693198,0.05300502947866916,0.12371559232212602
1772619007749117700,1.55811767578125,-0.03620002515017986,0.04201528730019927,0.06038827159777283
1772619007759147500,1.5681474609375,-0.11126549526751041,0.031779432228952645,-0.006194909117370843
1772619007769178600,1.5781787109375,-0.17492402070760726,0.03149798493906855,-0.04105725592300295
1772619007779209700,1.588209716796875,-0.1781815611988306,0.029881343522667882,-0.05683123670332133
1772619007789239600,1.598239501953125,-0.1609136155337095,0.01628302628099918,-0.06119125854372978
1772619007799270700,1.608270751953125,-0.12212766554355621,-0.019340514155477283,-0.05954305294528603
1772619007809301500,1.618301513671875,-0.07619885806143284,-0.06088993750959634,-0.0681522566627711
1772619007819332600,1.62833251953125,-0.03215104202032089,-0.0836050426647067,-0.044218277237191794
1772619007829362700,1.63836279296875,-0.012298925080895423,-0.07444953017607331,-0.04586005309484899
1772619007839393500,1.6483935546875,0.023335282880067823,-0.09075140728801488,-0.07025229768194258
1772619007849424600,1.658424560546875,0.047158641538023946,-0.12465922984778881,-0.08398622400201856
1772619007859454700,1.668454833984375,0.044314358022809024,-0.10304258745387196,-0.09943053443655371
1772619007869485600,1.678485595703125,0.05337620087862015,-0.11204977751299738,-0.11575213916227221
1772619007879516700,1.6885166015625,0.04727086974084377,-0.1109988071553409,-0.14763495870046317
1772619007889546800,1.698546630859375,0.029250059881806373,-0.07228679918423295,-0.1653697181597352
1772619007899577600,1.70857763671875,0.014430676412582397,-0.03408887821510434,-0.15634879183620212
1772619007909608700,1.718608642578125,0.0018768997877836226,-0.0024257658421993253,-0.11576572929620742
1772619007919638500,1.728638427734375,0.016343816557526588,0.041019992652535434,-0.10764935059696436
1772619007929669600,1.738669677734375,0.025303368082642552,0.050309214523434634,-0.07264949501678347
1772619007939700500,1.748700439453125,0.006855272722244263,0.03914776903986931,-0.062084627186879515
1772619007949730600,1.75873046875,-0.013480828341841698,0.020539222420752047,-0.06376227807551622
1772619007959761700,1.76876171875,0.019306173494458196,0.027425182542204857,-0.058222398800775406
1772619007969792500,1.77879248046875,0.07374971134364605,0.016145517506450414,-0.03514635137878358
1772619007979822600,1.788822509765625,0.1293652155816555,-0.022531273020803926,-0.027967618855834004
1772619007989853700,1.798853759765625,0.13933891258537767,-0.058658525195717806,-0.0026166122391819953
1772619007999884500,1.808884521484375,0.09261281724572182,-0.06449760661274194,-0.019548677013441918
1772619008009914600,1.81891455078125,0.02255377711355686,-0.08265417168065906,-0.017738266590610147
1772619008019945700,1.82894580078125,-0.045668695241212844,-0.055960664413869377,0.0110451256275177
1772619008029976600,1.8389765625,-0.09438859474658966,-0.005901332998275757,0.05233882065489888
1772619008040007700,1.849007568359375,-0.09620411973595619,0.024270225642621514,0.053167672694474456
1772619008050037500,1.85903759765625,-0.07280453944802284,0.0020494798757135866,0.024248671397939323
1772619008060068600,1.869068603515625,-0.06499591152369975,-0.011656243263185024,-0.001351487674191594
1772619008070099700,1.879099609375,-0.06741700119078159,-0.0015589198797941208,-0.05487513419948518
1772619008080129500,1.889129638671875,-0.09833587106764316,-0.001177665477246046,-0.059784533550962804
1772619008090160600,1.89916064453125,-0.060705520853400224,0.02090966316834092,-0.03823394213058054
1772619008100191500,1.90919140625,-0.027442133677005768,0.03877089855149388,0.023162410531193018
1772619008110221600,1.9192216796875,-0.05254559527337551,0.07379705761671065,0.06904489465355873
1772619008120252700,1.929252685546875,-0.03899228621721267,0.08511164783537388,0.08232917750999331
1772619008130283500,1.939283447265625,-0.03866729204654693,0.05174947645962238,0.11330408842302858
1772619008140313600,1.949313720703125,-0.04778875613510608,0.04094678128585219,0.06629362318404018
1772619008150344700,1.9593447265625,-0.033840894803404804,0.013792963030934333,0.008123100700974464
1772619008160375600,1.96937548828125,0.006476502537727356,-0.024564824675023553,-0.027196342222392558
1772619008170405600,1.979405517578125,0.07173778699934483,-0.05342880784869194,-0.0544938797969371
1772619008180436700,1.989436767578125,0.08595277483463287,-0.07036196860149502,-0.06445588636286556
1772619008190467600,1.999467529296875,0.10352642544806002,-0.07095481992810965,-0.033558424600213764
1772619008200497700,2.00949755859375,0.11475859808027744,-0.05897767414748668,-0.00981288041882217
1772619008210528500,2.019528564453125,0.11271335598826408,-0.06610270372182131,0.00496244471296668
1772619008220559600,2.0295595703125,0.11891454871594904,-0.052647448212653394,0.02738580037988722
1772619008230589700,2.039589599609375,0.06555354540646076,-0.04508534239530563,-0.02038052472770214
1772619008240620500,2.04962060546875,0.0015898995399475098,-0.026135142731666564,-0.05028912158347666
1772619008250651600,2.059651611328125,-0.02803893052637577,0.014484744687378405,-0.026431276134029028
1772619008260682500,2.0696826171875,-0.036764088773727416,0.027712475050985813,-0.02692870426215231
1772619008270712600,2.079712646484375,-0.06943593979775906,0.045318858890235424,0.009826470552757382
1772619008280743700,2.08974365234375,-0.08537468268573284,0.024246114114671945,0.01268200611434877
1772619008290774500,2.0997744140625,-0.06321838045716285,0.006136749189347028,-0.021796748201176525
1772619008300804600,2.1098046875,-0.02140226899087429,-0.018202450036257506,0.008601458802446723
1772619008310835700,2.119835693359375,0.03270283068418502,-0.06055617551058531,0.02885828408524394
1772619008320866600,2.129866455078125,0.03245616244673729,-0.052173547090589995,0.0387858769249171
1772619008330896600,2.139896728515625,-0.004085808008909226,-0.06539250962585211,0.02254033311009407
1772619008340927500,2.149927490234375,-0.04892448216676712,-0.0772524587675929,0.008679054083302617
1772619008350958600,2.15995849609375,-0.10870119773745536,-0.0566676436394453,-0.022997867619246243
1772619008360988700,2.16998876953125,-0.12670622550547123,-0.0021342355497181416,0.0006125789403915405
1772619008371019500,2.18001953125,-0.09618892216682433,0.026816987515985963,0.046649888298287985
1772619008381050600,2.190050537109375,-0.06382102252542972,0.030813071414828298,0.0862628636971116
1772619008391080700,2.200080810546875,-0.04065934264659881,-0.0031843291245400905,0.06313662045784295
1772619008401111600,2.210111572265625,-0.02779226228892803,-0.002924655275046825,0.05369534983038902
1772619008411142700,2.220142578125,0.01094751047194004,0.0023464169956743716,0.05003711958378553
1772619008421172700,2.2301728515625,0.04700082062780857,-0.001732669011503458,0.057098509337380525
1772619008431203600,2.24020361328125,0.0811544346421957,-0.006420680697262287,0.07514986046515405
1772619008441234700,2.250234619140625,0.09524725740253925,0.00937178558781743,0.06125570208206772
1772619008451264500,2.260264404296875,0.08257599187791347,-0.0060902796991169445,0.03072181293480098
1772619008461295600,2.270295654296875,0.034491467666625975,0.00392462609782815,0.007600830392539501
1772619008471326500,2.280326416015625,0.014561609315872191,0.000559095187485218,0.010424874837324023
1772619008481356500,2.2903564453125,-0.018774258574843404,0.016005086122453212,0.012210150818899273
1772619008491387600,2.3003876953125,-0.023428806382417677,0.04224412762001156,0.053321401951462025
1772619008501418500,2.31041845703125,-0.03578209199905395,0.04782411970943212,0.05478467943705618
1772619008511449600,2.32044970703125,-0.052253334328532214,0.029396482615172862,0.04632328669242561
1772619008521479700,2.330479736328125,-0.06706453449130058,0.01654109269529581,0.04002820513620972
1772619008531510500,2.340510498046875,-0.020713117682933806,0.003570113571733236,0.013892916274070738
1772619008541541600,2.350541748046875,-0.015588029754161833,-0.03447890044599771,0.011948577273264527
1772619008551571700,2.36057177734375,0.015457681372761725,-0.03649535483494401,0.01126972816362977
1772619008561602600,2.3706025390625,-0.0037923780202865597,-0.03969488152861595,-0.03337210824787617
1772619008571633700,2.380633544921875,-0.024394436544179915,-0.06749255064502357,-0.07249941902160643
1772619008581663500,2.39066357421875,-0.01089607254564762,-0.08860109738633036,-0.10165741670578718
1772619008591694600,2.400694580078125,0.0039344168394804,-0.09194368581250309,-0.12983005661442876
1772619008601725700,2.4107255859375,0.004101005578041076,-0.11209931574314833,-0.13426255916915833
1772619008611755500,2.420755615234375,0.0020376433074474334,-0.10840893679261207,-0.13624591500610111
1772619008621786600,2.43078662109375,0.02894260136783123,-0.10437792771086096,-0.10287358756251633
1772619008631817500,2.4408173828125,0.010778583645820617,-0.0776325441263616,-0.08149922949187458
1772619008641847600,2.45084765625,-0.008783025914430618,-0.061295741831511256,-0.07294160983115434
1772619008651878700,2.460878662109375,-0.0424900652050972,-0.03465264957770705,-0.068953490043059
1772619008661909500,2.470909423828125,-0.0618961919426918,-0.014300181900709866,-0.05243015220016241
1772619008671939600,2.480939697265625,-0.09163666568994522,-0.02951616347208619,-0.04392484724856913
1772619008681970700,2.490970703125,-0.07961363494098186,-0.026294132685661314,-0.06599011019282043
1772619008692001500,2.50100146484375,-0.04989128137230873,-0.01875233900398016,-0.0631916385807097
1772619008702031600,2.511031494140625,-0.025949849292635916,-0.05452990095838904,-0.042744843683764334
1772619008712062700,2.521062744140625,0.004362871384620666,-0.04884498718976974,-0.03675130235739052
1772619008722093600,2.531093505859375,0.012049334233999252,-0.04474909617826342,-0.04139569409713149
1772619008732124700,2.541124755859375,0.001995557731389999,-0.020739713428914546,0.005224456650018691
1772619008742154500,2.551154541015625,-0.00854629454910755,0.0041638416811823845,0.02335281853675842
1772619008752185600,2.561185546875,-0.04444996710121631,-0.014958061287552117,0.021612039284035562
1772619008762216400,2.571216552734375,-0.07541326064169407,-0.02582403095588088,0.026761019545048472
1772619008772246500,2.58124658203125,-0.08289514082968234,-0.028060703966766593,0.009738646138831972
1772619008782277600,2.591277587890625,-0.07448679344654083,-0.030771862621605396,0.013762275631725787
1772619008792308500,2.60130859375,-0.03855214123427868,-0.012590893764793873,0.045125309079512954
1772619008802338600,2.611338623046875,-0.013630465945601463,-0.011597937204688788,0.07022314465269446
1772619008812369700,2.62136962890625,0.003894669350981712,-0.01858472735211253,0.048812400094419714
1772619008822400500,2.631400390625,0.007786416092514991,-0.04431640384942293,0.02774053210169077
1772619008832430600,2.6414306640625,0.012290741774439812,-0.04724032847210764,-0.016048121546581386
1772619008842461700,2.651461669921875,0.03201484842002392,-0.03479235030934214,-0.02118219649940729
1772619008852492500,2.661492431640625,0.07288228085935115,-0.03142681939899921,-0.007449658418819308
1772619008862522600,2.671522705078125,0.09526128592789172,-0.011682254487276077,0.031923297679051756
1772619008872553500,2.681553466796875,0.08858370786011219,0.020949118395894764,0.05641644535735249
1772619008882584600,2.69158447265625,0.08690613003671169,0.028210487700998783,0.0796706258252263
1772619008892614700,2.70161474609375,0.06702127987146377,0.045490562195330854,0.056111105735227464
1772619008902645500,2.7116455078125,0.013263386198878287,0.034558833814412354,0.02724025442935526
1772619008912676600,2.721676513671875,-0.02452010875046253,0.0067316463425755495,-0.002076514013111591
1772619008922706700,2.731706787109375,-0.022347440886497497,-0.007338233933597803,-0.01544299526028335
1772619008932737500,2.741737548828125,0.007339841368794441,-0.054610418848693366,-0.06360591847002506
1772619008942768600,2.7517685546875,0.010692074406147003,-0.07385916306748985,-0.08583426302149891
1772619008952799500,2.761799560546875,0.007768295913934707,-0.10294278034120798,-0.11234138087071478
1772619008962829600,2.77182958984375,-0.04298749333322048,-0.09514613511562346,-0.09904241190180182
1772619008972860700,2.781860595703125,-0.07299976975917816,-0.07598419239744543,-0.05410773002356291
1772619008982891500,2.7918916015625,-0.10103753124177456,-0.04040551401600241,0.00006860825680196285
1772619008992921600,2.801921630859375,-0.09574819266200064,-0.04478329070881009,0.017900544480234384
1772619009002952400,2.811952392578125,-0.08893442099392414,-0.033387890338897705,0.030478067306801675
1772619009012983600,2.821983642578125,-0.06900631620883942,-0.03731237030625343,0.013608254113793372
1772619009023013600,2.832013671875,-0.04371873021721839,-0.054050300747901195,-0.006471461036428809
1772619009033044500,2.84204443359375,-0.03680617434978485,-0.07730813447758556,-0.03941993704475462
1772619009043075600,2.85207568359375,-0.018611176967620848,-0.07895341746658087,-0.04835245443247258
1772619009053105700,2.862105712890625,-0.027523382219672203,-0.05204495227485895,-0.050273997079581016
1772619009063136500,2.872136474609375,-0.0549772063344717,-0.0289525382399559,-0.04414046276062727
1772619009073167600,2.882167724609375,-0.07506137846410274,-0.02323459898456931,-0.03385390041545033
1772619009083197700,2.89219775390625,-0.0639788434356451,0.0019949732095003126,-0.0078857117485255
1772619009093228500,2.902228515625,-0.03907528832554817,-0.010443944863975048,-0.005483765173330902
1772619009103259600,2.912259765625,-0.027767712369561194,-0.019501988327503203,0.010337561880052089
1772619009113290800,2.922290771484375,-0.003116670715808868,-0.028517800084501502,0.021328838428482412
1772619009123320600,2.932320556640625,0.035627778220176695,-0.009854892929643392,0.019799217708408832
1772619009133351400,2.942351318359375,0.1015367129355669,-0.0145056413449347,0.027628376964107155
1772619009143382300,2.95238232421875,0.1410550688534975,-0.04522197438701987,0.06253996973894536
1772619009153412000,2.962412109375,0.10835399173498153,-0.04512275179624557,0.03227481453046203
1772619009163443200,2.972443115234375,0.059093409481644626,-0.04259951692894101,0.006984378994628787
1772619009173474300,2.982474365234375,0.0022135843962430954,-0.02335281853675842,-0.018584873482584953
1772619009183504100,2.992504150390625,-0.05037760358452797,-0.02575491124242544,-0.026715207641944287
1772619009193535200,3.00253515625,-0.042706338304281236,0.009828881705552338,-0.021719152920320627
1772619009203566300,3.01256640625,-0.026321020692586898,-0.0011887713931500912,-0.01768807077333331
1772619009213596200,3.02259619140625,0.008681319105625153,-0.012380758145451545,0.011234583785012364
1772619009223627300,3.032627197265625,0.013636895686388015,0.011314005696773528,0.026975831339508295
1772619009233658400,3.042658447265625,-0.010798457390069962,0.03320610403120518,0.06609963498190045
1772619009243688200,3.052688232421875,-0.02294774486720562,0.012521189529448747,0.05616349350959062
1772619009253719000,3.062718994140625,-0.04071837935745716,0.00829582691937685,0.026556071557477114
1772619009263750400,3.07275048828125,-0.04892272860109806,0.025356705705076456,-0.01022752563431859
1772619009273780200,3.0827802734375,-0.005465279668569564,0.024515870966762304,-0.0025653204433619976
1772619009283811000,3.09281103515625,0.050318566873669625,-0.001724339574575424,-0.015238558729365467
1772619009293842400,3.102842529296875,0.06353694488704204,-0.02711070976555347,-0.024756620920076966
1772619009303872000,3.1128720703125,0.0479839864462614,-0.05014204126298427,-0.05861585509777069
1772619009313903000,3.122903076171875,0.010079495465755463,-0.04097629964128136,-0.05510338999740779
1772619009323934200,3.132934326171875,-0.036273090386390684,-0.042809214156866074,-0.047765521389991045
1772619009333965300,3.14296533203125,-0.0284819981187582,-0.03921162805631757,-0.05180938995331526
1772619009343995100,3.1529951171875,-0.013451602247357367,-0.04373801943957805,-0.047430371151492
1772619009354026200,3.163026123046875,0.03469780389368534,-0.05567775581926107,-0.04654072883538902
1772619009364057300,3.173057373046875,0.05106266323924064,-0.06089022977054119,-0.07267952482886612
1772619009374087200,3.183087158203125,0.06028934126794338,-0.059079819347709416,-0.1183680207490921
1772619009384118300,3.1931181640625,0.0544628270715475,-0.04682429501712322,-0.11084778131209314
1772619009394149400,3.2031494140625,0.04096563211679458,-0.05915829141139984,-0.12002411739304661
1772619009404179200,3.21317919921875,0.014021511089801788,-0.08036328426450491,-0.1407796129129827
1772619009414210300,3.223210205078125,-0.00523673160970211,-0.05038637141287326,-0.1375662038244307
1772619009424241400,3.233241455078125,0.01643207936286926,-0.06189516902938485,-0.13063194758184254
1772619009434271000,3.24327099609375,0.0524672693401575,-0.07533771118745207,-0.07586400008387863
1772619009444302300,3.25330224609375,0.07770867810249328,-0.07735854949057101,-0.04477423061951995
1772619009454333200,3.263333251953125,0.0937941359847784,-0.041335780603438614,-0.01018492860160768
1772619009464363000,3.273363037109375,0.06047697279453277,-0.039073973151296376,-0.009670476273447274
1772619009474394400,3.283394287109375,0.008989362141489982,-0.03722410750091076,0.0006329641412943601
1772619009484425200,3.29342529296875,-0.03167816381156444,-0.04378653475642204,-0.003322349355742335
1772619009494456300,3.303456298828125,-0.05353577535450458,-0.058461979710310696,-0.020291312074288723
1772619009504486400,3.313486328125,-0.04377133718729019,-0.07866510204449295,-0.012493424739688634
1772619009514517200,3.323517333984375,-0.05972703121006488,-0.04937120302096009,-0.012711305274069308
1772619009524548400,3.33354833984375,-0.07398118201196194,-0.02982522942125797,0.005128156668692827
1772619009534578400,3.343578369140625,-0.06748071407675743,-0.04814005379080772,0.012707505881786346
1772619009544609300,3.353609375,-0.0716688134163618,-0.046442163831740615,0.029674641969427464
1772619009554640400,3.363640380859375,-0.05200198991596698,-0.04277984193190932,0.01729899839051068
1772619009564670200,3.373670166015625,-0.052110126465559,-0.01547580155134201,0.011232903284579515
1772619009574701300,3.383701416015625,-0.03417933297753334,-0.0016974515676498412,0.02074701995253563
1772619009584732400,3.393732421875,-0.011453706428408622,-0.010548574282228947,0.026301073883101343
1772619009594762200,3.40376220703125,0.012805121037364005,-0.008326222057640551,-0.004316255763918161
1772619009604793300,3.41379345703125,0.031282442492246626,-0.023803192652761936,-0.010543825041875243
1772619009614824200,3.42382421875,0.058525838726758955,-0.03907967223972082,-0.03833689104840159
1772619009624854300,3.433854248046875,0.06867547681927681,-0.05874444991350174,-0.04326294927373528
1772619009634885400,3.443885498046875,0.08267769868671894,-0.0718976537361741,-0.06729943922571838
1772619009644916200,3.453916259765625,0.08627776900529861,-0.049074119770526885,-0.07609028312042355
1772619009654946300,3.4639462890625,0.10366495713591575,-0.04471767812669277,-0.0796206492036581
1772619009664977400,3.473977294921875,0.05991758534610271,-0.05495192576274276,-0.09255984494946896
1772619009675008300,3.48400830078125,0.01733399663865566,-0.03531242866069078,-0.07590002124533057
1772619009685038300,3.494038330078125,-0.014882511833310127,-0.01260842942148447,-0.040670960019156335
1772619009695069400,3.5040693359375,-0.009299743264913559,0.00555281182155013,-0.0012654898911714553
1772619009705100300,3.514100341796875,0.024808278042078018,0.0064919923678040505,-0.004435279033705592
1772619009715131400,3.52413134765625,0.04352057729661465,-0.025735622020065782,-0.03859437294080853
1772619009725161200,3.5341611328125,0.04827098669409752,-0.056285950845479965,-0.042157983706519006
1772619009735192300,3.5441923828125,0.06129296535253524,-0.0718200584553182,-0.05166939696073532
1772619009745223200,3.55422314453125,0.047045244291424745,-0.0769439773403108,-0.0597338993422687
1772619009755253200,3.564253173828125,0.003379705566167831,-0.058925797829777,-0.05356704727560281
1772619009765284400,3.574284423828125,-0.02145195335149765,-0.03212722275331616,-0.0318345234170556
1772619009775315200,3.584315185546875,-0.029139000722765922,-0.027478812425583598,0.0038830519784241913
1772619009785345300,3.59434521484375,-0.0463894107311964,-0.04612169970571994,0.0026226766537874938
1772619009795376400,3.60437646484375,-0.059581485259532926,-0.04825272038504481,-0.014488397949188946
1772619009805407200,3.6144072265625,-0.1020721349865198,-0.0487292518556118,0.010440145471692084
1772619009815437300,3.624437255859375,-0.08909107286036014,-0.034655133795738216,0.033384383207559584
1772619009825468400,3.634468505859375,-0.05881517706215381,-0.031553952910006046,0.07556983944289386
1772619009835499300,3.644499267578125,-0.06931026759147643,-0.02328969017267227,0.04519625542387366
1772619009845529300,3.654529296875,-0.0767366181999445,0.0042838147990405554,0.047740898405388
1772619009855560200,3.664560302734375,-0.08394026596844195,-0.02158405529856682,0.009247063229605555
1772619009865591300,3.67459130859375,-0.11327098987102507,-0.05029810860753059,-0.07624277026839554
1772619009875622400,3.684622314453125,-0.1110866315692663,-0.031691753945499654,-0.06556216710433363
1772619009885652200,3.69465234375,-0.09158405871987342,-0.03405263785794377,-0.05109115868136287
1772619009895683300,3.704683349609375,-0.04261749097704887,-0.002124152547121048,-0.022642259114608168
1772619009905714200,3.714714111328125,0.02244622508585453,0.01483311973363161,0.017048530760779976
1772619009915744300,3.724744140625,0.06515782408714293,0.017344664163142443,0.04727415767647326
1772619009925775400,3.734775390625,0.08036240748167038,0.008251987777650356,0.03859429987557232
1772619009935806200,3.74480615234375,0.10454466257989406,0.016053309178352355,0.02259272088445723
1772619009945836300,3.754836181640625,0.10791735388338565,-0.006598375351727009,-0.018274273163452745
1772619009955867400,3.764867431640625,0.1000245548069477,-0.018872604382783174,-0.035445188194885846
1772619009965898200,3.774898193359375,0.08564064014554024,0.0007398585818707942,-0.01800926555171609
1772619009975928300,3.78492822265625,0.10050970797538757,0.013245996672660111,-0.019415186826884746
1772619009985959200,3.794959228515625,0.145071318757534,0.00818652132600546,-0.027893165380135178
1772619009995990300,3.804990234375,0.16090367866158484,0.0017902444176375865,-0.029528365366533398
1772619010006020400,3.815020263671875,0.15876315950155256,0.015152853207290172,-0.0014569938752800225
1772619010016051200,3.82505126953125,0.1568839216262102,0.028129823680222033,-0.013612711093202232
1772619010026082300,3.835082275390625,0.11124912865459918,0.029193507388979197,-0.014098156522586941
1772619010036112400,3.8451123046875,0.06765022542476654,0.031479572499543425,-0.028006635691970583
1772619010046143200,3.855143310546875,-0.020095278045535087,0.030849165641516445,-0.03647906128726899
1772619010056174300,3.86517431640625,-0.07457154912054538,0.03639160219952464,-0.019386837515234946
1772619010066204400,3.875204345703125,-0.09937807359695434,0.022964257610589265,-0.02582870713099837
1772619010076235300,3.8852353515625,-0.08982172522246837,-0.015319734206795691,-0.02416406185440719
1772619010086266400,3.895266357421875,-0.08765256448984146,-0.030046032565087078,-0.02173069722764194
1772619010096297200,3.905297119140625,-0.0787315914094448,-0.04087532348483801,-0.00988660324215889
1772619010106327300,3.915327392578125,-0.08159925580024718,-0.05539879274740815,-0.003812909351661801
1772619010116358400,3.9253583984375,-0.0628109687000513,-0.055762511493265624,-0.027712109724804757
1772619010126389200,3.93538916015625,-0.03871814545094967,-0.0832120978243649,-0.0290085792761296
1772619010136419800,3.945419921875,-0.03702478553652763,-0.09844503053054213,-0.0312350231539458
1772619010146450700,3.95545068359375,-0.06836041952073574,-0.08940598402842878,-0.018419161526858806
1772619010156481800,3.965481689453125,-0.11759002211391925,-0.05959492926299571,-0.031723537323251366
1772619010166511900,3.975511962890625,-0.13440028713941574,-0.035070582728832955,-0.024048545715957877
1772619010176542700,3.985542724609375,-0.11012684662640095,-0.038020080184191465,-0.007296586748957634
1772619010186573800,3.99557373046875,-0.06533318065404892,-0.007922755823284387,0.0030430209577083584
1772619010196603600,4.005603759765625,-0.019120295533537862,0.0025622517034411428,-0.0039916269194334745
1772619010206634800,4.015634765625,0.017135259196162222,0.00718888859078288,0.00031074644960463047
1772619010216665900,4.025665771484375,0.02502864279448986,0.0029801848545670507,-0.0257877175334841
1772619010226695700,4.03569580078125,0.024954993036389348,-0.012466244471818207,-0.03135769968554377
1772619010236726800,4.045726806640625,0.03488134376704693,0.013038053010404109,-0.03322473566643894
1772619010246757600,4.055757568359375,0.03802782509922981,0.02752601256817579,-0.02446224108338356
1772619010256788700,4.065788818359375,0.053420040020346636,0.04246873015612364,-0.02774761942960322
1772619010266818800,4.07581884765625,0.0752893420010805,0.053566316623240705,-0.009197671129927039
1772619010276849700,4.085849609375,0.10045242483019828,0.032179829723387954,0.003005684622004628
1772619010286880800,4.095880859375,0.11024842717945575,0.010446429082006216,-0.00447772993594408
1772619010296910800,4.105910888671875,0.0959592050641775,-0.0044670624114573,-0.020072993148490786
1772619010306941700,4.115941650390625,0.03601999240815639,-0.017738047394901514,-0.028514950540289283
1772619010316972800,4.125972900390625,0.013317162212729453,-0.028969927766174075,-0.052323257759585975
1772619010327003000,4.1360029296875,0.006046294426918029,-0.038027532838284965,-0.08225874262228608
1772619010337033700,4.14603369140625,0.0045101709008216855,-0.0417198114849627,-0.10184205255769192
1772619010347064800,4.15606494140625,0.00573649782538414,-0.03308759221807122,-0.08105287396386265
1772619010357094700,4.1660947265625,-0.011872224101424217,-0.026226912668347358,-0.05722447380460798
1772619010367125800,4.176125732421875,-0.0490472317636013,-0.027124299899488686,-0.031007278812676665
1772619010377156600,4.186156494140625,-0.11338614068329333,0.027450316983461377,-0.026524215114489196
1772619010387186700,4.196186767578125,-0.15540391220152378,0.03514832414016127,0.0018188129249960183
1772619010397217800,4.2062177734375,-0.17213468225002287,0.017440818013995885,-0.016878727151826024
1772619010407248600,4.21624853515625,-0.1390326231151819,0.0022056933507323263,-0.024316183676198123
1772619010417279700,4.22627978515625,-0.07027589775323867,-0.028361732739955185,-0.030682284642010924
1772619010427309800,4.236309814453125,-0.0236935947984457,-0.03822568575888872,-0.015826222424209117
1772619010437340700,4.246340576171875,-0.009105097475647925,-0.05096490195319056,-0.026528014506772158
1772619010447371800,4.256371826171875,-0.05869301198720932,-0.059978960144519804,-0.0582493598729372
1772619010457401900,4.26640185546875,-0.0993798271626234,-0.04482113850116729,-0.048998497251048684
1772619010467432700,4.2764326171875,-0.11402268502116203,-0.041390141139179465,-0.025286490013077853
1772619010477463800,4.2864638671875,-0.10009060578048229,-0.006333586935698986,0.010344064686074851
1772619010487493600,4.29649365234375,-0.06930909854769707,0.005684329246729612,0.023322715659439563
1772619010497524700,4.306524658203125,-0.010475801306962967,-0.0009923720382153988,0.04839088674671948
1772619010507555800,4.316555908203125,0.01533025560081005,-0.013369330791383981,0.05220993357822299
1772619010517585700,4.326585693359375,0.024288053560256956,-0.028127631723135708,0.032581834653019906
1772619010527616800,4.33661669921875,0.02662497207522392,-0.014640665901452302,0.030133053261414168
1772619010537647600,4.346647705078125,0.023873627540469167,-0.017435118925571442,0.033454745030030604
1772619010547677700,4.356677734375,0.06113163731098175,0.0033760523043572903,0.03519866608791053
1772619010557708800,4.366708740234375,0.09154489575326442,-0.0028455986894667146,0.04636807568222284
1772619010567739600,4.37673974609375,0.08710077582597732,-0.012039835753291844,0.034282793352007866
1772619010577769700,4.386769775390625,0.040509705042839045,-0.003932809404283762,0.012615809010341763
1772619010587800800,4.39680078125,0.005942249530553817,0.008118424525856972,0.005192234880849719
1772619010597831700,4.406831787109375,-0.02184241397380829,0.014319909514486789,0.02804777141995728
1772619010607861800,4.41686181640625,-0.045859833899140355,0.03083089933246374,0.053247532997652884
1772619010617892900,4.426892822265625,-0.07958791597783565,0.03038973143622279,0.07476992123685777
1772619010627923700,4.436923828125,-0.12389701330363749,0.04069806722179055,0.08009783826135099
1772619010637954800,4.446954833984375,-0.12284487390220164,0.04454159090742468,0.08327076920904218
1772619010647984600,4.456984619140625,-0.07889876466989516,0.01284106913357973,0.09533435116410255
1772619010658015700,4.467015625,-0.02646247498989105,0.013758622369915246,0.08130589887686074
1772619010668046600,4.477046630859375,0.010321487528085708,0.013216332186758517,0.06572334901541471
1772619010678076700,4.48707666015625,0.05602525408267975,0.016493454161286353,0.04883826518803835
1772619010688107800,4.497107666015625,0.039024434921145434,0.010134878914803266,0.05763605028018355
1772619010698138600,4.507138671875,-0.04210018910467624,0.025345015267282722,0.021058643184974787
1772619010708168700,4.517168701171875,-0.020846388673782346,-0.003993453550338745,-0.004395677675679326
1772619010718199800,4.52719970703125,0.026870471268892287,-0.014323855037242173,-0.005782528924196958
1772619010728230700,4.537230712890625,0.022419921600818633,-0.014636428117752074,-0.012544789600744843
1772619010738260700,4.5472607421875,0.009909399595856665,-0.012262392462790012,-0.017401655047386885
1772619010748291800,4.557291748046875,-0.0006131634622812271,-0.04689969834089279,-0.0219768540084362
1772619010758322700,4.56732275390625,0.01480827755331993,-0.05759805635735392,-0.0359842635076493
1772619010768352800,4.577352783203125,-0.012905658802390097,-0.061723904115706676,-0.05622106891572475
1772619010778383600,4.587383544921875,-0.00769932233095169,-0.07717647092193365,-0.06301862010136246
1772619010788414700,4.597414794921875,0.01967033063173294,-0.08215396707355975,-0.0743900550737977
1772619010798445800,4.60744580078125,0.029975451546907422,-0.07523293563872575,-0.07184921148456633
1772619010808475600,4.6174755859375,0.04684767589271068,-0.05564020028784871,-0.10948811033144593
1772619010818506800,4.6275068359375,0.02223871981501579,-0.027276860112696883,-0.12272351254485547
1772619010828537600,4.63753759765625,0.06298924787640571,-0.019334376675635576,-0.14984576661773025
1772619010838567700,4.647567626953125,0.11571253780424594,-0.008528612761944531,-0.1465989667162299
1772619010848598800,4.657598876953125,0.1670756452947855,0.01927431705147028,-0.12734561938755212
1772619010858629600,4.667629638671875,0.17469196551740168,0.003642448155581951,-0.12633118164800106
1772619010868659700,4.67765966796875,0.19967793821394442,0.00883475610166788,-0.11891286821551621
1772619010878690800,4.68769091796875,0.21631518476009368,0.015018267042189835,-0.10013707527071238
1772619010888721700,4.6977216796875,0.18538930062055586,0.00323489026799798,-0.07810257279090582
1772619010898751700,4.707751708984375,0.11675883198678493,-0.003369038041681051,-0.05918766363635659
1772619010908782800,4.717782958984375,0.017957681494951246,0.012042319971323013,-0.050113180494681
1772619010918813700,4.727813720703125,-0.03420622098445892,0.023572744897753,-0.02911686195619404
1772619010928843800,4.73784375,-0.08749766618907451,0.019421616567671298,0.009644976506009697
1772619010938874600,4.74787451171875,-0.08664192614257335,-0.011146832436323166,0.010939107969775796
1772619010948905700,4.75790576171875,-0.10984043090045452,-0.028745032969117162,0.00782988990806043
1772619010958935800,4.767935791015625,-0.14761808063089846,-0.05180047599449753,0.00008614391349256038
1772619010968966700,4.777966552734375,-0.15488602580726146,-0.05462590867877006,0.016227496701478956
1772619010978997800,4.787997802734375,-0.16825637951195238,-0.050000440835207695,0.04011654100678861
1772619010989027800,4.79802783203125,-0.1723813504874706,-0.06665069299340248,0.04589424762539565
1772619010999058700,4.80805859375,-0.17968728958666325,-0.05257306780219078,0.05213401879779994
1772619011009089800,4.81808984375,-0.1441173790335655,-0.06221461024209857,0.06542838465683162
1772619011019120600,4.82812060546875,-0.1286415774822235,-0.059562634428590534,0.05710274712108075
1772619011029150700,4.838150634765625,-0.11618833862245082,-0.04824219899103045,0.0314584566462785
1772619011039181800,4.848181884765625,-0.0944388636291027,-0.057323331069201226,0.004107873710244894
1772619011049212700,4.858212646484375,-0.08309855444729328,-0.0416914621733129,-0.02878719161041081
1772619011059242800,4.86824267578125,-0.0659878451704979,-0.02291325807571411,-0.04112973663732409
1772619011069273600,4.878273681640625,0.0007405892342329024,0.0017865911558270454,-0.0217743171736598
1772619011079304700,4.8883046875,0.053386137750744814,0.009590250644087792,-0.024664485657215116
1772619011089334800,4.898334716796875,0.08265139520168303,0.0012865326792001724,-0.034971579333767294
1772619011099365600,4.90836572265625,0.10781915420591831,-0.009383476025611162,-0.0579888092406094
1772619011109396700,4.918396728515625,0.1284510233461857,-0.021304507704824206,-0.05929806520827114
1772619011119426800,4.9284267578125,0.13646014227867126,-0.030312282285839317,-0.06121726976782083
1772619011129457700,4.938457763671875,0.11743512381315231,-0.022115677957236766,-0.058291883840411896
1772619011139488500,4.948488525390625,0.10700433069169521,-0.02748874929770827,-0.08502433487810195
1772619011149518600,4.9585185546875,0.11170680929422377,-0.05695479001775384,-0.10511822468414903
1772619011159549400,4.968549560546875,0.06554360853433609,-0.04421659673675894,-0.11945647357292473
1772619011169580500,4.97858056640625,0.02540799750089645,-0.03906184432208538,-0.12404277844987809
1772619011179611400,4.988611328125,-0.0013905775755643844,-0.03528466387093067,-0.11715250747948884
1772619011189641500,4.998641357421875,-0.07150514728724956,-0.00862710470035672,-0.07926964380890131
1772619011199672600,5.008672607421875,-0.12788871328830717,0.022242519207298753,-0.04050283691063523
1772619011209703400,5.018703369140625,-0.09456570487916469,0.020128741923719645,0.005178060225024819
1772619011219733500,5.0287333984375,-0.09623100774288176,-0.01724938709512353,-0.026660116453841327
1772619011229764400,5.038764404296875,-0.06128887369930744,-0.06398702674210072,-0.012162658415362237
1772619011239795500,5.04879541015625,-0.0331570041924715,-0.05913724862337112,0.03305179025232792
1772619011249825500,5.058825439453125,-0.03337795346677303,-0.07191957330703735,0.05249598397798836
1772619011259856400,5.0688564453125,-0.07454992181062697,-0.036599253600835796,0.06623838586546481
1772619011269887500,5.078887451171875,-0.11670154884159564,-0.01660480558127165,0.09516125961951911
1772619011279917600,5.08891748046875,-0.11913374442458152,-0.021371873852610586,0.09961896968074142
1772619011289948400,5.098948486328125,-0.08106909444630146,-0.012787146989256143,0.07744498566500842
1772619011299979500,5.1089794921875,-0.06355564958751202,-0.029150252769142387,0.03280534121058881
1772619011310009600,5.119009521484375,-0.07494213599860668,-0.036673780141770834,0.0007074906822293997
1772619011320040400,5.12904052734375,-0.10147826074659824,0.011966185995191335,0.040730800447613
1772619011330071600,5.139071533203125,-0.07098550732731819,0.0309143398322165,0.06696231622584163
1772619011340102400,5.149102294921875,-0.07905190940499306,0.029433161363750696,0.10695647296197712
1772619011350132500,5.159132568359375,-0.07910919255018234,0.08860182803869247,0.12606712388433516
1772619011360163300,5.169163330078125,-0.06245557939112186,0.08746215648427605,0.1366204474069178
1772619011370194400,5.1791943359375,-0.014512509477138518,0.060770110522210596,0.11474025870598852
1772619011380224500,5.189224609375,0.043778935971856114,0.0581109743155539,0.1041723221361637
1772619011390255400,5.19925537109375,0.06987140860557556,0.040883945182710886,0.07546089917570352
1772619011400286500,5.209286376953125,0.06245148773789405,0.04193374649658799,0.0740815736465156
1772619011410316500,5.219316650390625,0.05821487308144569,0.06185045310482382,0.05179382705800235
1772619011420347400,5.229347412109375,0.03975158015191555,0.0510839982882142,0.009788330499455333
1772619011430378500,5.23937841796875,0.018012626552581786,0.04681669623255729,-0.004645341587811708
1772619011440408600,5.24940869140625,0.03871580736339092,0.011343524052202701,-0.006792509684339166
1772619011450439400,5.259439453125,0.07960837424397468,0.0020896657556295395,0.000033756139129400255
1772619011460470500,5.269470458984375,0.06587094079256058,-0.024319910003244877,0.014953750438615679
1772619011470500400,5.279500244140625,0.031084874093532562,-0.03376242273971438,0.019913126411661503
1772619011480531500,5.289531494140625,0.016315759506821632,-0.04690437451601028,-0.020657149711996316
1772619011490562600,5.2995625,-0.01792845540046692,-0.06648264295011759,-0.0484983657091856
1772619011500592400,5.30959228515625,-0.03315758871436119,-0.05137172918841242,-0.052124374186620116
1772619011510623500,5.31962353515625,-0.03196165692806244,-0.06107406190484762,-0.05924465452060103
1772619011520654300,5.329654296875,-0.07817512657046317,-0.0630202275365591,-0.07264452658072114
1772619011530685400,5.339685546875,-0.10081015222668648,-0.03991743823811412,-0.07653042810335754
1772619011540715500,5.349715576171875,-0.10389116710722446,-0.041130759550631044,-0.0972836586009711
1772619011550746400,5.359746337890625,-0.1254822366684675,-0.05171835066899657,-0.09907353769242763
1772619011560777500,5.369777587890625,-0.12597674218714236,-0.06802724204361438,-0.10373363845795393
1772619011570807600,5.3798076171875,-0.09605039047896861,-0.043798371324688196,-0.09875153919644654
1772619011580838400,5.38983837890625,-0.060332595887780185,-0.052621144727617496,-0.06363770184777677
1772619011590869500,5.399869384765625,-0.02239478715956211,-0.042410862489044666,-0.04117598693184554
1772619011600899600,5.409899658203125,-0.012404723542928695,-0.034065351209044456,-0.028353768629208204
1772619011610930400,5.419930419921875,0.012068038934469222,-0.025919746415317056,-0.01789754880554974
1772619011620961500,5.42996142578125,0.011708557972311974,-0.041912265317142004,-0.022284312522411344
1772619011630991400,5.439991455078125,0.007326981887221336,-0.028491642729938028,-0.027341157520562407
1772619011641022500,5.4500224609375,0.02197919209599495,-0.026008447612076997,-0.0350269627828151
1772619011651053300,5.46005322265625,0.05340776506066322,-0.026960926031321285,-0.019369155728071928
1772619011661083400,5.47008349609375,0.07059680027067661,-0.012358254052698612,-0.01461911165677011
1772619011671114500,5.480114501953125,0.06498246752023697,-0.012130582776665687,-0.015855010127276182
1772619011681145300,5.490145263671875,0.08338438565135002,-0.010866261929273605,-0.017469094260409473
1772619011691176700,5.5001767578125,0.08007774532139302,-0.005320464370399713,0.005197203316912055
1772619011701206500,5.51020654296875,0.06281447583138942,0.017152356461435557,0.009119272131472825
1772619011711237400,5.5202373046875,0.06298924787640571,0.05433028673306107,0.03154679251685738
1772619011721268700,5.530268798828125,0.09928981079161167,0.06151639884486794,0.043055590133368966
1772619011731298600,5.540298583984375,0.13597206650078295,0.058904901172220706,0.04358202516026795
1772619011741329400,5.550329345703125,0.15081599988937378,0.034733167468011375,0.029099472429975865
1772619011751360800,5.56036083984375,0.17955109598636626,0.05138283510431647,-0.003944353711605072
1772619011761390300,5.570390380859375,0.1900631376504898,0.027182605957984923,-0.009188830236345528
1772619011771421400,5.58042138671875,0.14065116422772406,0.020255875434726477,-0.02267543073184788
1772619011781452500,5.59045263671875,0.08410860827267169,0.03203048438057303,-0.026621757204830645
1772619011791482400,5.600482421875,-0.006586392652988433,0.04620864733681083,-0.034764147128164766
1772619011801513500,5.610513427734375,-0.031872809600830075,0.035305706658959386,-0.06385046781562269
1772619011811544600,5.620544677734375,-0.044909985828399654,0.018499241025745867,-0.05432298020943999
1772619011821574400,5.630574462890625,-0.06767068369090556,0.020342969196289775,-0.06314348859004676
1772619011831605500,5.64060546875,-0.0415139136493206,-0.013766805676370859,-0.05671805865243077
1772619011841636600,5.65063671875,-0.05858662900328636,-0.011838175701349972,-0.03652143912427127
1772619011851666400,5.66066650390625,-0.06436462788283824,-0.026844898436218498,-0.03203917914368212
1772619011861697500,5.670697509765625,-0.07407996621131896,-0.03191577195972204,-0.0235639770694077
1772619011871728600,5.680728759765625,-0.038194998359680175,-0.041163492776453495,-0.0016097002189606427
1772619011881758500,5.690758544921875,-0.02219604971706867,-0.06714987468719483,0.017442060123011468
1772619011891789300,5.700789306640625,-0.017220014870166778,-0.07243994391933083,0.029239611553028223
1772619011901820700,5.710820556640625,-0.03974631945490837,-0.0748309307090938,0.040416254605725406
1772619011911850500,5.7208505859375,-0.03413549383580684,-0.09010638738274573,0.013239932258054614
1772619011921881300,5.73088134765625,-0.028047698354721068,-0.09995850383341312,0.027523674480617044
1772619011931912700,5.74091259765625,-0.050181204229593275,-0.06652107526436447,0.02261588256433606
1772619011941943600,5.750943603515625,-0.04527238940000534,-0.023229630548506974,0.023579174638539552
1772619011951973400,5.760973388671875,-0.06882686798870563,-0.0007524258024990558,0.02995484715029597
1772619011962004700,5.771004638671875,-0.07842880907058715,0.011449907036125659,0.039916707585752005
1772619011972035600,5.78103564453125,-0.03679857556521892,0.010187778145819901,0.04008015451915562
1772619011982065400,5.7910654296875,-0.015372341176867484,-0.020000731629878282,0.04912782271914184
1772619011992096800,5.8010966796875,-0.017048165434598923,-0.027299071944504975,0.06032141690663993
1772619012002127600,5.811127685546875,-0.04787701894044876,-0.023299042522907255,0.069201984911412
1772619012012157400,5.821157470703125,-0.042270869496464726,-0.013201573009043932,0.06815393716320395
1772619012022188500,5.8311884765625,-0.023526421537995338,-0.001434124456346035,0.06414850091412663
1772619012032219600,5.8412197265625,0.004297404932975769,-0.011018091490119696,0.02978095188811421
1772619012042249500,5.85124951171875,0.028217209702730176,-0.020791005224734545,0.03123049310930073
1772619012052280300,5.8612802734375,0.033733342775702474,-0.047732203642278904,0.021500176407396793
1772619012062311700,5.871311767578125,0.020121581530570982,-0.06660144702419639,0.009864391410350799
1772619012072341500,5.881341552734375,0.0063946694731712335,-0.07680792987048625,-0.014575126384571193
1772619012082372400,5.891372314453125,-0.00025602058768272397,-0.06451908779218793,0.005990910977870225
1772619012092403700,5.90140380859375,-0.011047463715076446,-0.07478226926177739,-0.005445478989556432
1772619012102433500,5.91143359375,0.007053425642848015,-0.05864595797508955,-0.02565283910743892
1772619012112464400,5.92146435546875,0.05505260965824127,-0.045225189257413145,-0.03792626442089676
1772619012122495700,5.931495849609375,0.046428573697805404,-0.04498422010838985,-0.02881926724910736
1772619012132526600,5.941526611328125,0.017218261304497717,-0.05459551354050636,-0.02479344579912722
1772619012142556400,5.951556396484375,-0.02444528994858265,-0.0341068522632122,-0.011114464536681771
1772619012152587800,5.961587890625,-0.049584407380223273,-0.03132438193783164,-0.01695581097602844
1772619012162618600,5.97161865234375,-0.07279226448833942,-0.015501958905905484,-0.020572174842283127
1772619012172648400,5.9816484375,-0.06812193458974361,0.009375877241045235,0.006373626685142517
1772619012182679600,5.991679443359375,-0.037404140242934224,-0.002277735673636198,0.03730703654401004
1772619012192710700,6.001710693359375,0.012822656694054602,-0.01668868447244167,0.04248107818104326
1772619012202740500,6.011740478515625,0.00869885476231575,-0.05323927662596106,0.024705329124256967
1772619012212771600,6.021771484375,-0.02222059963643551,-0.03668035601302981,0.029325901596993206
1772619012222802700,6.031802734375,-0.02805120548605919,-0.02831424033641815,0.015237535816058516
1772619012232832500,6.04183251953125,-0.0067430445194244385,-0.028122955548018216,0.038101036465913056
1772619012242863600,6.051863525390625,-0.022566636595129964,-0.030596798315644262,0.045208968774974344
1772619012252894700,6.061894775390625,-0.056707975649833674,-0.03049552989825606,0.04077931576445699
1772619012262924500,6.071924560546875,-0.07166355271935462,-0.011070698460191488,0.05985716039575636
1772619012272955600,6.08195556640625,-0.043128363108634944,-0.02623509597480297,0.056488633810728786
1772619012282986800,6.09198681640625,-0.012317045259475707,-0.028593203408271074,0.05038585995621979
1772619012293017600,6.102017578125,0.005236147087812423,-0.011163637440651655,0.03648936348557472
1772619012303047700,6.112047607421875,0.013891747230291365,-0.021012977412343023,0.05057875217981636
1772619012313078500,6.12207861328125,0.02414016952216625,-0.030925153487175703,0.03821078045070171
1772619012323109600,6.132109619140625,0.05050853648781776,-0.044305736324936146,0.02447831543534994
1772619012333139700,6.1421396484375,0.041374212917685504,-0.03744198803529143,0.025967384949326513
1772619012343170600,6.152170654296875,0.014891279661655425,-0.026476357384771106,0.018964447384700177
1772619012353201700,6.16220166015625,-0.019522446593642235,-0.01570493413209915,0.008806552920490502
1772619012363231700,6.172231689453125,-0.05616203220486641,0.019442659355700016,0.023848200838267802
1772619012373262600,6.1822626953125,-0.04369359577596187,-0.013797639206051825,0.031177813073992727
1772619012383293700,6.192293701171875,-0.03897942673563957,-0.018718144473433493,0.02652633400633931
1772619012393323800,6.20232373046875,-0.0395312153995037,-0.006202215640991926,0.02577865744419396
1772619012403354600,6.212354736328125,0.00020516718327999114,-0.02101706906557083,0.01577865695543587
1772619012413385700,6.2223857421875,0.00697217710018158,-0.015742635793983936,0.012007833179831505
1772619012423415600,6.23241552734375,0.02938742252588272,-0.029684213515371084,0.004433598533272743
1772619012433446700,6.24244677734375,0.03523205690085888,-0.04856821607500315,0.013222981123253702
1772619012443477500,6.2524775390625,0.014670914909243583,-0.018868951120972633,0.00748005355708301
1772619012453508600,6.262508544921875,-0.006788052704930305,-0.029574469530582428,-0.0036500469401478763
1772619012463538700,6.27253857421875,-0.0470341383755207,-0.02734934082701802,-0.01287299864180386
1772619012473569500,6.282569580078125,-0.05869768816232681,-0.02083177562654018,0.0013669044390320778
1772619012483600600,6.2926005859375,-0.05498071346580982,-0.0016075813271105288,0.009464286176860333
1772619012493630700,6.302630615234375,-0.01657645626962185,0.020084318260103463,0.023429244773834942
1772619012503661600,6.31266162109375,0.021139818662405014,0.0058525254204869264,0.04197122896276414
1772619012513692700,6.322692626953125,0.031867548903822894,-0.019687427897006272,0.015517887127399444
1772619012523722800,6.33272265625,0.03483107488453388,-0.035752135252207516,0.01461918472200632
1772619012533753600,6.342753662109375,0.016087211447954178,-0.04421776578053832,-0.03438808035738766
1772619012543784700,6.35278466796875,0.006247369956970215,-0.06630845542699099,-0.04606500108242035
1772619012553814500,6.362814453125,0.03661503569185733,-0.0730013771943748,-0.023951442017033694
1772619012563845600,6.372845703125,0.006951134312152862,-0.018019640815258024,-0.07377557643726468
1772619012573876700,6.382876708984375,-0.005144961673021317,-0.03201119515821337,-0.03397175464145839
1772619012583906600,6.392906494140625,-0.028432898280024526,-0.01231806817278266,-0.01966441234759986
1772619012593937700,6.402937744140625,-0.04090484184026718,0.0037011926054954527,-0.0051425505202263595
1772619012603968500,6.412968505859375,-0.015166589471697807,0.005522416683286428,0.013594444784149527
1772619012613999600,6.42299951171875,0.01545709685087204,0.004124824845045805,0.05252944785617292
1772619012624029700,6.43302978515625,0.034931612649559976,0.013166940087080001,0.053791430616006254
1772619012634060500,6.443060546875,0.04338964439332485,0.022038959459215402,0.05984386252276599
1772619012644091600,6.453091552734375,0.05330021303296089,0.01387260413840413,0.030853841816633937
1772619012654121700,6.463121826171875,0.06266308466196059,-0.0002497369773685932,0.008039441005513072
1772619012664152600,6.473152587890625,0.0787578948944807,-0.009617430911958217,-0.02385251168720424
1772619012674183700,6.48318359375,0.10336743549406528,-0.014462532855570316,-0.05995572539940476
1772619012684213800,6.4932138671875,0.06686228991746902,-0.0012840484611690043,-0.05404277502857149
1772619012694244600,6.50324462890625,0.005827683240175247,0.004781535188108682,-0.04623261273428798
1772619012704275700,6.513275634765625,-0.03405716790258884,0.017717150737345217,-0.021015826956555246
1772619012714305500,6.523305419921875,-0.09061492142677306,0.030330694725364444,-0.022408523423969744
1772619012724336600,6.533336669921875,-0.06867664586305618,0.029990795246511697,-0.029889161502942442
1772619012734367500,6.543367431640625,-0.008158172014355659,-0.009067395813763141,0.007425327695161104
1772619012744397600,6.5533974609375,-0.003441664886474609,0.013556816187500953,-0.01514547361843288
1772619012754428700,6.5634287109375,-0.028953122761845588,0.01750789190083742,-0.05480696433410048
1772619012764459500,6.57345947265625,0.018668460112810134,0.019542174207419157,-0.030204730258136987
1772619012774490600,6.58349072265625,0.040941082197427744,-0.0064570671848952765,-0.046827984811551863
1772619012784520700,6.593520751953125,0.016123451805114746,-0.023838702357560394,-0.0468248430063948
1772619012794551600,6.603551513671875,0.016261983492970467,-0.042836978946626185,-0.061440739792771634
1772619012804582700,6.613582763671875,0.019042554122209548,-0.05207914680540562,-0.07545304466281086
1772619012814612700,6.62361279296875,-0.007205401334166526,-0.05089344415217638,-0.06697809831686317
1772619012824643600,6.6336435546875,-0.012377251014113426,-0.023267332210391758,-0.03705919926278293
1772619012834674700,6.6436748046875,-0.03344517348408699,0.007484364406019448,-0.04907116062846034
1772619012844704500,6.65370458984375,-0.009760346513986587,0.0244213245511055,-0.040571335569582874
1772619012854735600,6.663735595703125,0.039350013613700864,0.03258738761097193,-0.002904123943671584
1772619012864766700,6.6737666015625,0.06693886228501797,0.007888122901320457,-0.006782901605777442
1772619012874796500,6.683796630859375,0.07944529263675212,0.008455547525733709,0.00012658552173525094
1772619012884827600,6.69382763671875,0.08420096273124217,-0.004332622376829386,0.01822524638995528
1772619012894858500,6.7038583984375,0.0675865125387907,0.021592092474550007,0.014732508903369307
1772619012904888600,6.713888671875,0.04484568842053413,0.031084289571642873,-0.01407817318048328
1772619012914919700,6.723919677734375,0.06250409470796585,0.0146015029348433,-0.011997969372943043
1772619012924950500,6.733950439453125,0.13957915108203886,0.03167772542014718,-0.02205981958415359
1772619012934981600,6.743981689453125,0.16781915713846682,0.004659370113164186,-0.052470411145314574
1772619012945011700,6.75401171875,0.1632540411800146,-0.00005041501298546791,-0.05237831241507083
1772619012955042600,6.76404248046875,0.014779051458835601,0.0707702571414411,0.0011734642261639237
1772619012965073700,6.77407373046875,-0.19231062431633472,0.052902445887029165,0.050681189640983934
1772619012975103700,6.784103759765625,-0.36810207550823687,0.10639847375303506,-0.030453626985289153
1772619012985134600,6.794134521484375,-0.39369010575115676,0.03373670377656817,-0.05421221331134438
1772619012995165700,6.804165771484375,-0.3974544267207384,-0.008306348313391209,-0.01787782119177282
1772619013005195500,6.814195556640625,-0.42295185607075686,-0.01334346569776535,-0.0396614907156676
1772619013015226600,6.8242265625,-0.3169482268542051,-0.027703853353112935,-0.057504934713803225
1772619013025257500,6.834257568359375,-0.16393091752827166,-0.09217296452373265,0.011298333203606306
1772619013035287600,6.84428759765625,-0.03199906632900238,-0.12294088162258267,0.007193199439719319
1772619013045318700,6.854318603515625,0.11294833378791809,-0.1929736182697117,-0.08074384454730897
1772619013055349500,6.864349609375,0.13092238189578057,-0.13662819232195614,-0.11920001459382473
1772619013065379600,6.874379638671875,-0.019975451058149338,-0.15947393811941146,0.10299264736492186
