time,seconds_elapsed,z,y,x
1772619006264576300,0.073576171875,-0.02582593448460102,0.04622335359454155,0.007229547016322613
1772619006274606300,0.0836064453125,-0.023968646302819252,0.04393170401453972,-0.005219132639467716
1772619006284637200,0.09363720703125,-0.02195720747113228,0.029736144468188286,-0.006881874054670334
1772619006294668300,0.103668212890625,-0.012538406997919083,0.003289623651653528,0.001980859786272049
1772619006304699100,0.11369921875,-0.009545477107167244,-0.03506654128432274,0.025744402781128883
1772619006314729200,0.123729248046875,-0.008006967604160309,-0.06344278901815414,0.050301678478717804
1772619006324760300,0.13376025390625,-0.008099784143269062,-0.08358006924390793,0.07695513218641281
1772619006334791200,0.143791259765625,-0.017066914588212967,-0.0822913646697998,0.09467420727014542
1772619006344821200,0.1538212890625,-0.020519912242889404,-0.057157572358846664,0.10940960049629211
1772619006354852000,0.16385205078125,-0.02806304767727852,-0.027747219428420067,0.11764409393072128
1772619006364883200,0.17388330078125,-0.03172498941421509,0.004537404049187899,0.121195487678051
1772619006374913300,0.183913330078125,-0.03379106894135475,0.03814569488167763,0.1195395290851593
1772619006384944000,0.193944091796875,-0.04178475961089134,0.0901942178606987,0.10936232656240463
1772619006394975200,0.203975341796875,-0.053062714636325836,0.13965365290641785,0.10355876386165619
1772619006405005300,0.21400537109375,-0.06812610477209091,0.18366096913814545,0.09477407485246658
1772619006415036200,0.2240361328125,-0.08824202418327332,0.21792759001255035,0.08379892259836197
1772619006425067300,0.2340673828125,-0.10713455826044083,0.2318180948495865,0.07014740258455276
1772619006435097300,0.244097412109375,-0.12003118544816971,0.23955963551998138,0.06073446571826935
1772619006445128200,0.254128173828125,-0.12722426652908325,0.24320946633815765,0.05525123327970505
1772619006455159300,0.2641591796875,-0.13309653103351593,0.23336802423000336,0.049923043698072433
1772619006465189000,0.274189208984375,-0.13863946497440338,0.19985975325107574,0.05505109205842018
1772619006475220200,0.28422021484375,-0.14212314784526825,0.17166566848754883,0.06310129165649414
1772619006485251000,0.2942509765625,-0.14204232394695282,0.15022927522659302,0.07132318615913391
1772619006495281200,0.30428125,-0.13984815776348114,0.1402493417263031,0.06656225025653839
1772619006505312300,0.314312255859375,-0.12994131445884705,0.12591412663459778,0.04325585067272186
1772619006515343000,0.324343017578125,-0.11796481907367706,0.12117502093315125,0.011942935176193714
1772619006525374200,0.334374267578125,-0.10117104649543762,0.11523886024951935,-0.010404396802186966
1772619006535404300,0.344404296875,-0.08962252736091614,0.0996716171503067,-0.026242215186357498
1772619006545435100,0.35443505859375,-0.0800204798579216,0.09961114078760147,-0.0234740749001503
1772619006555466200,0.36446630859375,-0.07215536385774612,0.10552176088094711,-0.011474670842289925
1772619006565496300,0.374496337890625,-0.06743231415748596,0.10106582194566727,-0.003768929513171315
1772619006575527200,0.384527099609375,-0.06142821162939072,0.07499480247497559,-0.002242672024294734
1772619006585558300,0.394558349609375,-0.05438346415758133,0.04129758104681969,-0.007870422676205635
1772619006595588000,0.404588134765625,-0.047196391969919205,0.006993400398641825,-0.002260207664221525
1772619006605619200,0.414619140625,-0.03840705752372742,-0.02204010635614395,0.005271382629871368
1772619006615650300,0.424650390625,-0.02921275794506073,-0.04298720136284828,0.017148016020655632
1772619006625680100,0.43468017578125,-0.01993079110980034,-0.06563743948936462,0.024496594443917274
1772619006635711200,0.444711181640625,-0.017252717167139053,-0.079133540391922,0.029567254707217216
1772619006645742000,0.4547421875,-0.010912513360381126,-0.07108540087938309,0.027497217059135437
1772619006655772200,0.464772216796875,-0.0026500551030039787,-0.05442813038825989,0.014542803168296814
1772619006665803300,0.47480322265625,0.0073956032283604145,-0.04368620738387108,-0.002333766780793667
1772619006675834000,0.484834228515625,0.009228124283254147,-0.048181094229221344,-0.014607210643589497
1772619006685864200,0.4948642578125,0.00819126795977354,-0.06104480102658272,-0.011822749860584736
1772619006695895300,0.504895263671875,0.01008690521121025,-0.07381865382194519,-0.009018708020448685
1772619006705926100,0.514926025390625,0.0026465109549462795,-0.0930548757314682,-0.000816288695205003
1772619006715956200,0.524956298828125,-0.008605610579252243,-0.11393272131681442,0.0034330510534346104
1772619006725987000,0.534987060546875,-0.020149437710642815,-0.1173352599143982,0.003089306876063347
1772619006736018200,0.54501806640625,-0.02131590247154236,-0.10771885514259338,0.0005718210013583302
1772619006746049300,0.55504931640625,-0.0230800099670887,-0.09483996778726578,-0.013850286602973938
1772619006756079000,0.5650791015625,-0.011040923185646534,-0.0882081687450409,-0.023878686130046844
1772619006766110200,0.575110107421875,0.0012577320449054241,-0.07315923273563385,-0.02815144695341587
1772619006776141000,0.58514111328125,0.009355872869491577,-0.07257866114377975,-0.013254256919026375
1772619006786171100,0.595171142578125,0.013863627798855305,-0.0794045552611351,0.01315842755138874
1772619006796202200,0.6052021484375,0.012914477847516537,-0.08966784179210663,0.04879338666796684
1772619006806233000,0.615233154296875,0.004248118028044701,-0.09763743728399277,0.07187838107347488
1772619006816263200,0.62526318359375,0.002448353683575988,-0.10081645846366882,0.07968304306268692
1772619006826294300,0.635294189453125,-0.0028242082335054874,-0.09718963503837585,0.08056367188692093
1772619006836325000,0.6453251953125,-0.0022114147432148457,-0.09069738537073135,0.06532000005245209
1772619006846355200,0.655355224609375,0.002505189273506403,-0.08126871287822723,0.03416638821363449
1772619006856386300,0.66538623046875,0.008959626778960228,-0.06343644857406616,0.010453871451318264
1772619006866417200,0.675417236328125,0.014116212725639343,-0.0392875149846077,-0.001960915280506015
1772619006876447200,0.685447265625,0.012053861282765865,-0.03125036135315895,-0.012799713760614395
1772619006886478000,0.69547802734375,0.0055554998107254505,-0.032379474490880966,-0.014744581654667854
1772619006896509200,0.70550927734375,-0.002920010592788458,-0.027903497219085693,-0.010349834337830544
1772619006906539300,0.715539306640625,-0.005914357025176287,-0.020275523886084557,0.004069285932928324
1772619006916570000,0.725570068359375,-0.009993519634008408,-0.01788879930973053,0.02432182803750038
1772619006926601200,0.735601318359375,-0.007094372529536486,-0.011695717461407185,0.03357740119099617
1772619006936632000,0.745632080078125,-0.0044754198752343655,-0.0025935652665793896,0.03881290927529335
1772619006946662100,0.755662109375,0.002714975271373987,-0.0020672064274549484,0.03699478879570961
1772619006956693200,0.765693359375,0.004264934919774532,0.0036000008694827557,0.03355371579527855
1772619006966724000,0.77572412109375,0.004332347307354212,-0.008307820186018944,0.023593297228217125
1772619006976754200,0.785754150390625,-0.006145326886326075,-0.01905633881688118,0.01688000001013279
1772619006986785300,0.795785400390625,-0.01744338870048523,-0.011980635114014149,0.008566148579120636
1772619006996816100,0.805816162109375,-0.022751335054636,0.0013945582322776318,0.004955968353897333
1772619007006846200,0.81584619140625,-0.028147069737315178,0.01514516957104206,-0.0016974896425381303
1772619007016877000,0.825876953125,-0.031180942431092262,0.016067422926425934,-0.015404779464006424
1772619007026908200,0.835908203125,-0.028921784833073616,0.01255684345960617,-0.026141313835978508
1772619007036938200,0.845938232421875,-0.03345607966184616,-0.0026053315959870815,-0.02838156558573246
1772619007046969000,0.855968994140625,-0.029826881363987923,-0.02655845321714878,-0.025597527623176575
1772619007057000200,0.866000244140625,-0.0260771494358778,-0.05963145196437836,-0.016583262011408806
1772619007067030300,0.8760302734375,-0.021848302334547043,-0.08256569504737854,0.0023019977379590273
1772619007077061000,0.88606103515625,-0.020110055804252625,-0.09051310271024704,0.029402058571577072
1772619007087092200,0.89609228515625,-0.022769063711166382,-0.09133726358413696,0.05181717500090599
1772619007097122300,0.906122314453125,-0.019910160452127457,-0.07037046551704407,0.063514843583107
1772619007107153200,0.916153076171875,-0.019204633310437202,-0.03590735048055649,0.06564681977033615
1772619007117184300,0.926184326171875,-0.018328985199332237,0.004264036193490028,0.05054057016968727
1772619007127215000,0.936215087890625,-0.01741841435432434,0.04259265586733818,0.03091954067349434
1772619007137245700,0.94624560546875,-0.016964344307780266,0.071787029504776,0.01267076376825571
1772619007147276500,0.956276611328125,-0.015536585822701454,0.07935799658298492,0.004480821546167135
1772619007157307600,0.9663076171875,-0.012118950486183167,0.07065451890230179,-0.0027888088952749968
1772619007167337700,0.976337646484375,-0.010422802530229092,0.04638107120990753,-0.004148125182837248
1772619007177368600,0.98636865234375,-0.007573753595352173,0.015493994578719139,-0.001035422319546342
1772619007187399700,0.996399658203125,-0.009292899630963802,-0.0063689700327813625,0.00666362140327692
1772619007197429800,1.0064296875,-0.00927984993904829,-0.026010848581790924,0.00879974290728569
1772619007207460600,1.016460693359375,-0.007719980087131262,-0.027175774797797203,0.008562038652598858
1772619007217491700,1.02649169921875,-0.007733827922493219,-0.01337713748216629,0.01804875209927559
1772619007227521500,1.036521484375,-0.006187974940985441,-0.006051728501915932,0.025098171085119247
1772619007237552600,1.046552734375,-0.0064007616601884365,0.0012232284061610699,0.027835635468363762
1772619007247583700,1.056583740234375,-0.001483122818171978,0.010079985484480858,0.03301331773400307
1772619007257613600,1.066613525390625,0.006829934194684029,0.014600701630115509,0.030253220349550247
1772619007267644700,1.076644775390625,0.014855220913887024,0.014417622238397598,0.022138532251119614
1772619007277675500,1.086675537109375,0.01767018251121044,0.013384049758315086,0.01669955998659134
1772619007287705600,1.09670556640625,0.014979809522628784,0.005262854043394327,0.012623891234397888
1772619007297736700,1.10673681640625,0.01603042706847191,0.012456584721803665,0.017907338216900826
1772619007307767600,1.116767578125,0.01631121151149273,0.01832195371389389,0.021684540435671806
1772619007317797600,1.126797607421875,0.016710152849555016,0.007011243607848883,0.022035012021660805
1772619007327828700,1.136828857421875,0.0164438895881176,-0.0083865812048316,0.021301686763763428
1772619007337859600,1.146859619140625,0.01515145692974329,-0.004976136609911919,0.017086435109376907
1772619007347889700,1.1568896484375,0.013240886852145195,-0.007171183358877897,0.01808428205549717
1772619007357920800,1.166920654296875,0.010858956724405289,-0.015533508732914925,0.015055201947689056
1772619007367951600,1.17695166015625,0.006962447892874479,-0.007206474896520376,0.016064995899796486
1772619007377982700,1.186982666015625,0.005313685163855553,0.010765334591269493,0.02420175075531006
1772619007388012500,1.197012451171875,0.007549408823251724,0.02181159518659115,0.03047988750040531
1772619007398043600,1.207043701171875,0.002192992717027664,0.029132356867194176,0.03316781669855118
1772619007408074500,1.217074462890625,-0.00021885521709918976,0.03820433467626572,0.031574781984090805
1772619007418104600,1.2271044921875,-0.007838159799575806,0.04031595587730408,0.02637496218085289
1772619007428135700,1.2371357421875,-0.02356736734509468,0.05454099550843239,0.017646651715040207
1772619007438166500,1.24716650390625,-0.032794419676065445,0.08894823491573334,0.014737681485712528
1772619007448196600,1.257196533203125,-0.0446418896317482,0.1380804181098938,0.0031475992873311043
1772619007458227700,1.267227783203125,-0.05284362658858299,0.1851682960987091,-0.009398551657795906
1772619007468258600,1.277258544921875,-0.060459718108177185,0.2178269773721695,-0.025416363030672073
1772619007478288600,1.28728857421875,-0.0750703513622284,0.23069457709789276,-0.034937694668769836
1772619007488319700,1.29731982421875,-0.08697322756052017,0.23637427389621735,-0.03778146579861641
1772619007498350600,1.3073505859375,-0.10346511751413345,0.23245038092136383,-0.0372600220143795
1772619007508380700,1.317380615234375,-0.11271369457244873,0.2225395292043686,-0.03801702708005905
1772619007518411500,1.32741162109375,-0.12366940826177597,0.23686999082565308,-0.04779508709907532
1772619007528442600,1.337442626953125,-0.11899282038211823,0.2501675486564636,-0.052898891270160675
1772619007538472700,1.34747265625,-0.11194023489952087,0.23923152685165405,-0.05732826143503189
1772619007548503600,1.357503662109375,-0.09916256368160248,0.2021082043647766,-0.038949061185121536
1772619007558534700,1.36753466796875,-0.08457563072443008,0.15653379261493683,-0.011788012459874153
1772619007568564700,1.377564697265625,-0.07882949709892273,0.10181853175163269,0.01773810386657715
1772619007578595600,1.387595703125,-0.07113801687955856,0.06701288372278214,0.04569117724895477
1772619007588626700,1.397626708984375,-0.06544730067253113,0.04583170637488365,0.059677187353372574
1772619007598657500,1.407657470703125,-0.05915238708257675,0.027031389996409416,0.06117654964327812
1772619007608687600,1.4176875,-0.05465518310666084,0.01584450528025627,0.055512648075819016
1772619007618718700,1.42771875,-0.051958996802568436,0.025421764701604843,0.04231295734643936
1772619007628749600,1.43774951171875,-0.051482293754816055,0.042584504932165146,0.029104208573698997
1772619007638779600,1.447779541015625,-0.051589883863925934,0.05533092841506004,0.01058964617550373
1772619007648810800,1.457810791015625,-0.0492979921400547,0.057626139372587204,-0.00874386541545391
1772619007658841600,1.467841552734375,-0.03803734853863716,0.051443345844745636,-0.017412986606359482
1772619007668871700,1.47787158203125,-0.025193415582180023,0.033004552125930786,-0.012778210453689098
1772619007678902500,1.487902587890625,-0.012797997333109379,0.0036567854695022106,-0.004102164413779974
1772619007688933600,1.49793359375,0.00476006930693984,-0.022579364478588104,0.01307358406484127
1772619007698963700,1.507963623046875,0.022269021719694138,-0.04767193645238876,0.03521537408232689
1772619007708994600,1.51799462890625,0.03279750794172287,-0.07415594905614853,0.03997725248336792
1772619007719025700,1.528025634765625,0.04214200749993324,-0.08788933604955673,0.04354988411068916
1772619007729055700,1.5380556640625,0.05048022419214249,-0.09318239241838455,0.03589857369661331
1772619007739086600,1.548086669921875,0.04870469495654106,-0.08865368366241455,0.02980978786945343
1772619007749117700,1.55811767578125,0.0433255173265934,-0.06979449093341827,0.028287306427955627
1772619007759147500,1.5681474609375,0.03893077000975609,-0.04653603956103325,0.027866793796420097
1772619007769178600,1.5781787109375,0.0381348617374897,-0.023647086694836617,0.03317230939865112
1772619007779209700,1.588209716796875,0.03602243959903717,0.004423963371664286,0.03237895295023918
1772619007789239600,1.598239501953125,0.034646615386009216,0.02486305497586727,0.027746574953198433
1772619007799270700,1.608270751953125,0.030973847955465317,0.033421121537685394,0.018020976334810257
1772619007809301500,1.618301513671875,0.028297724202275276,0.04138514772057533,0.011572540737688541
1772619007819332600,1.62833251953125,0.03391432762145996,0.05152220278978348,0.004127673339098692
1772619007829362700,1.63836279296875,0.03239484876394272,0.0530579537153244,0.004652492236346006
1772619007839393500,1.6483935546875,0.03130854293704033,0.044529180973768234,-0.0006021909648552537
1772619007849424600,1.658424560546875,0.029569242149591446,0.03336605429649353,-0.0022236912045627832
1772619007859454700,1.668454833984375,0.026678912341594696,0.0277145616710186,-0.004496699199080467
1772619007869485600,1.678485595703125,0.014466064050793648,0.029106374830007553,-0.009240861982107162
1772619007879516700,1.6885166015625,0.006154870614409447,0.033523496240377426,-0.015884118154644966
1772619007889546800,1.698546630859375,-0.003118608146905899,0.045699626207351685,-0.02208702825009823
1772619007899577600,1.70857763671875,-0.006037166342139244,0.06905954331159592,-0.02486257441341877
1772619007909608700,1.718608642578125,-0.005527831148356199,0.08657094091176987,-0.02560214139521122
1772619007919638500,1.728638427734375,-0.003001290839165449,0.086048424243927,-0.025698015466332436
1772619007929669600,1.738669677734375,-0.0029248041100800037,0.07453605532646179,-0.02229917235672474
1772619007939700500,1.748700439453125,-0.01058405451476574,0.06700170785188675,-0.014911828562617302
1772619007949730600,1.75873046875,-0.011570880189538002,0.06797434389591217,-0.014415424317121506
1772619007959761700,1.76876171875,-0.01282229833304882,0.08370617032051086,-0.02448057383298874
1772619007969792500,1.77879248046875,-0.010306341573596,0.091559037566185,-0.04010438174009323
1772619007979822600,1.788822509765625,-0.009172899648547173,0.08647000789642334,-0.048007313162088394
1772619007989853700,1.798853759765625,-0.010153422132134438,0.06962306052446365,-0.055607590824365616
1772619007999884500,1.808884521484375,-0.013335367664694786,0.04630814865231514,-0.05058833211660385
1772619008009914600,1.81891455078125,-0.011827503331005573,0.021877039223909378,-0.03643367066979408
1772619008019945700,1.82894580078125,-0.00732729397714138,-0.00029271142557263374,-0.018505537882447243
1772619008029976600,1.8389765625,0.0019067770335823298,-0.011226506903767586,0.0021951422095298767
1772619008040007700,1.849007568359375,0.00879371166229248,-0.030793815851211548,0.015135975554585457
1772619008050037500,1.85903759765625,0.0034939651377499104,-0.039533186703920364,0.023685136809945107
1772619008060068600,1.869068603515625,-0.002567123156040907,-0.03386331722140312,0.023839866742491722
1772619008070099700,1.879099609375,-0.00618082145228982,-0.009120459668338299,0.015932302922010422
1772619008080129500,1.889129638671875,-0.012714089825749397,0.013117467984557152,0.008347884751856327
1772619008090160600,1.89916064453125,-0.007825393229722977,0.02138587273657322,0.00005090667400509119
1772619008100191500,1.90919140625,0.0005593029782176018,0.0209770780056715,-0.007231507450342178
1772619008110221600,1.9192216796875,0.011654848232865334,0.011770598590373993,0.0037285052239894867
1772619008120252700,1.929252685546875,0.020805735141038895,-0.012967238202691078,0.019612129777669907
1772619008130283500,1.939283447265625,0.025954360142350197,-0.03311195969581604,0.0324881449341774
1772619008140313600,1.949313720703125,0.02255137264728546,-0.03734185919165611,0.04150986671447754
1772619008150344700,1.9593447265625,0.018398117274045944,-0.025010298937559128,0.041917748749256134
1772619008160375600,1.96937548828125,0.013387379236519337,-0.00229113781824708,0.021879326552152634
1772619008170405600,1.979405517578125,0.002755416091531515,0.024376876652240753,-0.0020032988395541906
1772619008180436700,1.989436767578125,-0.0013562384992837906,0.04673438146710396,-0.026009032502770424
1772619008190467600,1.999467529296875,-0.0025654854252934456,0.052022192627191544,-0.039078354835510254
1772619008200497700,2.00949755859375,-0.00032523414120078087,0.032898299396038055,-0.044274184852838516
1772619008210528500,2.019528564453125,0.000058362726122140884,0.00032639363780617714,-0.038796890527009964
1772619008220559600,2.0295595703125,-0.002747544087469578,-0.026066863909363747,-0.03160875290632248
1772619008230589700,2.039589599609375,-0.004576192703098059,-0.033542338758707047,-0.03267476707696915
1772619008240620500,2.04962060546875,-0.004939181264489889,-0.012780332937836647,-0.02999775856733322
1772619008250651600,2.059651611328125,-0.001733323559165001,0.007176656741648912,-0.028138456866145134
1772619008260682500,2.0696826171875,0.0011322374921292067,0.018956616520881653,-0.02318737469613552
1772619008270712600,2.079712646484375,0.0018060535658150911,0.028927896171808243,-0.02377478964626789
1772619008280743700,2.08974365234375,0.004607698880136013,0.05519412085413933,-0.022791285067796707
1772619008290774500,2.0997744140625,0.006419423036277294,0.07114314287900925,-0.023013530299067497
1772619008300804600,2.1098046875,0.00955316424369812,0.06389002501964569,-0.028609896078705788
1772619008310835700,2.119835693359375,0.011934817768633366,0.04221107438206673,-0.027826867997646332
1772619008320866600,2.129866455078125,0.012368647381663322,0.023679999634623528,-0.022114653140306473
1772619008330896600,2.139896728515625,0.007701669819653034,-0.00868773553520441,-0.011184625327587128
1772619008340927500,2.149927490234375,0.0024043761659413576,-0.016765635460615158,0.004340006038546562
1772619008350958600,2.15995849609375,-0.0028335927054286003,-0.010245723649859428,0.015643687918782234
1772619008360988700,2.16998876953125,0.005656564608216286,-0.005837392993271351,0.024555956944823265
1772619008371019500,2.18001953125,0.009955290704965591,-0.0004580938257277012,0.025165775790810585
1772619008381050600,2.190050537109375,0.013728190213441849,0.0054543898440897465,0.025471772998571396
1772619008391080700,2.200080810546875,0.015098776668310165,0.005963899660855532,0.017077194526791573
1772619008401111600,2.210111572265625,0.022005151957273483,0.020066402852535248,0.014513636007905006
1772619008411142700,2.220142578125,0.023598548024892807,0.019027208909392357,0.012026850134134293
1772619008421172700,2.2301728515625,0.026665441691875458,0.004175826441496611,0.007420912850648165
1772619008431203600,2.24020361328125,0.03294909745454788,-0.012125925160944462,0.008293742313981056
1772619008441234700,2.250234619140625,0.028759144246578217,-0.023007335141301155,0.0034928619861602783
1772619008451264500,2.260264404296875,0.026001956313848495,-0.02554619498550892,0.00019476423040032387
1772619008461295600,2.270295654296875,0.026720743626356125,-0.01892664283514023,-0.0034684138372540474
1772619008471326500,2.280326416015625,0.025773117318749428,-0.013533218763768673,-0.008045478723943233
1772619008481356500,2.2903564453125,0.030203819274902344,-0.007790911011397839,-0.011032214388251305
1772619008491387600,2.3003876953125,0.03679296001791954,0.0008292673155665398,-0.011009694077074528
1772619008501418500,2.31041845703125,0.040186360478401184,0.00760115310549736,-0.013821992091834545
1772619008511449600,2.32044970703125,0.04804983735084534,0.01447303593158722,-0.007833953946828842
1772619008521479700,2.330479736328125,0.051833655685186386,0.0179617777466774,-0.005764944013208151
1772619008531510500,2.340510498046875,0.055932529270648956,0.0013138246722519398,-0.0013094755122438073
1772619008541541600,2.350541748046875,0.05614211782813072,-0.012015029788017273,0.00045273813884705305
1772619008551571700,2.36057177734375,0.0549493283033371,-0.01719447411596775,0.005230528302490711
1772619008561602600,2.3706025390625,0.04870714247226715,-0.02014525607228279,0.007352534681558609
1772619008571633700,2.380633544921875,0.04157022759318352,-0.014818055555224419,0.00247488496825099
1772619008581663500,2.39066357421875,0.03395198658108711,-0.004708962514996529,0.0013369161169975996
1772619008591694600,2.400694580078125,0.025615055114030838,0.006068130023777485,-0.002820083871483803
1772619008601725700,2.4107255859375,0.012961311265826225,0.00938056968152523,-0.004708264954388142
1772619008611755500,2.420755615234375,0.00607641413807869,0.012097181752324104,-0.0070507097989320755
1772619008621786600,2.43078662109375,0.004489170387387276,0.0025151283480226994,-0.013462269678711891
1772619008631817500,2.4408173828125,-0.0009571691043674946,0.0020052390173077583,-0.01334468461573124
1772619008641847600,2.45084765625,0.002086823806166649,0.00745992548763752,-0.009455670602619648
1772619008651878700,2.460878662109375,0.004792752675712109,0.010566594079136848,-0.008708300068974495
1772619008661909500,2.470909423828125,0.010622145608067513,0.010366590693593025,-0.0029854332096874714
1772619008671939600,2.480939697265625,0.011543279513716698,0.009067825973033905,0.0027378485538065434
1772619008681970700,2.490970703125,0.00551201868802309,0.0069716512225568295,0.011597652919590473
1772619008692001500,2.50100146484375,0.00687506003305316,0.0029251165688037872,0.01541697047650814
1772619008702031600,2.511031494140625,0.008492397144436836,0.000628939364105463,0.011576691642403603
1772619008712062700,2.521062744140625,0.004606349393725395,0.007788986433297396,0.005587587598711252
1772619008722093600,2.531093505859375,0.005740589462220669,0.011520074680447578,-0.0035182929132133722
1772619008732124700,2.541124755859375,0.00883532501757145,0.008837521076202393,-0.005469865631312132
1772619008742154500,2.551154541015625,0.00895889662206173,-0.0014422810636460781,-0.003280747216194868
1772619008752185600,2.561185546875,0.009240211918950081,-0.004858603235334158,0.004327843897044659
1772619008762216400,2.571216552734375,0.01188366673886776,-0.0034676343202590942,0.015503798611462116
1772619008772246500,2.58124658203125,0.00879752542823553,-0.0015801633708178997,0.01701018214225769
1772619008782277600,2.591277587890625,0.011366676539182663,0.0036300448700785637,0.02267259545624256
1772619008792308500,2.60130859375,0.014743697829544544,0.0032830131240189075,0.016727037727832794
1772619008802338600,2.611338623046875,0.019119802862405777,0.003381017129868269,0.018001358956098557
1772619008812369700,2.62136962890625,0.013532429933547974,0.007237306796014309,0.019335545599460602
1772619008822400500,2.631400390625,0.007707564160227776,0.0075832512229681015,0.017839647829532623
1772619008832430600,2.6414306640625,0.003600721713155508,0.016609041020274162,0.014404475688934326
1772619008842461700,2.651461669921875,0.00018069008365273476,0.01720425672829151,0.011155152693390846
1772619008852492500,2.661492431640625,0.0004031192511320114,0.013551140204071999,0.004174059256911278
1772619008862522600,2.671522705078125,0.008295929990708828,0.005597608629614115,-0.003419944318011403
1772619008872553500,2.681553466796875,0.017745167016983032,-0.0007409709505736828,-0.005291725043207407
1772619008882584600,2.69158447265625,0.023653654381632805,-0.013470347970724106,-0.001082332688383758
1772619008892614700,2.70161474609375,0.030100103467702866,-0.028085509315133095,0.0033933757804334164
1772619008902645500,2.7116455078125,0.03397021070122719,-0.04004230350255966,0.01756219193339348
1772619008912676600,2.721676513671875,0.03345328941941261,-0.042889486998319626,0.024085603654384613
1772619008922706700,2.731706787109375,0.03234807774424553,-0.03601480647921562,0.02882177010178566
1772619008932737500,2.741737548828125,0.023892907425761223,-0.027709029614925385,0.02073260024189949
1772619008942768600,2.7517685546875,0.01181573886424303,-0.018362397328019142,0.007557676639407873
1772619008952799500,2.761799560546875,0.007227257359772921,-0.007036192342638969,-0.0037892633117735386
1772619008962829600,2.77182958984375,0.0012122418265789747,0.005647111684083939,-0.009596551768481731
1772619008972860700,2.781860595703125,0.00037812255322933197,0.01281224936246872,-0.007089968770742416
1772619008982891500,2.7918916015625,0.006324162241071463,0.010899567976593971,0.001586077269166708
1772619008992921600,2.801921630859375,0.011254755780100822,0.006353382021188736,0.011557469144463539
1772619009002952400,2.811952392578125,0.01666123978793621,-0.005602346733212471,0.023750485852360725
1772619009012983600,2.821983642578125,0.01775410957634449,-0.016765093430876732,0.026179946959018707
1772619009023013600,2.832013671875,0.016648365184664726,-0.021013101562857628,0.03227539360523224
1772619009033044500,2.84204443359375,0.00985713116824627,-0.022539544850587845,0.02836393564939499
1772619009043075600,2.85207568359375,0.003750768955796957,-0.014264039695262909,0.021714288741350174
1772619009053105700,2.862105712890625,0.004829381126910448,0.004096491727977991,0.017974434420466423
1772619009063136500,2.872136474609375,-0.0023835240863263607,0.01593877002596855,0.021795004606246948
1772619009073167600,2.882167724609375,0.0021092977840453386,0.02376953884959221,0.022700104862451553
1772619009083197700,2.89219775390625,0.0008778520859777927,0.02089811861515045,0.030035780742764473
1772619009093228500,2.902228515625,0.002003665314987302,0.007317575626075268,0.034881342202425
1772619009103259600,2.912259765625,0.0026015450712293386,-0.0007592593319714069,0.03938101977109909
1772619009113290800,2.922290771484375,0.005248880945146084,0.0023621832951903343,0.03805984556674957
1772619009123320600,2.932320556640625,0.007884345017373562,0.009325018152594566,0.029846923425793648
1772619009133351400,2.942351318359375,0.01006036251783371,0.008604157716035843,0.01668120175600052
1772619009143382300,2.95238232421875,0.01150299608707428,0.0031116544269025326,0.006398472003638744
1772619009153412000,2.962412109375,0.012426099739968777,-0.007255556993186474,0.0023740213364362717
1772619009163443200,2.972443115234375,0.007866235449910164,-0.011988792568445206,0.00868464820086956
1772619009173474300,2.982474365234375,0.0031818062998354435,-0.009350654669106007,0.01761438325047493
1772619009183504100,2.992504150390625,0.005255343392491341,-0.0009883292950689793,0.023782530799508095
1772619009193535200,3.00253515625,0.003370660822838545,0.01163625717163086,0.023451844230294228
1772619009203566300,3.01256640625,0.0037645422853529453,0.01718815043568611,0.017841896042227745
1772619009213596200,3.02259619140625,0.007167670875787735,0.01869075372815132,0.009285418316721916
1772619009223627300,3.032627197265625,0.015878072008490562,0.018787426874041557,0.010926191695034504
1772619009233658400,3.042658447265625,0.023580683395266533,0.0009807632304728031,0.02353299781680107
1772619009243688200,3.052688232421875,0.025834783911705017,-0.020564742386341095,0.03081727772951126
1772619009253719000,3.062718994140625,0.024092910811305046,-0.029499471187591553,0.04379744082689285
1772619009263750400,3.07275048828125,0.025413040071725845,-0.026395557448267937,0.04666726291179657
1772619009273780200,3.0827802734375,0.029839128255844116,-0.02607952058315277,0.03847331553697586
1772619009283811000,3.09281103515625,0.025002826005220413,-0.023023810237646103,0.02583022601902485
1772619009293842400,3.102842529296875,0.02217412181198597,-0.01914716139435768,0.01607690192759037
1772619009303872000,3.1128720703125,0.01971096359193325,-0.013936687260866165,0.01222703605890274
1772619009313903000,3.122903076171875,0.018099345266819,-0.014792915433645248,0.01722840406000614
1772619009323934200,3.132934326171875,0.016503313556313515,-0.02148570492863655,0.02420588582754135
1772619009333965300,3.14296533203125,0.01806388981640339,-0.02989027462899685,0.03755549341440201
1772619009343995100,3.1529951171875,0.01668969914317131,-0.043886784464120865,0.04184611141681671
1772619009354026200,3.163026123046875,0.013328727334737778,-0.052213408052921295,0.041016317903995514
1772619009364057300,3.173057373046875,0.010762505233287811,-0.045463889837265015,0.0335187204182148
1772619009374087200,3.183087158203125,0.005894448608160019,-0.03138665482401848,0.030162015929818153
1772619009384118300,3.1931181640625,0.0031090485863387585,-0.021506594493985176,0.019525351002812386
1772619009394149400,3.2031494140625,-0.005005190148949623,-0.010842717252671719,0.010638638399541378
1772619009404179200,3.21317919921875,-0.008650525473058224,0.002115692012012005,0.006843900308012962
1772619009414210300,3.223210205078125,-0.01524179894477129,0.017528677359223366,0.011773796752095222
1772619009424241400,3.233241455078125,-0.016151268035173416,0.007975919172167778,0.0074469586834311485
1772619009434271000,3.24327099609375,-0.019599974155426025,-0.00517415814101696,0.007054073270410299
1772619009444302300,3.25330224609375,-0.013825442641973495,-0.00881896074861288,0.0048074303194880486
1772619009454333200,3.263333251953125,-0.0092649906873703,-0.025106113404035568,0.0016309290658682585
1772619009464363000,3.273363037109375,-0.009182965382933617,-0.03576914593577385,0.003908198326826096
1772619009474394400,3.283394287109375,-0.008160020224750042,-0.03323638066649437,0.008945814333856106
1772619009484425200,3.29342529296875,-0.008076130412518978,-0.027924174442887306,0.01044597290456295
1772619009494456300,3.303456298828125,-0.011380515992641449,-0.02147558517754078,0.010790212079882622
1772619009504486400,3.313486328125,-0.008598577231168747,-0.009740100242197514,-0.0009340883116237819
1772619009514517200,3.323517333984375,-0.010769089683890343,0.009257659316062927,-0.003983962815254927
1772619009524548400,3.33354833984375,-0.01036189217120409,0.020027216523885727,-0.005799173377454281
1772619009534578400,3.343578369140625,-0.009336385875940323,0.019148852676153183,-0.0034846102353185415
1772619009544609300,3.353609375,-0.01093960925936699,0.009350549429655075,0.0007277117110788822
1772619009554640400,3.363640380859375,-0.011565718799829483,0.008035214617848396,0.012239757925271988
1772619009564670200,3.373670166015625,-0.007926775142550468,0.0017666672356426716,0.022323017939925194
1772619009574701300,3.383701416015625,-0.0050949957221746445,-0.0016744881868362427,0.022637182846665382
1772619009584732400,3.393732421875,0.0006057671271264553,-0.0014017801731824875,0.02262839488685131
1772619009594762200,3.40376220703125,0.005216516554355621,-0.0036060097627341747,0.020388448610901833
1772619009604793300,3.41379345703125,0.006249024532735348,-0.004532523453235626,0.017591863870620728
1772619009614824200,3.42382421875,0.0040031252428889275,-0.006371642928570509,0.013182617723941803
1772619009624854300,3.433854248046875,0.0009663226082921028,-0.011393832042813301,0.007862420752644539
1772619009634885400,3.443885498046875,-0.006994912866503,-0.01543324626982212,0.0073953415267169476
1772619009644916200,3.453916259765625,-0.008175758644938469,-0.014823648147284985,0.001261016121134162
1772619009654946300,3.4639462890625,-0.012203328311443329,-0.011998044326901436,-0.006177615839987993
1772619009664977400,3.473977294921875,-0.012434490025043488,-0.003270599525421858,-0.010108708404004574
1772619009675008300,3.48400830078125,-0.009803974069654942,0.00754920020699501,-0.008752449415624142
1772619009685038300,3.494038330078125,-0.0017694830894470215,0.005263675935566425,-0.0072323172353208065
1772619009695069400,3.5040693359375,0.0037797954864799976,-0.00358739891089499,0.0024113745894283056
1772619009705100300,3.514100341796875,0.0058999378234148026,-0.015329009853303432,0.007329167798161507
1772619009715131400,3.52413134765625,0.005131667014211416,-0.020154982805252075,0.005009673070162535
1772619009725161200,3.5341611328125,-0.001680432353168726,-0.028401993215084076,0.0008040090324357152
1772619009735192300,3.5441923828125,-0.0042626503854990005,-0.022210214287042618,-0.010215125046670437
1772619009745223200,3.55422314453125,-0.013001813553273678,-0.0110867228358984,-0.018494894728064537
1772619009755253200,3.564253173828125,-0.012663609348237514,0.011110123246908188,-0.028142234310507774
1772619009765284400,3.574284423828125,-0.013883602805435658,0.02754155918955803,-0.02715606614947319
1772619009775315200,3.584315185546875,-0.012126557528972626,0.03398676589131355,-0.030989598482847214
1772619009785345300,3.59434521484375,-0.015073878690600395,0.037919458001852036,-0.03236405551433563
1772619009795376400,3.60437646484375,-0.011571094393730164,0.042454808950424194,-0.024805894121527672
1772619009805407200,3.6144072265625,-0.011632345616817474,0.026593022048473358,-0.01708432473242283
1772619009815437300,3.624437255859375,-0.006384889595210552,0.007165923714637756,-0.00561763159930706
1772619009825468400,3.634468505859375,-0.006104990839958191,0.0003016265109181404,-0.0006436457042582333
1772619009835499300,3.644499267578125,0.00010825227946043015,0.0029888353310525417,0.004175806883722544
1772619009845529300,3.654529296875,0.006748578045517206,0.011229189112782478,0.0014956013765186071
1772619009855560200,3.664560302734375,-0.0009543127380311489,0.02344418130815029,0.0028184717521071434
1772619009865591300,3.67459130859375,-0.002496283035725355,0.036885686218738556,-0.0009056928684003651
1772619009875622400,3.684622314453125,-0.011851131916046143,0.04472697153687477,-0.0002097309334203601
1772619009885652200,3.69465234375,-0.008495282381772995,0.05490264296531677,-0.002176209120079875
1772619009895683300,3.704683349609375,-0.004206812474876642,0.058054160326719284,-0.005745416507124901
1772619009905714200,3.714714111328125,0.004647132940590382,0.045474182814359665,-0.005454332567751408
1772619009915744300,3.724744140625,0.013108739629387856,0.02910938486456871,-0.004219275899231434
1772619009925775400,3.734775390625,0.01896582916378975,0.008567359298467636,0.006277573294937611
1772619009935806200,3.74480615234375,0.018757855519652367,-0.02307225577533245,0.01644023507833481
1772619009945836300,3.754836181640625,0.018031077459454536,-0.045252129435539246,0.030423427000641823
1772619009955867400,3.764867431640625,0.014106432907283306,-0.05564836785197258,0.03748331964015961
1772619009965898200,3.774898193359375,0.009574797935783863,-0.05298867076635361,0.03581991046667099
1772619009975928300,3.78492822265625,0.009802158921957016,-0.045302264392375946,0.025226762518286705
1772619009985959200,3.794959228515625,0.006415416486561298,-0.05030288174748421,0.0187640693038702
1772619009995990300,3.804990234375,0.006951422430574894,-0.051443859934806824,0.007974609732627869
1772619010006020400,3.815020263671875,0.010156003758311272,-0.05034077912569046,-0.005582744255661964
1772619010016051200,3.82505126953125,0.012099134735763073,-0.04880032688379288,-0.018163587898015976
1772619010026082300,3.835082275390625,0.01169300265610218,-0.04639415815472603,-0.029574166983366013
1772619010036112400,3.8451123046875,0.012047931551933289,-0.03765367716550827,-0.029208937659859657
1772619010046143200,3.855143310546875,0.01320214569568634,-0.03582994267344475,-0.020539017394185066
1772619010056174300,3.86517431640625,0.014603182673454285,-0.0349036380648613,-0.008541595190763474
1772619010066204400,3.875204345703125,0.012641231529414654,-0.03237443417310715,-0.0010599767556414008
1772619010076235300,3.8852353515625,0.015126616694033146,-0.024354638531804085,-0.004096237942576408
1772619010086266400,3.895266357421875,0.01639721170067787,-0.018161190673708916,-0.0049037085846066475
1772619010096297200,3.905297119140625,0.015755388885736465,-0.015429586172103882,-0.006786829326301813
1772619010106327300,3.915327392578125,0.015055776573717594,-0.004849912598729134,-0.00940791331231594
1772619010116358400,3.9253583984375,0.01679810881614685,-0.003984811715781689,-0.00959712453186512
1772619010126389200,3.93538916015625,0.009666962549090385,-0.006322534289211035,-0.013135666958987713
1772619010136419800,3.945419921875,0.007717115804553032,-0.013509389013051987,-0.008753425441682339
1772619010146450700,3.95545068359375,0.005716016981750727,-0.011270202696323395,-0.0025573144666850567
1772619010156481800,3.965481689453125,0.0034941951744258404,-0.004652572795748711,0.00841422751545906
1772619010166511900,3.975511962890625,0.0015956275165081024,-0.0003635515458881855,0.01298447884619236
1772619010176542700,3.985542724609375,0.004992012400180101,0.00891857035458088,0.009614365175366402
1772619010186573800,3.99557373046875,0.006953164003789425,0.021591221913695335,0.002987621119245887
1772619010196603600,4.005603759765625,0.008392673917114735,0.02555830404162407,-0.0028754931408911943
1772619010206634800,4.015634765625,0.011537333950400352,0.02284853905439377,-0.005146636627614498
1772619010216665900,4.025665771484375,0.009397584944963455,0.018602445721626282,-0.004492584150284529
1772619010226695700,4.03569580078125,0.002933826996013522,0.012454804033041,0.0005421220557764173
1772619010236726800,4.045726806640625,0.002976620104163885,-0.00501151941716671,0.005734013393521309
1772619010246757600,4.055757568359375,0.0024442540016025305,-0.014948040246963501,0.012173803523182869
1772619010256788700,4.065788818359375,0.0051655238494277,-0.014082037843763828,0.013588059693574905
1772619010266818800,4.07581884765625,0.0071847327053546906,-0.009833763353526592,0.006852925755083561
1772619010276849700,4.085849609375,0.00905915442854166,-0.011864876374602318,0.00019894738215953112
1772619010286880800,4.095880859375,0.010639473795890808,-0.012545846402645111,-0.010477399453520775
1772619010296910800,4.105910888671875,0.010122645646333694,-0.015238195657730103,-0.012581422924995422
1772619010306941700,4.115941650390625,0.010330372489988804,-0.019095785915851593,-0.00736269261687994
1772619010316972800,4.125972900390625,0.002920780796557665,-0.028174016624689102,-0.005392742808908224
1772619010327003000,4.1360029296875,-0.00162150664255023,-0.032750923186540604,-0.006942169740796089
1772619010337033700,4.14603369140625,-0.006799987517297268,-0.02739490196108818,-0.00921589881181717
1772619010347064800,4.15606494140625,-0.009379525668919086,-0.019357215613126755,-0.018450677394866943
1772619010357094700,4.1660947265625,-0.007780051324516535,-0.01715143397450447,-0.026816604658961296
1772619010367125800,4.176125732421875,-0.006884163711220026,-0.009870617650449276,-0.023918554186820984
1772619010377156600,4.186156494140625,-0.002460668794810772,-0.005225823260843754,-0.011103625409305096
1772619010387186700,4.196186767578125,0.000736988615244627,-0.003737649181857705,-0.0029490264132618904
1772619010397217800,4.2062177734375,0.002827482996508479,0.0038269800134003162,0.010586826130747795
1772619010407248600,4.21624853515625,0.00259259226731956,-0.0023941644467413425,0.01485640648752451
1772619010417279700,4.22627978515625,0.0036307096015661955,-0.006487373262643814,0.009448363445699215
1772619010427309800,4.236309814453125,0.0011619592551141977,-0.008783817291259766,0.00356730492785573
1772619010437340700,4.246340576171875,-0.003633611835539341,-0.015263091772794724,-0.0014429392758756876
1772619010447371800,4.256371826171875,-0.012919521890580654,-0.005648813676089048,0.002315846271812916
1772619010457401900,4.26640185546875,-0.016067788004875183,0.005973873659968376,0.006176382303237915
1772619010467432700,4.2764326171875,-0.01665554754436016,0.01646273210644722,0.012200718745589256
1772619010477463800,4.2864638671875,-0.0134867699816823,0.027068357914686203,0.01378693338483572
1772619010487493600,4.29649365234375,-0.011643596924841404,0.014632727950811386,0.016485514119267464
1772619010497524700,4.306524658203125,-0.003561474848538637,0.003936297260224819,0.02005401812493801
1772619010507555800,4.316555908203125,-0.0036685331724584103,-0.004890217445790768,0.0174060370773077
1772619010517585700,4.326585693359375,-0.003823408391326666,-0.010842696763575077,0.0206106286495924
1772619010527616800,4.33661669921875,-0.005341676529496908,-0.011222196742892265,0.020083587616682053
1772619010537647600,4.346647705078125,-0.0022448250092566013,-0.011602012440562248,0.020044712349772453
1772619010547677700,4.356677734375,-0.0036376584321260452,-0.010644339956343174,0.01362063642591238
1772619010557708800,4.366708740234375,-0.0019099446944892406,-0.010412398725748062,0.005308597814291716
1772619010567739600,4.37673974609375,-0.005556610878556967,-0.006783841643482447,-0.0014190796064212918
1772619010577769700,4.386769775390625,-0.0060783070512115955,0.0020944071002304554,-0.008959781378507614
1772619010587800800,4.39680078125,-0.005848476197570562,0.010964063927531242,-0.012280742637813091
1772619010597831700,4.406831787109375,-0.005488254129886627,0.007112718652933836,-0.013355831615626812
1772619010607861800,4.41686181640625,0.0006788279861211777,0.0013019680045545101,-0.007204728201031685
1772619010617892900,4.426892822265625,0.0054134465754032135,-0.013225367292761803,0.006332770921289921
1772619010627923700,4.436923828125,0.01105322316288948,-0.027304967865347862,0.023674743250012398
1772619010637954800,4.446954833984375,0.01649157889187336,-0.041069358587265015,0.03896221145987511
1772619010647984600,4.456984619140625,0.023313531652092934,-0.04890597611665726,0.04058327525854111
1772619010658015700,4.467015625,0.027140527963638306,-0.046318016946315765,0.040573447942733765
1772619010668046600,4.477046630859375,0.030154962092638016,-0.042344313114881516,0.03183241933584213
1772619010678076700,4.48707666015625,0.029628239572048187,-0.05695154145359993,0.025355463847517967
1772619010688107800,4.497107666015625,0.03661983460187912,-0.05841574817895889,0.027195975184440613
1772619010698138600,4.507138671875,0.03158491104841232,-0.028498753905296326,0.033244676887989044
1772619010708168700,4.517168701171875,0.029310040175914764,-0.029157619923353195,0.02406555786728859
1772619010718199800,4.52719970703125,0.025372490286827087,-0.020582951605319977,0.011251323856413364
1772619010728230700,4.537230712890625,0.02437646873295307,0.0007918453775346279,0.005767874885350466
1772619010738260700,4.5472607421875,0.02648477628827095,0.017743976786732674,-0.002848527394235134
1772619010748291800,4.557291748046875,0.023731866851449013,0.017586052417755127,-0.005093572195619345
1772619010758322700,4.56732275390625,0.02487308159470558,0.02581889182329178,-0.009409904479980469
1772619010768352800,4.577352783203125,0.02340621128678322,0.02462765946984291,-0.00444044591858983
1772619010778383600,4.587383544921875,0.02160743623971939,0.013238346204161644,-0.0017246538773179054
1772619010788414700,4.597414794921875,0.01955254189670086,0.00012547383084893227,-0.0020588806364685297
1772619010798445800,4.60744580078125,0.016864649951457977,-0.0005516302771866322,0.0023721647448837757
1772619010808475600,4.6174755859375,0.013162324205040932,-0.0007076915353536606,0.001974554732441902
1772619010818506800,4.6275068359375,0.010075895115733147,0.009104911237955093,-0.0018906861077994108
1772619010828537600,4.63753759765625,0.007929387502372265,0.01703127846121788,-0.009807199239730835
1772619010838567700,4.647567626953125,0.0011548926122486591,0.019320473074913025,-0.017705751582980156
1772619010848598800,4.657598876953125,0.0013820603489875793,0.019435523077845573,-0.02873177081346512
1772619010858629600,4.667629638671875,-0.002718693111091852,0.009027820080518723,-0.034752681851387024
1772619010868659700,4.67765966796875,-0.003309115767478943,0.000052700284868478775,-0.03665231540799141
1772619010878690800,4.68769091796875,-0.007352628745138645,-0.022519104182720184,-0.04107334464788437
1772619010888721700,4.6977216796875,-0.011303161270916462,-0.04290373623371124,-0.03727194666862488
1772619010898751700,4.707751708984375,-0.012327741831541061,-0.056750569492578506,-0.03252619877457619
1772619010908782800,4.717782958984375,-0.009184147231280804,-0.05459900200366974,-0.02237769030034542
1772619010918813700,4.727813720703125,-0.010687723755836487,-0.0434182845056057,-0.02040076069533825
1772619010928843800,4.73784375,-0.007756649050861597,-0.02845771238207817,-0.024228522554039955
1772619010938874600,4.74787451171875,-0.00938841886818409,-0.013629438355565071,-0.0295467060059309
1772619010948905700,4.75790576171875,-0.009132223203778267,0.0021130391396582127,-0.0341196209192276
1772619010958935800,4.767935791015625,-0.009100282564759254,0.007052334491163492,-0.03102852962911129
1772619010968966700,4.777966552734375,-0.007710911333560944,0.002026949543505907,-0.025055591017007828
1772619010978997800,4.787997802734375,-0.00648850342258811,-0.0031373826786875725,-0.015364307910203934
1772619010989027800,4.79802783203125,-0.005506329704076052,-0.00020870473235845566,-0.0066443197429180145
1772619010999058700,4.80805859375,-0.0035069617442786694,0.008778909221291542,-0.0016805048799142241
1772619011009089800,4.81808984375,0.001067283796146512,0.007855856791138649,0.0011570933274924755
1772619011019120600,4.82812060546875,-0.0010154410265386105,0.012564614415168762,0.00197260407730937
1772619011029150700,4.838150634765625,-0.002267926000058651,0.011862605810165405,-0.00006205087993294
1772619011039181800,4.848181884765625,-0.0044612884521484375,0.01302327960729599,0.004370287526398897
1772619011049212700,4.858212646484375,-0.007119655609130859,0.022250333800911903,0.005419839173555374
1772619011059242800,4.86824267578125,-0.003657795023173094,0.029404984787106514,-0.00008700578473508358
1772619011069273600,4.878273681640625,-0.00520056439563632,0.02758125402033329,-0.004993081092834473
1772619011079304700,4.8883046875,-0.00329520832747221,0.0311884842813015,-0.013730163685977459
1772619011089334800,4.898334716796875,0.00009419675916433334,0.03177784010767937,-0.01761145517230034
1772619011099365600,4.90836572265625,-0.0022405963391065598,0.02734474465250969,-0.020347585901618004
1772619011109396700,4.918396728515625,-0.0023021153174340725,0.017462018877267838,-0.022420324385166168
1772619011119426800,4.9284267578125,-0.00435722665861249,0.005136317573487759,-0.022391974925994873
1772619011129457700,4.938457763671875,-0.0057276892475783825,0.004778921604156494,-0.02244390733540058
1772619011139488500,4.948488525390625,-0.011799095198512077,-0.0021162577904760838,-0.026992961764335632
1772619011149518600,4.9585185546875,-0.014357328414916992,-0.0014384831301867962,-0.03379387781023979
1772619011159549400,4.968549560546875,-0.02607092447578907,0.002971652429550886,-0.03485848754644394
1772619011169580500,4.97858056640625,-0.03216343745589256,0.00800449401140213,-0.038440704345703125
1772619011179611400,4.988611328125,-0.03278045356273651,0.01640983670949936,-0.03782224282622337
1772619011189641500,4.998641357421875,-0.03433360904455185,0.02784145623445511,-0.030663667246699333
1772619011199672600,5.008672607421875,-0.028662584722042084,0.033499181270599365,-0.019717136397957802
1772619011209703400,5.018703369140625,-0.02641620859503746,0.034697603434324265,-0.012908765114843845
1772619011219733500,5.0287333984375,-0.02795054391026497,0.03279546648263931,-0.012064149603247643
1772619011229764400,5.038764404296875,-0.024189896881580353,0.018541164696216583,-0.012364553287625313
1772619011239795500,5.04879541015625,-0.026335109025239944,0.002959401812404394,-0.01001918688416481
1772619011249825500,5.058825439453125,-0.02208550274372101,-0.010794493369758129,-0.005444940645247698
1772619011259856400,5.0688564453125,-0.016250919550657272,-0.027951663359999657,0.007422339171171188
1772619011269887500,5.078887451171875,-0.012217829935252666,-0.04008049890398979,0.029305534437298775
1772619011279917600,5.08891748046875,-0.006869782228022814,-0.04573673754930496,0.032008096575737
1772619011289948400,5.098948486328125,-0.012887194752693176,-0.03740104287862778,0.033354587852954865
1772619011299979500,5.1089794921875,-0.018956124782562256,-0.01817905530333519,0.018970949575304985
1772619011310009600,5.119009521484375,-0.020236041396856308,0.01425318606197834,0.011493858881294727
1772619011320040400,5.12904052734375,-0.019160443916916847,0.03218001872301102,0.003595659974962473
1772619011330071600,5.139071533203125,-0.010250572115182877,0.03209187090396881,0.005285701714456081
1772619011340102400,5.149102294921875,-0.0015995968133211136,0.03258787840604782,0.012596799992024899
1772619011350132500,5.159132568359375,0.006811997387558222,0.02264763042330742,0.02889108471572399
1772619011360163300,5.169163330078125,0.01586955040693283,0.007205339148640633,0.03929045423865318
1772619011370194400,5.1791943359375,0.025449739769101143,-0.004628683440387249,0.04004039987921715
1772619011380224500,5.189224609375,0.027109242975711823,-0.014167248271405697,0.04399992153048515
1772619011390255400,5.19925537109375,0.028020575642585754,-0.023228652775287628,0.03532760217785835
1772619011400286500,5.209286376953125,0.031930454075336456,-0.01919202134013176,0.0312116127461195
1772619011410316500,5.219316650390625,0.031139763072133064,-0.01798747479915619,0.03073837049305439
1772619011420347400,5.229347412109375,0.03289838880300522,-0.00782107375562191,0.027544965967535973
1772619011430378500,5.23937841796875,0.030154265463352203,-0.0008507827296853065,0.022622114047408104
1772619011440408600,5.24940869140625,0.03174756467342377,-0.0032662798184901476,0.017829865217208862
1772619011450439400,5.259439453125,0.033062368631362915,-0.013655537739396095,0.012343752197921276
1772619011460470500,5.269470458984375,0.0315450057387352,-0.024833740666508675,0.014014588668942451
1772619011470500400,5.279500244140625,0.03161131590604782,-0.03654499351978302,0.017891883850097656
1772619011480531500,5.289531494140625,0.02587289921939373,-0.04051351919770241,0.01842268370091915
1772619011490562600,5.2995625,0.023029174655675888,-0.04129568859934807,0.021384919062256813
1772619011500592400,5.30959228515625,0.021532876417040825,-0.0370735339820385,0.02074703946709633
1772619011510623500,5.31962353515625,0.016539184376597404,-0.025846445932984352,0.015690496191382408
1772619011520654300,5.329654296875,0.016460590064525604,-0.015733230859041214,0.012468789704144001
1772619011530685400,5.339685546875,0.01619187742471695,-0.0025692256167531013,0.010724153369665146
1772619011540715500,5.349715576171875,0.010017093271017075,0.00006715068593621254,0.011676905676722527
1772619011550746400,5.359746337890625,0.006991476286202669,0.014328112825751305,0.012698227539658546
1772619011560777500,5.369777587890625,0.0036918949335813522,0.02287796139717102,0.01802038960158825
1772619011570807600,5.3798076171875,-0.000055705662816762924,0.020662477239966393,0.021410593762993813
1772619011580838400,5.38983837890625,-0.0005315961316227913,0.016383912414312363,0.025736138224601746
1772619011590869500,5.399869384765625,-0.0008527734316885471,0.0046915700659155846,0.028502097353339195
1772619011600899600,5.409899658203125,-0.001277443952858448,-0.004800053313374519,0.030829938128590584
1772619011610930400,5.419930419921875,-0.0027469764463603497,-0.010499750263988972,0.03436848148703575
1772619011620961500,5.42996142578125,-0.004686556290835142,-0.004381936974823475,0.03141743317246437
1772619011630991400,5.439991455078125,-0.007154774386435747,0.00534978648647666,0.029281575232744217
1772619011641022500,5.4500224609375,-0.010525785386562347,0.013310842216014862,0.021138200536370277
1772619011651053300,5.46005322265625,-0.011037379503250122,0.017355650663375854,0.011092755943536758
1772619011661083400,5.47008349609375,-0.011418713256716728,0.023269029334187508,0.0040595922619104385
1772619011671114500,5.480114501953125,-0.01341714896261692,0.028505869209766388,0.0001378214219585061
1772619011681145300,5.490145263671875,-0.014331245794892311,0.029426420107483864,-0.007051783613860607
1772619011691176700,5.5001767578125,-0.014852959662675858,0.027567798271775246,-0.010145577602088451
1772619011701206500,5.51020654296875,-0.012341433204710484,0.02378702536225319,-0.002354205120354891
1772619011711237400,5.5202373046875,-0.008871334604918957,0.01669582724571228,-0.0015086513012647629
1772619011721268700,5.530268798828125,-0.009553054347634315,0.005625540390610695,-0.0028635484632104635
1772619011731298600,5.540298583984375,-0.004155892413109541,-0.008589614182710648,-0.0037945895455777645
1772619011741329400,5.550329345703125,-0.0060235667042434216,0.0002994844689965248,-0.01175397913902998
1772619011751360800,5.56036083984375,-0.005872033070772886,0.008767804130911827,-0.02972179464995861
1772619011761390300,5.570390380859375,-0.010127830319106579,0.009034108370542526,-0.04695473611354828
1772619011771421400,5.58042138671875,-0.006533095613121986,0.005627127829939127,-0.05311622470617294
1772619011781452500,5.59045263671875,-0.006500932853668928,0.006857274100184441,-0.049898117780685425
1772619011791482400,5.600482421875,-0.005665765609592199,0.002995690330862999,-0.03952537104487419
1772619011801513500,5.610513427734375,-0.009795151650905609,-0.012305059470236301,-0.026965461671352386
1772619011811544600,5.620544677734375,-0.010637243278324604,-0.020709995180368423,-0.016832400113344193
1772619011821574400,5.630574462890625,-0.010870467871427536,-0.030627330765128136,-0.007667772471904755
1772619011831605500,5.64060546875,-0.01474590040743351,-0.03409876301884651,-0.009922404773533344
1772619011841636600,5.65063671875,-0.01894318498671055,-0.027903230860829353,-0.009476050734519958
1772619011851666400,5.66066650390625,-0.014999575912952423,-0.00008358433842658997,-0.014173600822687149
1772619011861697500,5.670697509765625,-0.014633000828325748,0.017649583518505096,-0.018586240708827972
1772619011871728600,5.680728759765625,-0.007706117816269398,0.01862962730228901,-0.017946815118193626
1772619011881758500,5.690758544921875,-0.005527187138795853,0.004090622067451477,-0.01636425592005253
1772619011891789300,5.700789306640625,-0.0022046267986297607,-0.010347971692681313,-0.0019701372366398573
1772619011901820700,5.710820556640625,-0.004810321610420942,-0.02608668804168701,0.008864074945449829
1772619011911850500,5.7208505859375,-0.00896671786904335,-0.04785750061273575,0.010920567438006401
1772619011921881300,5.73088134765625,-0.010492101311683655,-0.04778661951422691,0.008356309495866299
1772619011931912700,5.74091259765625,-0.007598576135933399,-0.031068893149495125,0.004718963988125324
1772619011941943600,5.750943603515625,-0.007003724109381437,-0.007904602214694023,-0.0023208088241517544
1772619011951973400,5.760973388671875,-0.0052273948676884174,0.006143305916339159,-0.004341615363955498
1772619011962004700,5.771004638671875,0.0018023070879280567,0.01188839040696621,-0.0006282304530031979
1772619011972035600,5.78103564453125,0.0025338775012642145,-0.003733979305252433,0.006059233099222183
1772619011982065400,5.7910654296875,0.0033728815615177155,-0.029401617124676704,0.015843600034713745
1772619011992096800,5.8010966796875,0.0036093704402446747,-0.045286040753126144,0.023168090730905533
1772619012002127600,5.811127685546875,0.004551333840936422,-0.05566307529807091,0.034498296678066254
1772619012012157400,5.821157470703125,0.008010514080524445,-0.052323468029499054,0.03819290176033974
1772619012022188500,5.8311884765625,0.006397966295480728,-0.03147115930914879,0.029387371614575386
1772619012032219600,5.8412197265625,0.00774845527485013,-0.01059916615486145,0.01785748265683651
1772619012042249500,5.85124951171875,0.010491366498172283,0.006691891700029373,0.0019443047931417823
1772619012052280300,5.8612802734375,0.009025828912854195,0.0011258851736783981,-0.002001434564590454
1772619012062311700,5.871311767578125,0.008350998163223267,-0.009109683334827423,0.004733904730528593
1772619012072341500,5.881341552734375,0.0026909816078841686,-0.03326535224914551,0.015701867640018463
1772619012082372400,5.891372314453125,-0.0010031051933765411,-0.05022789537906647,0.030341487377882004
1772619012092403700,5.90140380859375,-0.002655330114066601,-0.04205145686864853,0.030052002519369125
1772619012102433500,5.91143359375,-0.005559910554438829,-0.025347555056214333,0.02142847515642643
1772619012112464400,5.92146435546875,-0.008219875395298004,-0.010016536340117455,0.007037285715341568
1772619012122495700,5.931495849609375,-0.011491053737699986,-0.005158466752618551,-0.003334701294079423
1772619012132526600,5.941526611328125,-0.010411939583718777,-0.001991435419768095,-0.006539816036820412
1772619012142556400,5.951556396484375,-0.013161765411496162,-0.008480936288833618,0.0004678483819589019
1772619012152587800,5.961587890625,-0.013194788247346878,-0.01300777681171894,0.005906023550778627
1772619012162618600,5.97161865234375,-0.013431915082037449,-0.010600695386528969,0.013600991107523441
1772619012172648400,5.9816484375,-0.011057439260184765,-0.007832339033484459,0.01545881200581789
1772619012182679600,5.991679443359375,-0.009129410609602928,-0.01157422922551632,0.015936611220240593
1772619012192710700,6.001710693359375,-0.010659396648406982,-0.017810553312301636,0.010661422275006771
1772619012202740500,6.011740478515625,-0.009059768170118332,-0.016187068074941635,0.006816933397203684
1772619012212771600,6.021771484375,-0.007648825645446777,-0.004683811217546463,0.007457956206053495
1772619012222802700,6.031802734375,-0.008387087844312191,0.002235208172351122,0.0066341618075966835
1772619012232832500,6.04183251953125,-0.008874447084963322,-0.0034082962665706873,0.002630898030474782
1772619012242863600,6.051863525390625,-0.007225201465189457,-0.003319021314382553,0.01113345380872488
1772619012252894700,6.061894775390625,-0.0036349939182400703,-0.00036983657628297806,0.019859567284584045
1772619012262924500,6.071924560546875,-0.000006317161023616791,-0.005436548497527838,0.026964891701936722
1772619012272955600,6.08195556640625,0.00039715133607387543,-0.013499002903699875,0.02629776857793331
1772619012282986800,6.09198681640625,0.003427393501624465,-0.010204033926129341,0.022194772958755493
1772619012293017600,6.102017578125,0.005022094585001469,-0.006086786277592182,0.020117241889238358
1772619012303047700,6.112047607421875,0.0035904282703995705,-0.001940302550792694,0.013160651549696922
1772619012313078500,6.12207861328125,0.004178454168140888,0.0012701377272605896,0.008954721502959728
1772619012323109600,6.132109619140625,0.0023192819207906723,0.004715372808277607,0.00044966768473386765
1772619012333139700,6.1421396484375,0.0004920870997011662,-0.0005204020999372005,-0.00401778519153595
1772619012343170600,6.152170654296875,0.0021976798307150602,-0.0017125224694609642,0.004183333832770586
1772619012353201700,6.16220166015625,0.004274945706129074,-0.004593796096742153,0.013296404853463173
1772619012363231700,6.172231689453125,0.004719109740108252,-0.012147794477641582,0.01761380210518837
1772619012373262600,6.1822626953125,0.0049856919795274734,-0.013837836682796478,0.026195839047431946
1772619012383293700,6.192293701171875,0.009585005231201649,-0.011900248005986214,0.03198962286114693
1772619012393323800,6.20232373046875,0.01119089126586914,-0.00989195890724659,0.027100594714283943
1772619012403354600,6.212354736328125,0.010717753320932388,-0.007836648263037205,0.02380596660077572
1772619012413385700,6.2223857421875,0.009652755223214626,-0.010076100006699562,0.016964837908744812
1772619012423415600,6.23241552734375,0.008171048946678638,-0.012923249043524265,0.01292465627193451
1772619012433446700,6.24244677734375,0.010327942669391632,-0.008786294609308243,0.012398948892951012
1772619012443477500,6.2524775390625,0.008185995742678642,-0.00999203510582447,0.012955894693732262
1772619012453508600,6.262508544921875,0.00780835933983326,-0.010204555466771126,0.012164137326180935
1772619012463538700,6.27253857421875,0.005956283304840326,-0.000810474157333374,0.017037441954016685
1772619012473569500,6.282569580078125,0.008028222247958183,0.0038298177532851696,0.019030019640922546
1772619012483600600,6.2926005859375,0.011264482513070107,0.003916878253221512,0.02214251644909382
1772619012493630700,6.302630615234375,0.016197722405195236,-0.00036255549639463425,0.022412294521927834
1772619012503661600,6.31266162109375,0.019112661480903625,-0.0145881874486804,0.01976369507610798
1772619012513692700,6.322692626953125,0.018521973863244057,-0.021636776626110077,0.020775163546204567
1772619012523722800,6.33272265625,0.01782684028148651,-0.024488164111971855,0.021108468994498253
1772619012533753600,6.342753662109375,0.013027289882302284,-0.017579924315214157,0.020656798034906387
1772619012543784700,6.35278466796875,0.01034587062895298,-0.02728825807571411,0.015972310677170753
1772619012553814500,6.362814453125,0.004354024305939674,-0.01753230020403862,0.01570705883204937
1772619012563845600,6.372845703125,0.0016829792875796556,-0.00547655439004302,0.011989787220954895
1772619012573876700,6.382876708984375,0.0027559669688344,-0.005300253164023161,0.002705741673707962
1772619012583906600,6.392906494140625,0.0027665840461850166,0.006817478686571121,0.005379108712077141
1772619012593937700,6.402937744140625,0.004870214965194464,0.011807178147137165,0.005881913006305695
1772619012603968500,6.412968505859375,0.01320091262459755,0.0021833241917192936,0.013451842591166496
1772619012613999600,6.42299951171875,0.01675143837928772,-0.011845409870147705,0.022272499278187752
1772619012624029700,6.43302978515625,0.0269450880587101,-0.031835608184337616,0.03033127449452877
1772619012634060500,6.443060546875,0.02960957959294319,-0.04260649532079697,0.037207555025815964
1772619012644091600,6.453091552734375,0.027506481856107712,-0.05141650140285492,0.04044729098677635
1772619012654121700,6.463121826171875,0.025249186903238297,-0.044336751103401184,0.03207937255501747
1772619012664152600,6.473152587890625,0.02003859356045723,-0.029828334227204323,0.019988344982266426
1772619012674183700,6.48318359375,0.013351663015782833,-0.021161876618862152,0.002944114152342081
1772619012684213800,6.4932138671875,0.0113272275775671,-0.013638829812407494,-0.004568158648908138
1772619012694244600,6.50324462890625,0.010450515896081924,-0.010602826252579689,-0.003517541801556945
1772619012704275700,6.513275634765625,0.006725887767970562,-0.011650769039988518,0.0037328056059777737
1772619012714305500,6.523305419921875,0.006606844253838062,-0.012640133500099182,0.014666413888335228
1772619012724336600,6.533336669921875,0.008062811568379402,-0.018819397315382957,0.01146320253610611
1772619012734367500,6.543367431640625,0.0051048388704657555,-0.027280259877443314,0.009289263747632504
1772619012744397600,6.5533974609375,0.007525731809437275,-0.038572557270526886,0.013309136964380741
1772619012754428700,6.5634287109375,0.007787520997226238,-0.030313296243548393,0.021436838433146477
1772619012764459500,6.57345947265625,0.007208865135908127,-0.039910588413476944,0.018155144527554512
1772619012774490600,6.58349072265625,0.007450413890182972,-0.03934573009610176,0.018367931246757507
1772619012784520700,6.593520751953125,0.004369842354208231,-0.033690083771944046,0.012216156348586082
1772619012794551600,6.603551513671875,-0.002085660118609667,-0.03288314491510391,0.0063156564719974995
1772619012804582700,6.613582763671875,-0.008229246363043785,-0.03203389421105385,0.005966575350612402
1772619012814612700,6.62361279296875,-0.008247355930507183,-0.02656988799571991,0.003292229026556015
1772619012824643600,6.6336435546875,-0.00029945047572255135,-0.02949364483356476,0.009987070225179195
1772619012834674700,6.6436748046875,-0.0031748651526868343,-0.02126128226518631,0.01751289702951908
1772619012844704500,6.65370458984375,0.002487766556441784,-0.028246162459254265,0.021608984097838402
1772619012854735600,6.663735595703125,0.006815669592469931,-0.03979123383760452,0.02279222570359707
1772619012864766700,6.6737666015625,0.005859594792127609,-0.05289025604724884,0.02521304041147232
1772619012874796500,6.683796630859375,0.004756513517349958,-0.06217723339796066,0.021748533472418785
1772619012884827600,6.69382763671875,0.011870795860886574,-0.07275933772325516,0.02654639072716236
1772619012894858500,6.7038583984375,0.015499619767069817,-0.08308601379394531,0.029719548299908638
1772619012904888600,6.713888671875,0.015503151342272758,-0.08569350093603134,0.03728840872645378
1772619012914919700,6.723919677734375,0.01485041156411171,-0.09261159598827362,0.03307182714343071
1772619012924950500,6.733950439453125,0.012624187394976616,-0.076842300593853,0.018041811883449554
1772619012934981600,6.743981689453125,0.0013259928673505783,-0.07949454337358475,-0.017172634601593018
1772619012945011700,6.75401171875,-0.004901775158941746,-0.05655340105295181,-0.024534862488508224
1772619012955042600,6.76404248046875,0.004061093553900719,-0.04354545474052429,-0.05236782878637314
1772619012965073700,6.77407373046875,0.010729404166340828,0.02976207248866558,-0.045893747359514236
1772619012975103700,6.784103759765625,0.009961348958313465,0.0598030611872673,-0.04105611518025398
1772619012985134600,6.794134521484375,0.006062657106667757,0.042861856520175934,-0.035396456718444824
1772619012995165700,6.804165771484375,0.012311231344938278,0.0891830176115036,-0.015582539141178131
1772619013005195500,6.814195556640625,0.006971827242523432,0.11592447757720947,-0.004475639201700687
1772619013015226600,6.8242265625,0.009699436835944653,0.10976245999336243,-0.015125088393688202
1772619013025257500,6.834257568359375,0.018847297877073288,0.09648724645376205,-0.04656847193837166
1772619013035287600,6.84428759765625,0.028868241235613823,0.14133034646511078,-0.0756339430809021
1772619013045318700,6.854318603515625,0.006300461012870073,0.1385481059551239,-0.08705276995897293
1772619013055349500,6.864349609375,0.005037323571741581,0.07373102009296417,-0.07375986874103546
1772619013065379600,6.874379638671875,0.008531407453119755,0.04324508458375931,-0.046473078429698944
